time,seconds_elapsed,z,y,x
1700516798642535700,0.01453564453125,-0.8249969482421875,-0.1765594482421875,0.055816650390625
1700516798652545800,0.0245458984375,-1.057098388671875,-0.19879150390625,0.0063018798828125
1700516798662555600,0.0345556640625,-1.13214111328125,-0.05419921875,0.0672760009765625
1700516798672565800,0.044565673828125,-0.895721435546875,0.052490234375,0.0207672119140625
1700516798682576600,0.05457666015625,-0.8509674072265625,-0.32281494140625,0.076080322265625
1700516798692586800,0.064586669921875,-1.079132080078125,-0.1290130615234375,-0.0111236572265625
1700516798702596600,0.0745966796875,-1.1085968017578125,-0.05133056640625,0.077545166015625
1700516798712606700,0.084606689453125,-0.945526123046875,-0.1177215576171875,0.0031890869140625
1700516798722616600,0.094616455078125,-1.0083465576171875,-0.09613037109375,0.063446044921875
1700516798732626700,0.104626708984375,-0.84674072265625,-0.16668701171875,0.0306854248046875
1700516798742636800,0.11463671875,-1.08575439453125,-0.18121337890625,0.02777099609375
1700516798752646700,0.124646728515625,-1.08819580078125,-0.0415191650390625,0.0386505126953125
1700516798762656800,0.13465673828125,-0.9173583984375,0.0341033935546875,0.0258636474609375
1700516798772666600,0.14466650390625,-0.8803558349609375,-0.321807861328125,0.0827789306640625
1700516798782676700,0.1546767578125,-1.075042724609375,-0.1114501953125,-0.022552490234375
1700516798792686600,0.1646865234375,-1.090972900390625,-0.0736236572265625,0.065032958984375
1700516798802696700,0.17469677734375,-0.953643798828125,-0.1107635498046875,0.0114288330078125
1700516798812706800,0.184706787109375,-1.0221099853515625,-0.0881195068359375,0.0485992431640625
1700516798822716700,0.194716552734375,-0.827606201171875,-0.170684814453125,0.03472900390625
1700516798832726800,0.204726806640625,-1.099609375,-0.1974029541015625,0.0279541015625
1700516798842736600,0.214736572265625,-1.0729827880859375,-0.03485107421875,0.036285400390625
1700516798852746800,0.224746826171875,-0.879852294921875,0.0269927978515625,0.0268707275390625
1700516798862756600,0.234756591796875,-0.869171142578125,-0.3416748046875,0.06634521484375
1700516798872766700,0.2447666015625,-1.1269989013671875,-0.1019287109375,0.0008697509765625
1700516798882776800,0.25477685546875,-1.0623626708984375,-0.0660552978515625,0.067047119140625
1700516798892786700,0.26478662109375,-0.9652099609375,-0.13250732421875,0.0090789794921875
1700516798902796800,0.274796875,-1.0255889892578125,-0.0828857421875,0.06329345703125
1700516798912806700,0.284806640625,-0.834075927734375,-0.2010650634765625,0.020843505859375
1700516798922816800,0.294816650390625,-1.0995635986328125,-0.150909423828125,0.038970947265625
1700516798932827000,0.304826904296875,-1.05975341796875,-0.0704345703125,0.0389251708984375
1700516798942836700,0.314836669921875,-0.919708251953125,0.01763916015625,0.0179595947265625
1700516798952846800,0.324846923828125,-0.8863372802734375,-0.2993316650390625,0.0816802978515625
1700516798962856700,0.334856689453125,-1.10113525390625,-0.1083831787109375,-0.012237548828125
1700516798972867800,0.344867919921875,-1.0559234619140625,-0.0932769775390625,0.078857421875
1700516798982877700,0.354877685546875,-0.965850830078125,-0.111114501953125,0.0019073486328125
1700516798992887800,0.3648876953125,-1.04327392578125,-0.065948486328125,0.0638427734375
1700516799002897700,0.374897705078125,-0.8408203125,-0.145599365234375,0.025299072265625
1700516799012907800,0.38490771484375,-1.113433837890625,-0.224639892578125,0.046722412109375
1700516799022917600,0.394917724609375,-1.046661376953125,-0.0214996337890625,0.039520263671875
1700516799032927700,0.404927734375,-0.89239501953125,0.0260009765625,0.0264892578125
1700516799042937900,0.414937744140625,-0.8971710205078125,-0.3086395263671875,0.067962646484375
1700516799052947700,0.42494775390625,-1.1120147705078125,-0.1124725341796875,-0.0050201416015625
1700516799062957800,0.434957763671875,-1.0540008544921875,-0.0651702880859375,0.0807342529296875
1700516799072967700,0.4449677734375,-0.94989013671875,-0.1384429931640625,0.0156097412109375
1700516799082977800,0.454977783203125,-1.020721435546875,-0.0723419189453125,0.0534210205078125
1700516799092987600,0.464987548828125,-0.8021392822265625,-0.1795501708984375,0.037506103515625
1700516799102997800,0.474997802734375,-1.091888427734375,-0.188201904296875,0.0253448486328125
1700516799113007900,0.4850078125,-1.101959228515625,-0.065185546875,0.0618133544921875
1700516799123017700,0.495017822265625,-0.9133148193359375,0.042236328125,0.013702392578125
1700516799133027800,0.50502783203125,-0.8793487548828125,-0.2955780029296875,0.0760955810546875
1700516799143037700,0.51503759765625,-1.08209228515625,-0.1566619873046875,-0.0010986328125
1700516799153047800,0.5250478515625,-1.0883941650390625,-0.06854248046875,0.0812530517578125
1700516799163058000,0.535057861328125,-0.9508514404296875,-0.13153076171875,0.012237548828125
1700516799173067800,0.54506787109375,-1.0433502197265625,-0.0943603515625,0.052947998046875
1700516799183078000,0.555077880859375,-0.8240203857421875,-0.15032958984375,0.0429229736328125
1700516799193087700,0.565087646484375,-1.0602874755859375,-0.21978759765625,0.02716064453125
1700516799203097900,0.575097900390625,-1.11383056640625,-0.063720703125,0.0522613525390625
1700516799213107700,0.585107666015625,-0.9059906005859375,0.0443878173828125,0.0196380615234375
1700516799223117800,0.595117919921875,-0.8698883056640625,-0.2769927978515625,0.070648193359375
1700516799233127700,0.605127685546875,-1.0727691650390625,-0.16363525390625,-0.0049896240234375
1700516799243137500,0.615137451171875,-1.1020050048828125,-0.0532989501953125,0.078643798828125
1700516799253147600,0.625147705078125,-0.92718505859375,-0.1314849853515625,0.0087890625
1700516799263157500,0.635157470703125,-1.0460205078125,-0.08941650390625,0.0583648681640625
1700516799273167600,0.645167724609375,-0.8335113525390625,-0.1425018310546875,0.03662109375
1700516799283177700,0.655177734375,-1.0372161865234375,-0.20672607421875,0.0282745361328125
1700516799293187600,0.6651875,-1.1114501953125,-0.07928466796875,0.05194091796875
1700516799303197700,0.67519775390625,-0.924713134765625,0.0546112060546875,0.01141357421875
1700516799313207600,0.68520751953125,-0.871551513671875,-0.2521209716796875,0.078857421875
1700516799323217700,0.6952177734375,-1.03643798828125,-0.185791015625,0.000396728515625
1700516799333227500,0.7052275390625,-1.125457763671875,-0.0476226806640625,0.078948974609375
1700516799343237600,0.715237548828125,-0.938812255859375,-0.117034912109375,0.0180816650390625
1700516799353248500,0.72524853515625,-1.0507049560546875,-0.109527587890625,0.05859375
1700516799363258600,0.735258544921875,-0.84149169921875,-0.110626220703125,0.0486297607421875
1700516799373268500,0.7452685546875,-1.016510009765625,-0.2327880859375,0.01971435546875
1700516799383278600,0.755278564453125,-1.14581298828125,-0.0780487060546875,0.06231689453125
1700516799393288700,0.765288818359375,-0.9171295166015625,0.05352783203125,0.012542724609375
1700516799403298600,0.775298583984375,-0.859527587890625,-0.2415618896484375,0.071258544921875
1700516799413308700,0.78530859375,-1.031585693359375,-0.2237091064453125,-0.000732421875
1700516799423318500,0.795318603515625,-1.14068603515625,-0.03436279296875,0.0741424560546875
1700516799433328600,0.80532861328125,-0.939788818359375,-0.12548828125,0.0124053955078125
1700516799443338800,0.8153388671875,-1.0380401611328125,-0.1135711669921875,0.050811767578125
1700516799453348600,0.8253486328125,-0.841583251953125,-0.1303253173828125,0.043914794921875
1700516799463358700,0.835358642578125,-0.9925994873046875,-0.2207183837890625,0.0211029052734375
1700516799473368600,0.84536865234375,-1.15264892578125,-0.094390869140625,0.0593414306640625
1700516799483378700,0.855378662109375,-0.93035888671875,0.056732177734375,0.00726318359375
1700516799493388500,0.865388427734375,-0.8466949462890625,-0.2234649658203125,0.0744476318359375
1700516799503398700,0.875398681640625,-1.006195068359375,-0.2292633056640625,0.0005950927734375
1700516799513408800,0.88540869140625,-1.1694488525390625,-0.02178955078125,0.07733154296875
1700516799523418600,0.895418701171875,-0.9381561279296875,-0.1156158447265625,0.0182647705078125
1700516799533428700,0.9054287109375,-1.017364501953125,-0.1245574951171875,0.051055908203125
1700516799543438600,0.9154384765625,-0.8473968505859375,-0.103759765625,0.0462799072265625
1700516799553448700,0.92544873046875,-0.98431396484375,-0.2196044921875,0.0220489501953125
1700516799563458600,0.93545849609375,-1.1618804931640625,-0.089996337890625,0.0618743896484375
1700516799573468400,0.945468505859375,-0.9203643798828125,0.0637664794921875,0.0027923583984375
1700516799583478500,0.955478515625,-0.854248046875,-0.2208099365234375,0.076202392578125
1700516799593488100,0.965488037109375,-1.0119171142578125,-0.2281036376953125,0.0010986328125
1700516799603498200,0.975498291015625,-1.1690673828125,-0.0244140625,0.0792083740234375
1700516799613508400,0.98550830078125,-0.9339599609375,-0.1153106689453125,0.0175628662109375
1700516799623518200,0.995518310546875,-1.0417938232421875,-0.1216278076171875,0.05426025390625
1700516799633528300,1.0055283203125,-0.8626556396484375,-0.1115875244140625,0.0549468994140625
1700516799643538200,1.0155380859375,-0.9680328369140625,-0.222198486328125,0.019378662109375
1700516799653548300,1.02554833984375,-1.1589202880859375,-0.1018829345703125,0.066619873046875
1700516799663558100,1.03555810546875,-0.9449462890625,0.0672760009765625,0.005462646484375
1700516799673568300,1.045568359375,-0.8546905517578125,-0.22088623046875,0.0816650390625
1700516799683578400,1.055578369140625,-1.0059356689453125,-0.2374420166015625,0.0067901611328125
1700516799693588200,1.065588134765625,-1.1663818359375,-0.031219482421875,0.0706939697265625
1700516799703598300,1.075598388671875,-0.9359283447265625,-0.116241455078125,0.0212554931640625
1700516799713608200,1.085608154296875,-1.0389404296875,-0.132293701171875,0.0520172119140625
1700516799723618300,1.095618408203125,-0.8516387939453125,-0.0974273681640625,0.0512847900390625
1700516799733628200,1.105628173828125,-0.9799346923828125,-0.246826171875,0.01416015625
1700516799743638300,1.11563818359375,-1.173828125,-0.0750579833984375,0.061737060546875
1700516799753649200,1.125649169921875,-0.915435791015625,0.0625,0.001922607421875
1700516799763659300,1.1356591796875,-0.8370208740234375,-0.239715576171875,0.0761566162109375
1700516799773669000,1.145669189453125,-1.025970458984375,-0.2392730712890625,0.010040283203125
1700516799783679200,1.15567919921875,-1.1521148681640625,-0.0123138427734375,0.0588531494140625
1700516799793689300,1.165689453125,-0.9313201904296875,-0.1213226318359375,0.01226806640625
1700516799803699200,1.17569921875,-1.0368499755859375,-0.1181182861328125,0.0479278564453125
1700516799813709300,1.185709228515625,-0.8292388916015625,-0.1378936767578125,0.0425872802734375
1700516799823719200,1.19571923828125,-1.0096435546875,-0.2094268798828125,0.0110931396484375
1700516799833729300,1.205729248046875,-1.1594696044921875,-0.0689239501953125,0.0600128173828125
1700516799843739400,1.215739501953125,-0.9146881103515625,0.0584716796875,-0.0005340576171875
1700516799853749200,1.225749267578125,-0.8272705078125,-0.2667999267578125,0.0703277587890625
1700516799863759400,1.23575927734375,-1.053924560546875,-0.1949005126953125,-0.0125732421875
1700516799873769200,1.245769287109375,-1.1550140380859375,-0.0196533203125,0.077423095703125
1700516799883779300,1.255779296875,-0.923858642578125,-0.1226654052734375,0.0062713623046875
1700516799893789200,1.2657890625,-1.0437164306640625,-0.101226806640625,0.052093505859375
1700516799903799300,1.27579931640625,-0.823699951171875,-0.154754638671875,0.037445068359375
1700516799913809400,1.285809326171875,-1.0571746826171875,-0.1965789794921875,0.022247314453125
1700516799923819300,1.2958193359375,-1.137237548828125,-0.0552215576171875,0.06439208984375
1700516799933829400,1.305829345703125,-0.902587890625,0.0492706298828125,0.011383056640625
1700516799943839200,1.315839111328125,-0.83526611328125,-0.308563232421875,0.0759735107421875
1700516799953849300,1.325849365234375,-1.09014892578125,-0.1479644775390625,-0.0002899169921875
1700516799963859200,1.335859130859375,-1.1276092529296875,-0.0382232666015625,0.097625732421875
1700516799973869300,1.345869384765625,-0.92138671875,-0.1297607421875,0.0083160400390625
1700516799983879400,1.35587939453125,-1.0447540283203125,-0.095947265625,0.067626953125
1700516799993889300,1.36588916015625,-0.817352294921875,-0.1744384765625,0.0372467041015625
1700516800003899400,1.3758994140625,-1.0916595458984375,-0.1790924072265625,0.0402984619140625
1700516800013909200,1.3859091796875,-1.0924835205078125,-0.0517578125,0.0513153076171875
1700516800023919400,1.39591943359375,-0.90118408203125,0.028564453125,0.02569580078125
1700516800033929500,1.405929443359375,-0.847381591796875,-0.315032958984375,0.0726776123046875
1700516800043939300,1.415939208984375,-1.1076812744140625,-0.1204833984375,0.0077056884765625
1700516800053949400,1.425949462890625,-1.098388671875,-0.060577392578125,0.0707550048828125
1700516800063959300,1.435959228515625,-0.927734375,-0.13104248046875,0.014129638671875
1700516800073969400,1.445969482421875,-1.03668212890625,-0.084625244140625,0.0637054443359375
1700516800083980300,1.455980224609375,-0.81671142578125,-0.1726531982421875,0.023406982421875
1700516800093990400,1.465990478515625,-1.1166839599609375,-0.2017974853515625,0.039581298828125
1700516800104000300,1.476000244140625,-1.066314697265625,-0.019012451171875,0.0261993408203125
1700516800114010400,1.48601025390625,-0.8834075927734375,0.0026702880859375,0.03411865234375
1700516800124020200,1.496020263671875,-0.8737640380859375,-0.333465576171875,0.0540313720703125
1700516800134030300,1.5060302734375,-1.13653564453125,-0.0992279052734375,0.0098724365234375
1700516800144040400,1.51604052734375,-1.0466766357421875,-0.0683746337890625,0.05322265625
1700516800154050300,1.52605029296875,-0.947784423828125,-0.1462554931640625,0.0145263671875
1700516800164060400,1.536060302734375,-1.0330352783203125,-0.0648345947265625,0.0575408935546875
1700516800174070300,1.5460703125,-0.8085174560546875,-0.1940765380859375,0.015106201171875
1700516800184080400,1.556080322265625,-1.15020751953125,-0.177459716796875,0.0432891845703125
1700516800194090200,1.56609033203125,-1.0462188720703125,0.00823974609375,0.0299072265625
1700516800204100400,1.576100341796875,-0.8640594482421875,-0.0296478271484375,0.0421905517578125
1700516800214110500,1.5861103515625,-0.8907928466796875,-0.3450927734375,0.049407958984375
1700516800224120300,1.596120361328125,-1.165313720703125,-0.0518646240234375,0.0232086181640625
1700516800234130400,1.60613037109375,-1.012054443359375,-0.0728759765625,0.0606231689453125
1700516800244140300,1.616140380859375,-0.957122802734375,-0.1497344970703125,0.0211334228515625
1700516800254150400,1.626150390625,-0.995697021484375,-0.09674072265625,0.0751495361328125
1700516800264160500,1.636160400390625,-0.8481597900390625,-0.193084716796875,0.01165771484375
1700516800274170400,1.64617041015625,-1.161346435546875,-0.14251708984375,0.064178466796875
1700516800284180500,1.656180419921875,-1.0151519775390625,-0.0042572021484375,0.0279388427734375
1700516800294190300,1.6661904296875,-0.8645172119140625,-0.0702056884765625,0.0517578125
1700516800304200400,1.676200439453125,-0.9143829345703125,-0.32080078125,0.047515869140625
1700516800314210300,1.686210205078125,-1.1743011474609375,-0.0440216064453125,0.03790283203125
1700516800324220400,1.696220458984375,-0.983428955078125,-0.0985107421875,0.051025390625
1700516800334230500,1.70623046875,-0.9775238037109375,-0.1411285400390625,0.034942626953125
1700516800344240400,1.716240478515625,-0.9734954833984375,-0.102996826171875,0.0663909912109375
1700516800354250500,1.72625048828125,-0.8686370849609375,-0.1956939697265625,0.0092315673828125
1700516800364260400,1.73626025390625,-1.1638641357421875,-0.1494598388671875,0.0684661865234375
1700516800374270500,1.7462705078125,-0.99072265625,0.0246429443359375,0.006195068359375
1700516800384281300,1.75628125,-0.8630523681640625,-0.107666015625,0.0663909912109375
1700516800394291500,1.76629150390625,-0.9216156005859375,-0.3105316162109375,0.0262908935546875
1700516800404301300,1.77630126953125,-1.1783599853515625,-0.0357666015625,0.049041748046875
1700516800414311400,1.7863115234375,-0.9556732177734375,-0.1046142578125,0.034820556640625
1700516800424321500,1.796321533203125,-0.9827423095703125,-0.1478118896484375,0.03680419921875
1700516800434331400,1.806331298828125,-0.9578094482421875,-0.085845947265625,0.0614471435546875
1700516800444341500,1.816341552734375,-0.88739013671875,-0.209075927734375,0.005950927734375
1700516800454351400,1.826351318359375,-1.16845703125,-0.140655517578125,0.063018798828125
1700516800464361500,1.836361572265625,-0.970611572265625,0.0399169921875,0.001190185546875
1700516800474371300,1.846371337890625,-0.8652191162109375,-0.1383056640625,0.066680908203125
1700516800484381400,1.85638134765625,-0.9452056884765625,-0.2968902587890625,0.01617431640625
1700516800494391600,1.8663916015625,-1.1750335693359375,-0.02923583984375,0.055908203125
1700516800504401400,1.8764013671875,-0.9488677978515625,-0.106201171875,0.0273284912109375
1700516800514411500,1.88641162109375,-1.001129150390625,-0.1383209228515625,0.045196533203125
1700516800524421000,1.896421142578125,-0.922515869140625,-0.1165008544921875,0.0559844970703125
1700516800534431200,1.90643115234375,-0.9245147705078125,-0.19049072265625,0.012298583984375
1700516800544441300,1.91644140625,-1.15411376953125,-0.1326904296875,0.068756103515625
1700516800554451200,1.926451171875,-0.9628448486328125,0.0305023193359375,0.0021820068359375
1700516800564461600,1.936461669921875,-0.864654541015625,-0.146087646484375,0.074798583984375
1700516800574471400,1.946471435546875,-0.948394775390625,-0.28082275390625,0.01824951171875
1700516800584481500,1.9564814453125,-1.1790771484375,-0.0358123779296875,0.0581817626953125
1700516800594491400,1.966491455078125,-0.93463134765625,-0.1122894287109375,0.03125
1700516800604502500,1.97650244140625,-1.006317138671875,-0.1414031982421875,0.047821044921875
1700516800614512400,1.986512451171875,-0.932159423828125,-0.0945587158203125,0.05694580078125
1700516800624522500,1.9965224609375,-0.9091339111328125,-0.2096405029296875,0.0121002197265625
1700516800634532400,2.006532470703125,-1.1706085205078125,-0.13494873046875,0.0718841552734375
1700516800644542500,2.01654248046875,-0.9565887451171875,0.03741455078125,0.001617431640625
1700516800654552600,2.026552490234375,-0.8734130859375,-0.151641845703125,0.0773162841796875
1700516800664562400,2.0365625,-0.9569549560546875,-0.2769622802734375,0.0157470703125
1700516800674572500,2.046572509765625,-1.166656494140625,-0.04534912109375,0.060577392578125
1700516800684582400,2.05658251953125,-0.9344329833984375,-0.1136627197265625,0.028411865234375
1700516800694592500,2.066592529296875,-1.0160064697265625,-0.1366119384765625,0.04852294921875
1700516800704602400,2.076602294921875,-0.9384765625,-0.085113525390625,0.0550537109375
1700516800714612500,2.086612548828125,-0.90216064453125,-0.212310791015625,0.014862060546875
1700516800724622600,2.09662255859375,-1.166259765625,-0.1355133056640625,0.061370849609375
1700516800734632400,2.106632568359375,-0.9614410400390625,0.0422515869140625,0.005035400390625
1700516800744642600,2.116642578125,-0.8726043701171875,-0.14044189453125,0.076751708984375
1700516800754652400,2.12665234375,-0.9440155029296875,-0.289947509765625,0.0115203857421875
1700516800764662500,2.13666259765625,-1.1633148193359375,-0.036590576171875,0.05743408203125
1700516800774672400,2.14667236328125,-0.9601287841796875,-0.1136932373046875,0.0299224853515625
1700516800784682500,2.1566826171875,-1.009735107421875,-0.1298370361328125,0.042236328125
1700516800794693400,2.166693359375,-0.9214019775390625,-0.1044158935546875,0.0549468994140625
1700516800804703500,2.176703369140625,-0.8986358642578125,-0.2047576904296875,0.012908935546875
1700516800814713600,2.186713623046875,-1.16015625,-0.1342315673828125,0.05865478515625
1700516800824723500,2.196723388671875,-0.9813079833984375,0.0215301513671875,0.0127105712890625
1700516800834733600,2.206733642578125,-0.872528076171875,-0.120513916015625,0.0691986083984375
1700516800844743400,2.216743408203125,-0.9215240478515625,-0.286468505859375,0.0133056640625
1700516800854753500,2.22675341796875,-1.1666107177734375,-0.051513671875,0.0526275634765625
1700516800864763400,2.236763427734375,-0.97943115234375,-0.1135406494140625,0.0349578857421875
1700516800874773500,2.2467734375,-0.9883880615234375,-0.1244049072265625,0.04302978515625
1700516800884783600,2.25678369140625,-0.939788818359375,-0.101898193359375,0.0490875244140625
1700516800894793500,2.26679345703125,-0.8961181640625,-0.1901092529296875,0.0214080810546875
1700516800904803600,2.276803466796875,-1.1529998779296875,-0.1580810546875,0.0521697998046875
1700516800914813400,2.2868134765625,-0.9861907958984375,0.0062103271484375,0.014251708984375
1700516800924823600,2.296823486328125,-0.8924407958984375,-0.0782928466796875,0.070526123046875
1700516800934833400,2.30683349609375,-0.916656494140625,-0.2960357666015625,0.021026611328125
1700516800944843500,2.316843505859375,-1.1559906005859375,-0.0694427490234375,0.04437255859375
1700516800954854400,2.3268544921875,-1.002593994140625,-0.1038665771484375,0.043182373046875
1700516800964864500,2.336864501953125,-0.985809326171875,-0.1346588134765625,0.04205322265625
1700516800974874600,2.34687451171875,-0.986907958984375,-0.0555877685546875,0.044677734375
1700516800984884500,2.356884521484375,-0.84381103515625,-0.1954345703125,0.02642822265625
1700516800994894600,2.36689453125,-1.148162841796875,-0.1776123046875,0.047515869140625
1700516801004904400,2.376904541015625,-1.0075531005859375,0.0155029296875,0.0189666748046875
1700516801014914600,2.38691455078125,-0.894989013671875,-0.05218505859375,0.0611572265625
1700516801024924400,2.39692431640625,-0.8927154541015625,-0.3044891357421875,0.03167724609375
1700516801034934500,2.4069345703125,-1.1315765380859375,-0.0887451171875,0.03424072265625
1700516801044944600,2.416944580078125,-1.026458740234375,-0.0845489501953125,0.035186767578125
1700516801054954500,2.42695458984375,-0.9658355712890625,-0.1352386474609375,0.0292816162109375
1700516801064964600,2.436964599609375,-0.994781494140625,-0.068023681640625,0.0483551025390625
1700516801074974500,2.446974365234375,-0.829315185546875,-0.1772613525390625,0.0172576904296875
1700516801084984600,2.456984619140625,-1.137847900390625,-0.1847381591796875,0.04254150390625
1700516801094995500,2.466995361328125,-1.0298004150390625,-0.0229034423828125,0.019561767578125
1700516801105005600,2.477005615234375,-0.8990020751953125,-0.01385498046875,0.0481109619140625
1700516801115015400,2.487015380859375,-0.8849029541015625,-0.30078125,0.0406036376953125
1700516801125025500,2.497025634765625,-1.1259765625,-0.1119842529296875,0.0178070068359375
1700516801135035400,2.507035400390625,-1.0628814697265625,-0.0805206298828125,0.0568695068359375
1700516801145045500,2.51704541015625,-0.9482879638671875,-0.1291961669921875,0.0189361572265625
1700516801155055600,2.5270556640625,-1.0267181396484375,-0.0827484130859375,0.0567626953125
1700516801165065500,2.5370654296875,-0.817291259765625,-0.154449462890625,0.0256195068359375
1700516801175075600,2.54707568359375,-1.1120758056640625,-0.2085723876953125,0.0384979248046875
1700516801185085400,2.55708544921875,-1.065093994140625,-0.0342559814453125,0.03289794921875
1700516801195095600,2.567095458984375,-0.899169921875,0.010833740234375,0.0408477783203125
1700516801205105700,2.577105712890625,-0.8804779052734375,-0.2967681884765625,0.0540924072265625
1700516801215116500,2.587116455078125,-1.10601806640625,-0.13525390625,0.014068603515625
1700516801225126400,2.59712646484375,-1.0793304443359375,-0.0695648193359375,0.0668487548828125
1700516801235136500,2.607136474609375,-0.9337158203125,-0.128387451171875,0.018585205078125
1700516801245146600,2.617146728515625,-1.0487060546875,-0.090667724609375,0.058319091796875
1700516801255156500,2.627156494140625,-0.8155517578125,-0.1409759521484375,0.0334625244140625
1700516801265166600,2.63716650390625,-1.0865325927734375,-0.2154388427734375,0.03692626953125
1700516801275176400,2.647176513671875,-1.083709716796875,-0.0425872802734375,0.03656005859375
1700516801285186600,2.6571865234375,-0.897369384765625,0.0287017822265625,0.0345916748046875
1700516801295196400,2.667196533203125,-0.8804473876953125,-0.287322998046875,0.0569000244140625
1700516801305206500,2.67720654296875,-1.0936431884765625,-0.1526947021484375,0.0093841552734375
1700516801315216600,2.687216552734375,-1.0953216552734375,-0.0539093017578125,0.065643310546875
1700516801325226500,2.6972265625,-0.9297637939453125,-0.1226043701171875,0.010467529296875
1700516801335237400,2.7072373046875,-1.0459442138671875,-0.1013031005859375,0.05902099609375
1700516801345247500,2.71724755859375,-0.8313446044921875,-0.137847900390625,0.0240631103515625
1700516801355257600,2.727257568359375,-1.068267822265625,-0.1956634521484375,0.0389556884765625
1700516801365267500,2.737267333984375,-1.088043212890625,-0.071319580078125,0.027008056640625
1700516801375277600,2.747277587890625,-0.9124755859375,0.03314208984375,0.0209503173828125
1700516801385287400,2.757287353515625,-0.8715972900390625,-0.257110595703125,0.0670928955078125
1700516801395297500,2.767297607421875,-1.0680389404296875,-0.178314208984375,0.00799560546875
1700516801405307600,2.7773076171875,-1.11566162109375,-0.0601806640625,0.0512847900390625
1700516801415317500,2.7873173828125,-0.926910400390625,-0.1119842529296875,0.0058746337890625
1700516801425327600,2.79732763671875,-1.0349273681640625,-0.1253662109375,0.063629150390625
1700516801435338500,2.80733837890625,-0.843780517578125,-0.10284423828125,0.023651123046875
1700516801445348600,2.8173486328125,-1.03204345703125,-0.2389678955078125,0.0291290283203125
1700516801455358500,2.8273583984375,-1.1121826171875,-0.0715484619140625,0.0349273681640625
1700516801465368600,2.83736865234375,-0.904693603515625,0.0434417724609375,0.0159454345703125
1700516801475378400,2.84737841796875,-0.86798095703125,-0.254058837890625,0.06494140625
1700516801485388500,2.857388427734375,-1.0527191162109375,-0.1956939697265625,-0.0013885498046875
1700516801495398400,2.8673984375,-1.1352081298828125,-0.047943115234375,0.0652313232421875
1700516801505408500,2.877408447265625,-0.909271240234375,-0.1248931884765625,0.0029449462890625
1700516801515418600,2.887418701171875,-1.041290283203125,-0.12164306640625,0.06256103515625
1700516801525429500,2.897429443359375,-0.8560943603515625,-0.10986328125,0.0269622802734375
1700516801535439600,2.907439697265625,-1.015350341796875,-0.215179443359375,0.022918701171875
1700516801545449500,2.917449462890625,-1.11956787109375,-0.09112548828125,0.04974365234375
1700516801555459600,2.92745947265625,-0.9161376953125,0.049896240234375,0.0063018798828125
1700516801565469400,2.937469482421875,-0.876983642578125,-0.233184814453125,0.0751800537109375
1700516801575479600,2.9474794921875,-1.032196044921875,-0.2048797607421875,-0.0001068115234375
1700516801585489400,2.957489501953125,-1.142791748046875,-0.0480804443359375,0.07275390625
1700516801595499500,2.96749951171875,-0.911376953125,-0.118804931640625,0.007415771484375
1700516801605509600,2.977509521484375,-1.0454864501953125,-0.130218505859375,0.0651702880859375
1700516801615520500,2.9875205078125,-0.8652801513671875,-0.09588623046875,0.0373382568359375
1700516801625530400,2.9975302734375,-0.9930877685546875,-0.2251129150390625,0.01763916015625
1700516801635540500,3.00754052734375,-1.1452178955078125,-0.092041015625,0.06378173828125
1700516801645550600,3.017550537109375,-0.9143524169921875,0.05487060546875,0.0023193359375
1700516801655560400,3.027560546875,-0.86798095703125,-0.23077392578125,0.08135986328125
1700516801665570600,3.037570556640625,-1.0256500244140625,-0.219512939453125,0.000701904296875
1700516801675580400,3.047580322265625,-1.1495208740234375,-0.0427398681640625,0.0710906982421875
1700516801685590500,3.057590576171875,-0.9095001220703125,-0.122528076171875,0.011322021484375
1700516801695601400,3.067601318359375,-1.0439910888671875,-0.1298065185546875,0.05963134765625
1700516801705611500,3.077611572265625,-0.86444091796875,-0.101776123046875,0.042022705078125
1700516801715621400,3.087621337890625,-0.991973876953125,-0.226165771484375,0.0153656005859375
1700516801725631500,3.097631591796875,-1.1441497802734375,-0.09228515625,0.0618896484375
1700516801735641600,3.1076416015625,-0.907012939453125,0.05206298828125,-0.00152587890625
1700516801745651500,3.1176513671875,-0.8590545654296875,-0.2388763427734375,0.079742431640625
1700516801755661600,3.12766162109375,-1.0377349853515625,-0.2211456298828125,0.0009918212890625
1700516801765672400,3.13767236328125,-1.143768310546875,-0.0350494384765625,0.0582275390625
1700516801775682600,3.1476826171875,-0.918701171875,-0.1228485107421875,0.0068359375
1700516801785692400,3.1576923828125,-1.0360260009765625,-0.1169891357421875,0.056304931640625
1700516801795702500,3.16770263671875,-0.8648223876953125,-0.14068603515625,0.03240966796875
1700516801805712400,3.17771240234375,-1.0135040283203125,-0.182464599609375,0.0208587646484375
1700516801815722500,3.187722412109375,-1.119659423828125,-0.1096954345703125,0.04486083984375
1700516801825732400,3.197732421875,-0.929107666015625,0.03515625,0.007598876953125
1700516801835742500,3.207742431640625,-0.862457275390625,-0.2101593017578125,0.074188232421875
1700516801845753300,3.21775341796875,-1.0201873779296875,-0.212615966796875,-0.00469970703125
1700516801855763500,3.227763427734375,-1.1543121337890625,-0.054901123046875,0.070526123046875
1700516801865773300,3.237773193359375,-0.9082794189453125,-0.11236572265625,0.0045166015625
1700516801875783400,3.247783447265625,-1.0183563232421875,-0.1223907470703125,0.064697265625
1700516801885793500,3.25779345703125,-0.898406982421875,-0.1229248046875,0.0310821533203125
1700516801895803400,3.267803466796875,-0.981689453125,-0.186248779296875,0.025848388671875
1700516801905814500,3.277814453125,-1.1131439208984375,-0.1324310302734375,0.0502166748046875
1700516801915824400,3.287824462890625,-0.941650390625,0.0294952392578125,0.0081787109375
1700516801925834500,3.29783447265625,-0.88775634765625,-0.1724853515625,0.078582763671875
1700516801935844400,3.30784423828125,-0.9798126220703125,-0.2327880859375,-0.0020751953125
1700516801945854500,3.3178544921875,-1.160186767578125,-0.070404052734375,0.0667572021484375
1700516801955864300,3.3278642578125,-0.91754150390625,-0.11920166015625,0.013031005859375
1700516801965874400,3.33787451171875,-1.014892578125,-0.1409912109375,0.0614471435546875
1700516801975885300,3.34788525390625,-0.9477386474609375,-0.060821533203125,0.03302001953125
1700516801985895400,3.3578955078125,-0.9098663330078125,-0.2167816162109375,0.0225067138671875
1700516801995905300,3.3679052734375,-1.146484375,-0.150726318359375,0.0496978759765625
1700516802005915400,3.377915283203125,-0.952362060546875,0.0309295654296875,0.008941650390625
1700516802015925500,3.387925537109375,-0.901702880859375,-0.1249237060546875,0.073455810546875
1700516802025935400,3.397935302734375,-0.9413909912109375,-0.2718505859375,0.0103912353515625
1700516802035946500,3.407946533203125,-1.154541015625,-0.068389892578125,0.0511932373046875
1700516802045956400,3.417956298828125,-0.954742431640625,-0.116943359375,0.025634765625
1700516802055966500,3.427966552734375,-0.9854583740234375,-0.13812255859375,0.0458831787109375
1700516802065976300,3.437976318359375,-0.9716796875,-0.06683349609375,0.041839599609375
1700516802075986400,3.447986328125,-0.8827972412109375,-0.1874542236328125,0.021759033203125
1700516802085996300,3.457996337890625,-1.1323394775390625,-0.181396484375,0.04632568359375
1700516802096007400,3.46800732421875,-0.975067138671875,0.007354736328125,0.0101165771484375
1700516802106017300,3.478017333984375,-0.9338531494140625,-0.0547637939453125,0.0597991943359375
1700516802116027400,3.48802734375,-0.9084014892578125,-0.2820892333984375,0.0277099609375
1700516802126037200,3.498037353515625,-1.1121826171875,-0.0985565185546875,0.027130126953125
1700516802136047400,3.50804736328125,-1.024383544921875,-0.107086181640625,0.0407562255859375
1700516802146057500,3.518057373046875,-0.965179443359375,-0.1186065673828125,0.0290679931640625
1700516802156068400,3.528068359375,-1.010772705078125,-0.0773162841796875,0.0478668212890625
1700516802166078200,3.538078125,-0.832794189453125,-0.1480712890625,0.0213623046875
1700516802176088300,3.54808837890625,-1.1270751953125,-0.208984375,0.040191650390625
1700516802186098400,3.558098388671875,-1.03424072265625,-0.0260772705078125,0.02105712890625
1700516802196108300,3.5681083984375,-0.897003173828125,-0.008056640625,0.0478057861328125
1700516802206119400,3.578119384765625,-0.907623291015625,-0.282073974609375,0.040985107421875
1700516802216129300,3.58812939453125,-1.108795166015625,-0.1287689208984375,0.015228271484375
1700516802226139400,3.598139404296875,-1.059112548828125,-0.0859375,0.0507049560546875
1700516802236149200,3.608149169921875,-0.9262847900390625,-0.124481201171875,0.0176239013671875
1700516802246159400,3.618159423828125,-1.0553131103515625,-0.0925140380859375,0.055419921875
1700516802256169200,3.628169189453125,-0.8350067138671875,-0.12005615234375,0.0243072509765625
1700516802266180600,3.6381806640625,-1.06256103515625,-0.2239532470703125,0.0313873291015625
1700516802276190500,3.6481904296875,-1.0799713134765625,-0.0587310791015625,0.034576416015625
1700516802286200600,3.65820068359375,-0.9088897705078125,0.0284576416015625,0.0289154052734375
1700516802296210400,3.66821044921875,-0.8950042724609375,-0.2605133056640625,0.057586669921875
1700516802306220500,3.678220458984375,-1.06243896484375,-0.1735076904296875,0.006500244140625
1700516802316231400,3.6882314453125,-1.1067352294921875,-0.0676116943359375,0.06231689453125
1700516802326241500,3.698241455078125,-0.9151153564453125,-0.12158203125,0.0119781494140625
1700516802336251400,3.70825146484375,-1.0491943359375,-0.1141357421875,0.0574188232421875
1700516802346261500,3.718261474609375,-0.8464202880859375,-0.1066436767578125,0.030517578125
1700516802356271600,3.728271728515625,-1.0249481201171875,-0.219207763671875,0.02410888671875
1700516802366282500,3.738282470703125,-1.115509033203125,-0.0877227783203125,0.043243408203125
1700516802376292400,3.748292236328125,-0.9134063720703125,0.045928955078125,0.0147552490234375
1700516802386302500,3.758302490234375,-0.8835296630859375,-0.2348175048828125,0.068206787109375
1700516802396312600,3.7683125,-1.0361480712890625,-0.2080841064453125,0.0006561279296875
1700516802406322400,3.778322509765625,-1.13665771484375,-0.055694580078125,0.063873291015625
1700516802416333300,3.788333251953125,-0.908599853515625,-0.1224365234375,0.0120391845703125
1700516802426343400,3.798343505859375,-1.03790283203125,-0.120391845703125,0.055419921875
1700516802436353500,3.808353515625,-0.8732452392578125,-0.117431640625,0.0321197509765625
1700516802446363400,3.81836328125,-0.993743896484375,-0.1938018798828125,0.02496337890625
1700516802456373500,3.82837353515625,-1.1163177490234375,-0.120513916015625,0.04534912109375
1700516802466384400,3.83838427734375,-0.9380035400390625,0.0325927734375,0.01092529296875
1700516802476394500,3.84839453125,-0.8870391845703125,-0.182861328125,0.0735931396484375
1700516802486404400,3.858404296875,-0.9869537353515625,-0.2303009033203125,-0.0006866455078125
1700516802496414500,3.86841455078125,-1.1561431884765625,-0.0644073486328125,0.06414794921875
1700516802506425300,3.87842529296875,-0.915496826171875,-0.121734619140625,0.0119171142578125
1700516802516435500,3.888435546875,-1.0126953125,-0.1428985595703125,0.0606842041015625
1700516802526445300,3.8984453125,-0.9317626953125,-0.05633544921875,0.031951904296875
1700516802536455400,3.908455322265625,-0.9210662841796875,-0.2220001220703125,0.01849365234375
1700516802546465300,3.91846533203125,-1.1499786376953125,-0.139404296875,0.055267333984375
1700516802556476400,3.928476318359375,-0.9427032470703125,0.0353546142578125,0.0056304931640625
1700516802566486800,3.93848681640625,-0.9008636474609375,-0.1405792236328125,0.0731201171875
1700516802576497000,3.948496826171875,-0.9552001953125,-0.272308349609375,0.012847900390625
1700516802586506800,3.9585068359375,-1.1564788818359375,-0.062347412109375,0.051544189453125
1700516802596518000,3.968517822265625,-0.940704345703125,-0.120635986328125,0.0238494873046875
1700516802606527700,3.97852783203125,-1.0027618408203125,-0.14581298828125,0.0480194091796875
1700516802616537900,3.988537841796875,-0.96624755859375,-0.0486602783203125,0.0390167236328125
1700516802626547700,3.998547607421875,-0.8694305419921875,-0.2103729248046875,0.0198974609375
1700516802636557800,4.008557861328125,-1.1590423583984375,-0.162384033203125,0.0535736083984375
1700516802646568700,4.018568603515625,-0.971649169921875,0.0263214111328125,0.0054779052734375
1700516802656578800,4.028578857421875,-0.8871307373046875,-0.094696044921875,0.07000732421875
1700516802666588700,4.038588623046875,-0.9293365478515625,-0.30340576171875,0.0211181640625
1700516802676598800,4.048598876953125,-1.1560211181640625,-0.06353759765625,0.039794921875
1700516802686609700,4.058609619140625,-0.9748992919921875,-0.110992431640625,0.035369873046875
1700516802696619800,4.068619873046875,-0.9778289794921875,-0.1341400146484375,0.03387451171875
1700516802706629600,4.078629638671875,-0.98321533203125,-0.08526611328125,0.051727294921875
1700516802716639700,4.0886396484375,-0.867431640625,-0.1780548095703125,0.0115966796875
1700516802726650600,4.098650634765625,-1.1385345458984375,-0.1562957763671875,0.0562744140625
1700516802736660700,4.10866064453125,-0.99462890625,-0.027374267578125,0.0048828125
1700516802746670800,4.1186708984375,-0.9040985107421875,-0.0395965576171875,0.0549468994140625
1700516802756680700,4.1286806640625,-0.9072723388671875,-0.2925872802734375,0.037384033203125
1700516802766691600,4.138691650390625,-1.14068603515625,-0.0906524658203125,0.021728515625
1700516802776701700,4.14870166015625,-1.01458740234375,-0.11376953125,0.0462799072265625
1700516802786711800,4.1587119140625,-0.9492034912109375,-0.1138153076171875,0.0242156982421875
1700516802796721700,4.1687216796875,-1.02423095703125,-0.0868682861328125,0.051025390625
1700516802806732800,4.17873291015625,-0.84857177734375,-0.147705078125,0.018280029296875
1700516802816743000,4.188742919921875,-1.1091766357421875,-0.2028656005859375,0.0415496826171875
1700516802826753000,4.1987529296875,-1.02691650390625,-0.0352325439453125,0.0188446044921875
1700516802836763000,4.208762939453125,-0.913848876953125,-0.0089111328125,0.0432586669921875
1700516802846773800,4.218773681640625,-0.8966064453125,-0.2751617431640625,0.045257568359375
1700516802856784000,4.228783935546875,-1.1024169921875,-0.1352386474609375,0.014739990234375
1700516802866794000,4.2387939453125,-1.0576934814453125,-0.0960235595703125,0.054107666015625
1700516802876803800,4.248803955078125,-0.9259490966796875,-0.1143798828125,0.0153350830078125
1700516802886814700,4.258814697265625,-1.0492401123046875,-0.0990753173828125,0.0583343505859375
1700516802896824800,4.268824951171875,-0.8509063720703125,-0.1276092529296875,0.0209503173828125
1700516802906835000,4.2788349609375,-1.052398681640625,-0.2108917236328125,0.0372467041015625
1700516802916844800,4.2888447265625,-1.062408447265625,-0.0822601318359375,0.0287933349609375
1700516802926855700,4.298855712890625,-0.9358062744140625,0.01934814453125,0.0312042236328125
1700516802936865800,4.30886572265625,-0.9000396728515625,-0.226898193359375,0.0593719482421875
1700516802946876000,4.3188759765625,-1.032684326171875,-0.1939239501953125,0.0089874267578125
1700516802956886800,4.32888671875,-1.1169586181640625,-0.0757904052734375,0.064239501953125
1700516802966897000,4.33889697265625,-0.9180755615234375,-0.119781494140625,0.0120849609375
1700516802976906800,4.34890673828125,-1.046783447265625,-0.136077880859375,0.0628662109375
1700516802986916900,4.358916748046875,-0.8842620849609375,-0.05621337890625,0.0281829833984375
1700516802996927700,4.368927734375,-0.9638519287109375,-0.2478485107421875,0.02520751953125
1700516803006937900,4.378937744140625,-1.131622314453125,-0.104827880859375,0.0460662841796875
1700516803016947700,4.38894775390625,-0.9197540283203125,0.03497314453125,0.01422119140625
1700516803026957800,4.398957763671875,-0.9061279296875,-0.1731719970703125,0.0642547607421875
1700516803036968700,4.40896875,-0.9892730712890625,-0.248291015625,0.0120697021484375
1700516803046978800,4.418978759765625,-1.139373779296875,-0.0625152587890625,0.0566253662109375
1700516803056988700,4.42898876953125,-0.923553466796875,-0.1250152587890625,0.0217742919921875
1700516803066999600,4.43899951171875,-1.028076171875,-0.1447296142578125,0.053497314453125
1700516803077009700,4.449009765625,-0.931854248046875,-0.0483856201171875,0.0321044921875
1700516803087019800,4.459019775390625,-0.898406982421875,-0.221405029296875,0.0242156982421875
1700516803097029600,4.469029541015625,-1.1535491943359375,-0.1506805419921875,0.049530029296875
1700516803107040800,4.479040771484375,-0.94671630859375,0.0280303955078125,0.00469970703125
1700516803117051000,4.48905078125,-0.8959503173828125,-0.1166534423828125,0.0713043212890625
1700516803127061000,4.49906103515625,-0.94976806640625,-0.2898712158203125,0.015838623046875
1700516803137071900,4.50907177734375,-1.158233642578125,-0.0673980712890625,0.0454864501953125
1700516803147081700,4.519081787109375,-0.9517669677734375,-0.11529541015625,0.0315093994140625
1700516803157091800,4.529091796875,-0.995330810546875,-0.1559295654296875,0.0421905517578125
1700516803167102000,4.53910205078125,-0.985748291015625,-0.0330352783203125,0.0387420654296875
1700516803177112800,4.54911279296875,-0.8468170166015625,-0.2112579345703125,0.0221099853515625
1700516803187123000,4.559123046875,-1.168212890625,-0.1734771728515625,0.05255126953125
1700516803197132800,4.5691328125,-0.9795684814453125,0.0250091552734375,0.0050048828125
1700516803207143700,4.579143798828125,-0.870880126953125,-0.0775909423828125,0.06866455078125
1700516803217153800,4.58915380859375,-0.938995361328125,-0.3155517578125,0.027313232421875
1700516803227164000,4.599163818359375,-1.1617279052734375,-0.0604705810546875,0.0321044921875
1700516803237174800,4.6091748046875,-0.9776153564453125,-0.1036529541015625,0.0390777587890625
1700516803247184600,4.6191845703125,-0.971527099609375,-0.1612396240234375,0.036224365234375
1700516803257194800,4.62919482421875,-1.003631591796875,-0.0384368896484375,0.04339599609375
1700516803267204900,4.639204833984375,-0.8277130126953125,-0.2109222412109375,0.0193023681640625
1700516803277215700,4.6492158203125,-1.1702880859375,-0.1691436767578125,0.052337646484375
1700516803287225600,4.6592255859375,-0.99578857421875,0.0247650146484375,0.00604248046875
1700516803297235700,4.669235595703125,-0.8515777587890625,-0.073944091796875,0.0641326904296875
1700516803307246600,4.67924658203125,-0.9356536865234375,-0.328521728515625,0.0300140380859375
1700516803317256700,4.689256591796875,-1.1731719970703125,-0.0483551025390625,0.029998779296875
1700516803327266800,4.699266845703125,-0.9763336181640625,-0.09527587890625,0.0388031005859375
1700516803337278000,4.70927783203125,-0.963592529296875,-0.1512298583984375,0.031890869140625
1700516803347287800,4.719287841796875,-0.9783935546875,-0.097442626953125,0.054656982421875
1700516803357298000,4.7292978515625,-0.8802947998046875,-0.18157958984375,0.0024261474609375
1700516803367308800,4.739308837890625,-1.1501007080078125,-0.13958740234375,0.06243896484375
1700516803377319000,4.74931884765625,-0.9888458251953125,-0.0104522705078125,0.0038604736328125
1700516803387328800,4.759328857421875,-0.8747711181640625,-0.0720367431640625,0.05596923828125
1700516803397340000,4.76933984375,-0.9255218505859375,-0.302978515625,0.033447265625
1700516803407349800,4.779349853515625,-1.17425537109375,-0.0554351806640625,0.0282745361328125
1700516803417360000,4.78935986328125,-0.9688720703125,-0.1111907958984375,0.039306640625
1700516803427370800,4.799370849609375,-0.964385986328125,-0.149139404296875,0.037445068359375
1700516803437380900,4.809380859375,-0.99554443359375,-0.0574798583984375,0.050537109375
1700516803447390700,4.819390625,-0.8601226806640625,-0.2059173583984375,0.0034637451171875
1700516803457401900,4.82940185546875,-1.1713714599609375,-0.1578369140625,0.0670013427734375
1700516803467411700,4.83941162109375,-0.9697265625,0.023040771484375,-0.001220703125
1700516803477421800,4.849421875,-0.86590576171875,-0.101593017578125,0.0688629150390625
1700516803487432700,4.8594326171875,-0.9418792724609375,-0.3111572265625,0.0246734619140625
1700516803497442800,4.86944287109375,-1.1753082275390625,-0.041259765625,0.0400390625
1700516803507452700,4.87945263671875,-0.9561004638671875,-0.1164703369140625,0.0326080322265625
1700516803517463800,4.8894638671875,-0.968505859375,-0.1470947265625,0.036529541015625
1700516803527473700,4.8994736328125,-0.979644775390625,-0.0797271728515625,0.0536651611328125
1700516803537483800,4.90948388671875,-0.8842926025390625,-0.19757080078125,0.009033203125
1700516803547495000,4.919494873046875,-1.15557861328125,-0.1470184326171875,0.057861328125
1700516803557504800,4.9295048828125,-0.968994140625,0.02105712890625,-0.0018310546875
1700516803567515400,4.939515380859375,-0.8712921142578125,-0.1105804443359375,0.0736846923828125
1700516803577526300,4.9495263671875,-0.9372100830078125,-0.30499267578125,0.018035888671875
1700516803587536400,4.959536376953125,-1.1737213134765625,-0.0408935546875,0.0445098876953125
1700516803597546200,4.969546142578125,-0.952880859375,-0.1083526611328125,0.026702880859375
1700516803607557400,4.979557373046875,-0.98272705078125,-0.148834228515625,0.03936767578125
1700516803617567200,4.989567138671875,-0.962005615234375,-0.0930328369140625,0.05157470703125
1700516803627577300,4.999577392578125,-0.8923187255859375,-0.18975830078125,0.007781982421875
1700516803637588200,5.009588134765625,-1.1633453369140625,-0.1431427001953125,0.0582122802734375
1700516803647598300,5.019598388671875,-0.9706573486328125,0.0229339599609375,-0.0047149658203125
1700516803657608200,5.029608154296875,-0.85809326171875,-0.1255645751953125,0.0764617919921875
1700516803667619300,5.039619384765625,-0.9488677978515625,-0.2887420654296875,0.0146942138671875
1700516803677629200,5.049629150390625,-1.1886749267578125,-0.041961669921875,0.0506591796875
1700516803687639300,5.059639404296875,-0.937652587890625,-0.1119537353515625,0.0181732177734375
1700516803697650200,5.069650146484375,-0.9792022705078125,-0.1454620361328125,0.044036865234375
1700516803707660300,5.079660400390625,-0.954498291015625,-0.0891571044921875,0.0530242919921875
1700516803717670100,5.089670166015625,-0.913543701171875,-0.19805908203125,0.005035400390625
1700516803727681300,5.099681396484375,-1.1486358642578125,-0.136932373046875,0.059722900390625
1700516803737691400,5.10969140625,-0.9536590576171875,0.024627685546875,-0.005126953125
1700516803747702300,5.119702392578125,-0.8689727783203125,-0.13958740234375,0.0776519775390625
1700516803757712400,5.12971240234375,-0.9538116455078125,-0.287384033203125,0.009002685546875
1700516803767722500,5.139722412109375,-1.179962158203125,-0.0362091064453125,0.0546112060546875
1700516803777733400,5.1497333984375,-0.9360809326171875,-0.1171722412109375,0.0172119140625
1700516803787743200,5.1597431640625,-0.98907470703125,-0.1478424072265625,0.047637939453125
1700516803797753300,5.16975341796875,-0.9449005126953125,-0.089080810546875,0.0464019775390625
1700516803807764200,5.17976416015625,-0.9145050048828125,-0.2013092041015625,0.0078582763671875
1700516803817774300,5.1897744140625,-1.1588134765625,-0.139190673828125,0.060882568359375
1700516803827784200,5.1997841796875,-0.952545166015625,0.035491943359375,-0.007904052734375
1700516803837795300,5.20979541015625,-0.8608856201171875,-0.15704345703125,0.082000732421875
1700516803847805200,5.21980517578125,-0.9671783447265625,-0.2796630859375,0.003936767578125
1700516803857816300,5.22981640625,-1.184906005859375,-0.0316619873046875,0.054534912109375
1700516803867826200,5.239826171875,-0.925689697265625,-0.1181793212890625,0.01885986328125
1700516803877836300,5.249836181640625,-0.99713134765625,-0.147064208984375,0.0494384765625
1700516803887847200,5.25984716796875,-0.933135986328125,-0.0898284912109375,0.04608154296875
1700516803897857300,5.269857177734375,-0.9274749755859375,-0.21026611328125,0.0076141357421875
1700516803907867100,5.2798671875,-1.1522216796875,-0.1253509521484375,0.0612335205078125
1700516803917878300,5.289878173828125,-0.9461212158203125,0.04095458984375,-0.0057220458984375
1700516803927888400,5.299888427734375,-0.8603515625,-0.17498779296875,0.0829010009765625
1700516803937899300,5.309899169921875,-0.9787445068359375,-0.269927978515625,0.00030517578125
1700516803947909400,5.319909423828125,-1.17816162109375,-0.0286712646484375,0.0623321533203125
1700516803957919200,5.329919189453125,-0.9235687255859375,-0.119293212890625,0.0153961181640625
1700516803967930400,5.339930419921875,-1.0055999755859375,-0.147064208984375,0.0524139404296875
1700516803977940200,5.349940185546875,-0.91583251953125,-0.096038818359375,0.045013427734375
1700516803987951400,5.359951416015625,-0.947174072265625,-0.21051025390625,0.0042724609375
1700516803997961200,5.369961181640625,-1.1530914306640625,-0.1145782470703125,0.065643310546875
1700516804007971300,5.379971435546875,-0.933685302734375,0.0441131591796875,-0.0065155029296875
1700516804017982200,5.389982177734375,-0.85400390625,-0.1999969482421875,0.083038330078125
1700516804027992300,5.399992431640625,-1.0010986328125,-0.2551727294921875,-0.0024871826171875
1700516804038003200,5.410003173828125,-1.1773834228515625,-0.0249481201171875,0.065643310546875
1700516804048013300,5.420013427734375,-0.907867431640625,-0.1249847412109375,0.0093994140625
1700516804058023200,5.430023193359375,-1.0153961181640625,-0.13916015625,0.0557861328125
1700516804068034300,5.440034423828125,-0.89630126953125,-0.111541748046875,0.0413970947265625
1700516804078044200,5.450044189453125,-0.9759521484375,-0.204925537109375,0.0066375732421875
1700516804088054300,5.46005419921875,-1.1414031982421875,-0.1036529541015625,0.0617523193359375
1700516804098065400,5.4700654296875,-0.92364501953125,0.04461669921875,-0.0035552978515625
1700516804108075300,5.4800751953125,-0.8564605712890625,-0.2266082763671875,0.083221435546875
1700516804118086400,5.49008642578125,-1.023468017578125,-0.2291107177734375,-0.009033203125
1700516804128096300,5.50009619140625,-1.163177490234375,-0.0323028564453125,0.0684356689453125
1700516804138106400,5.5101064453125,-0.90557861328125,-0.1244964599609375,0.0092926025390625
1700516804148117200,5.5201171875,-1.0297088623046875,-0.12774658203125,0.05645751953125
1700516804158127400,5.53012744140625,-0.870025634765625,-0.123077392578125,0.03955078125
1700516804168138200,5.54013818359375,-1.00836181640625,-0.2112274169921875,0.007537841796875
1700516804178148400,5.5501484375,-1.1350250244140625,-0.0796051025390625,0.0587005615234375
1700516804188158200,5.560158203125,-0.907501220703125,0.045379638671875,0.003387451171875
1700516804198169300,5.57016943359375,-0.8558807373046875,-0.2677001953125,0.0785980224609375
1700516804208179200,5.58017919921875,-1.0589599609375,-0.1928253173828125,-0.01031494140625
1700516804218190000,5.590190185546875,-1.142730712890625,-0.0374755859375,0.071990966796875
1700516804228200200,5.6002001953125,-0.8990325927734375,-0.1277313232421875,0.0028076171875
1700516804238211300,5.61021142578125,-1.03619384765625,-0.1146697998046875,0.0630950927734375
1700516804248221400,5.620221435546875,-0.8558349609375,-0.1503143310546875,0.0276947021484375
1700516804258231300,5.630231201171875,-1.053985595703125,-0.17828369140625,0.020904541015625
1700516804268242400,5.640242431640625,-1.10003662109375,-0.0828399658203125,0.0463714599609375
1700516804278252300,5.650252197265625,-0.9057159423828125,0.0394439697265625,0.009613037109375
1700516804288263400,5.660263427734375,-0.8621368408203125,-0.2869720458984375,0.073699951171875
1700516804298273300,5.670273193359375,-1.0845794677734375,-0.1585693359375,-0.0085601806640625
1700516804308283400,5.680283447265625,-1.1201324462890625,-0.058380126953125,0.0688323974609375
1700516804318294300,5.690294189453125,-0.8964691162109375,-0.1259307861328125,0.0007171630859375
1700516804328304400,5.700304443359375,-1.0477142333984375,-0.1085052490234375,0.065643310546875
1700516804338315300,5.710315185546875,-0.837921142578125,-0.14703369140625,0.0228729248046875
1700516804348325400,5.720325439453125,-1.0808258056640625,-0.201324462890625,0.02386474609375
1700516804358336300,5.730336181640625,-1.0905914306640625,-0.049163818359375,0.0453338623046875
1700516804368346000,5.74034619140625,-0.881683349609375,0.0219573974609375,0.0189971923828125
1700516804378356200,5.750356201171875,-0.868804931640625,-0.31536865234375,0.0676422119140625
1700516804388367000,5.7603671875,-1.1241302490234375,-0.1199798583984375,-0.0051116943359375
1700516804398377200,5.770377197265625,-1.0914459228515625,-0.06414794921875,0.06390380859375
1700516804408388400,5.780388427734375,-0.8960113525390625,-0.137451171875,0.0062713623046875
1700516804418398500,5.7903984375,-1.040740966796875,-0.0972442626953125,0.0660400390625
1700516804428409300,5.800409423828125,-0.84234619140625,-0.1626739501953125,0.014068603515625
1700516804438419500,5.81041943359375,-1.1102142333984375,-0.1775970458984375,0.03509521484375
1700516804448429300,5.82042919921875,-1.0555419921875,-0.0388031005859375,0.0306854248046875
1700516804458440200,5.830440185546875,-0.8804168701171875,-0.0006561279296875,0.0299530029296875
1700516804468450300,5.8404501953125,-0.87921142578125,-0.3301544189453125,0.058441162109375
1700516804478461200,5.850461181640625,-1.1500244140625,-0.0882568359375,0.003082275390625
1700516804488471300,5.86047119140625,-1.0530242919921875,-0.076080322265625,0.057373046875
1700516804498482200,5.870482177734375,-0.909423828125,-0.1409759521484375,0.011322021484375
1700516804508492300,5.8804921875,-1.024200439453125,-0.1078338623046875,0.06768798828125
1700516804518502100,5.890502197265625,-0.853668212890625,-0.1632232666015625,0.00299072265625
1700516804528513300,5.90051318359375,-1.1347198486328125,-0.1624298095703125,0.0514984130859375
1700516804538523100,5.910523193359375,-1.02764892578125,-0.033782958984375,0.0174102783203125
1700516804548534300,5.9205341796875,-0.874755859375,-0.0307159423828125,0.04248046875
1700516804558544400,5.93054443359375,-0.891265869140625,-0.3212890625,0.04937744140625
1700516804568554800,5.9405546875,-1.17083740234375,-0.069610595703125,0.01416015625
1700516804578564600,5.950564697265625,-1.0151824951171875,-0.0977325439453125,0.049407958984375
1700516804588575500,5.960575439453125,-0.914642333984375,-0.1458892822265625,0.0187225341796875
1700516804598585600,5.970585693359375,-1.0263519287109375,-0.0756988525390625,0.0646820068359375
1700516804608595700,5.980595703125,-0.849700927734375,-0.186431884765625,0.0022430419921875
1700516804618606600,5.990606689453125,-1.1571197509765625,-0.1700439453125,0.054595947265625
1700516804628616400,6.000616455078125,-1.00103759765625,0.0097198486328125,0.0099639892578125
1700516804638627800,6.0106279296875,-0.864593505859375,-0.068267822265625,0.054412841796875
1700516804648637700,6.0206376953125,-0.9210052490234375,-0.323455810546875,0.0357818603515625
1700516804658648800,6.03064892578125,-1.18255615234375,-0.0481719970703125,0.0252532958984375
1700516804668658700,6.04065869140625,-0.9899749755859375,-0.0971221923828125,0.0378570556640625
1700516804678669600,6.050669677734375,-0.951751708984375,-0.1345367431640625,0.0259246826171875
1700516804688679700,6.0606796875,-0.990142822265625,-0.1167449951171875,0.0680389404296875
1700516804698690600,6.070690673828125,-0.8563995361328125,-0.1551971435546875,-0.00030517578125
1700516804708700700,6.08070068359375,-1.17388916015625,-0.1621246337890625,0.05023193359375
1700516804718710800,6.090710693359375,-0.9849853515625,-0.0092926025390625,0.0232086181640625
1700516804728721700,6.1007216796875,-0.8486785888671875,-0.049041748046875,0.0428314208984375
1700516804738731500,6.1107314453125,-0.9616851806640625,-0.31329345703125,0.0463409423828125
1700516804748742700,6.12074267578125,-1.1566162109375,-0.0758056640625,0.033111572265625
1700516804758752500,6.13075244140625,-0.9791259765625,-0.0831146240234375,0.05047607421875
1700516804768764000,6.140763916015625,-1.0466156005859375,-0.0814056396484375,0.0233001708984375
1700516804778773800,6.150773681640625,-0.9600067138671875,-0.171539306640625,0.07891845703125
1700516804788784600,6.16078466796875,-0.8058319091796875,-0.17877197265625,-0.015411376953125
1700516804798794800,6.170794677734375,-1.1248321533203125,-0.168487548828125,0.0408782958984375
1700516804808805600,6.1808056640625,-1.0782470703125,0.012176513671875,0.0143585205078125
1700516804818815700,6.190815673828125,-0.86834716796875,-0.0521240234375,0.032928466796875
1700516804828826600,6.20082666015625,-0.871002197265625,-0.339599609375,0.0494842529296875
1700516804838836700,6.210836669921875,-1.1386260986328125,-0.0522613525390625,-0.013885498046875
1700516804848847600,6.22084765625,-1.0326080322265625,-0.10894775390625,0.0478363037109375
1700516804858857700,6.230857666015625,-0.954620361328125,-0.1037445068359375,0.0103302001953125
1700516804868867600,6.24086767578125,-0.902008056640625,-0.115142822265625,0.0728759765625
1700516804878878700,6.250878662109375,-0.8546142578125,-0.21337890625,0.012420654296875
1700516804888888600,6.260888671875,-1.18560791015625,-0.1732330322265625,0.0284881591796875
1700516804898899500,6.2708994140625,-0.99755859375,0.02734375,0.018829345703125
1700516804908909600,6.28090966796875,-0.8772430419921875,-0.1040496826171875,0.050811767578125
1700516804918920700,6.290920654296875,-0.9074859619140625,-0.3836669921875,0.085235595703125
1700516804928930800,6.300930908203125,-1.10858154296875,-0.0691375732421875,0.0369720458984375
1700516804938941700,6.310941650390625,-1.0787811279296875,-0.1073455810546875,0.0678253173828125
1700516804948951800,6.320951904296875,-1.0828857421875,-0.2140045166015625,0.0237579345703125
1700516804958962700,6.330962646484375,-0.986114501953125,0.03692626953125,0.0897979736328125
1700516804968972800,6.340972900390625,-0.6553802490234375,-0.354522705078125,-0.0046844482421875
1700516804978983700,6.350983642578125,-1.3067169189453125,-0.070281982421875,-0.0044097900390625
1700516804988993500,6.36099365234375,-1.1905517578125,0.0478668212890625,0.0653533935546875
1700516804999004700,6.371004638671875,-0.820526123046875,-0.0985107421875,0.0086822509765625
1700516805009014500,6.3810146484375,-0.764984130859375,-0.37127685546875,0.1023406982421875
1700516805019025700,6.391025634765625,-1.118560791015625,-0.0126800537109375,-0.0186614990234375
1700516805029035500,6.401035400390625,-1.0796356201171875,-0.061431884765625,0.0805206298828125
1700516805039046700,6.411046630859375,-0.98388671875,-0.1536712646484375,0.0307769775390625
1700516805049056800,6.421056884765625,-1.2268218994140625,-0.0456390380859375,0.0350341796875
1700516805059067600,6.431067626953125,-0.4830780029296875,0.293670654296875,0.0270538330078125
1700516805069077800,6.441077880859375,-1.0089111328125,-0.698028564453125,-0.043914794921875
1700516805079088600,6.451088623046875,-1.6820220947265625,0.18511962890625,0.089263916015625
1700516805089098800,6.4610986328125,-0.4384002685546875,0.3107452392578125,0.0260009765625
1700516805099109600,6.471109619140625,-0.749267578125,-0.6885223388671875,-0.016845703125
1700516805109119700,6.48111962890625,-1.297607421875,-0.155303955078125,-0.0341339111328125
1700516805119130600,6.491130615234375,-1.0318450927734375,0.087860107421875,0.0905914306640625
1700516805129140700,6.501140625,-1.099700927734375,0.061126708984375,-0.023345947265625
1700516805139151600,6.511151611328125,-0.6685638427734375,-0.026458740234375,0.1267852783203125
1700516805149161500,6.521161376953125,-0.9472503662109375,-0.7203826904296875,-0.130462646484375
1700516805159172900,6.5311728515625,-1.5073699951171875,0.3324127197265625,0.105133056640625
1700516805169182700,6.5411826171875,-0.7355194091796875,-0.03118896484375,0.1475372314453125
1700516805179193900,6.55119384765625,-1.0250701904296875,-0.93896484375,-0.1587982177734375
1700516805189203700,6.56120361328125,-1.41619873046875,-0.2579498291015625,0.0773773193359375
1700516805199214600,6.571214599609375,-0.740020751953125,0.4820404052734375,0.0379638671875
1700516805209224700,6.581224609375,-0.364837646484375,-0.234039306640625,0.100311279296875
1700516805219235600,6.591235595703125,-1.4338531494140625,-0.8919525146484375,-0.2221832275390625
1700516805229245700,6.60124560546875,-1.0959930419921875,0.3094940185546875,0.1962890625
1700516805239256600,6.611256591796875,-0.45501708984375,-0.353363037109375,0.073883056640625
1700516805249266700,6.6212666015625,-1.7763519287109375,-0.7329864501953125,-0.1552886962890625
1700516805259277600,6.631277587890625,-1.1003265380859375,0.1815185546875,0.095733642578125
1700516805269287700,6.64128759765625,-0.0654449462890625,-0.2967376708984375,0.1807861328125
1700516805279298800,6.651298828125,-1.530517578125,-0.5379180908203125,-0.220947265625
1700516805289308700,6.66130859375,-1.2932281494140625,-0.3481597900390625,0.17828369140625
1700516805299319800,6.67131982421875,-0.2431793212890625,-0.4547882080078125,0.036865234375
1700516805309329700,6.68132958984375,-1.6642913818359375,-0.227447509765625,-0.0360107421875
1700516805319340800,6.6913408203125,-0.789703369140625,-0.3814239501953125,0.1303558349609375
1700516805329350700,6.7013505859375,-0.383758544921875,-0.6341094970703125,-0.08026123046875
1700516805339361800,6.71136181640625,-1.6913909912109375,-0.4506378173828125,0.031219482421875
1700516805349371600,6.72137158203125,-1.0071868896484375,-1.0086212158203125,0.0887908935546875
1700516805359382500,6.731382568359375,-1.03997802734375,-0.8194427490234375,-0.1524658203125
1700516805369392600,6.741392578125,-1.0032958984375,-0.1785736083984375,0.1007537841796875
1700516805379403500,6.751403564453125,-0.26214599609375,-0.3533172607421875,-0.0977325439453125
1700516805389413600,6.76141357421875,-0.661529541015625,0.0039825439453125,-0.04974365234375
1700516805399424500,6.771424560546875,-1.0666046142578125,-0.6113433837890625,0.19927978515625
1700516805409434600,6.7814345703125,-1.361907958984375,-0.4482269287109375,-0.1692047119140625
1700516805419445800,6.79144580078125,-1.4572906494140625,0.0823211669921875,0.1302490234375
1700516805429456000,6.801455810546875,-0.8595428466796875,-1.040740966796875,0.1026763916015625
1700516805439466800,6.811466796875,-1.030731201171875,-0.65997314453125,-0.1718292236328125
1700516805449476600,6.8214765625,-0.9197998046875,-0.553680419921875,0.1812744140625
1700516805459487700,6.83148779296875,-0.79071044921875,-0.2158355712890625,-0.1114654541015625
1700516805469497600,6.84149755859375,-0.6767425537109375,-0.0862579345703125,0.2186737060546875
1700516805479508700,6.8515087890625,-0.402435302734375,-0.7870941162109375,-0.0478363037109375
1700516805489518600,6.8615185546875,-1.795013427734375,-0.4468841552734375,0.050384521484375
1700516805499529700,6.87152978515625,-1.1799163818359375,-0.62640380859375,0.2254486083984375
1700516805509539600,6.88153955078125,-0.9159698486328125,-0.5583343505859375,-0.2394256591796875
1700516805519550500,6.891550537109375,-0.8846588134765625,-0.3610687255859375,0.28253173828125
1700516805529560600,6.901560546875,-0.2824859619140625,-0.6247711181640625,-0.20941162109375
1700516805539571700,6.91157177734375,-1.1288299560546875,-0.59906005859375,-0.165008544921875
1700516805549581800,6.921581787109375,-1.1627960205078125,-0.5951385498046875,0.1473388671875
1700516805559592700,6.9315927734375,-0.98052978515625,-0.1232452392578125,-0.252716064453125
1700516805569603000,6.94160302734375,-0.9635162353515625,-0.65631103515625,0.259246826171875
1700516805579614000,6.951614013671875,-0.9783172607421875,-0.80841064453125,-0.2446441650390625
1700516805589624800,6.961624755859375,-1.1937103271484375,-0.758392333984375,0.1302032470703125
1700516805599635000,6.971635009765625,-1.044036865234375,-0.8947906494140625,0.017547607421875
1700516805609645800,6.981645751953125,-0.8995361328125,-0.3239593505859375,-0.068511962890625
1700516805619656000,6.991656005859375,-0.428680419921875,-0.49176025390625,0.25030517578125
1700516805629666800,7.001666748046875,-0.4679412841796875,-0.4626312255859375,-0.26104736328125
1700516805639677000,7.011677001953125,-1.23529052734375,-0.722564697265625,0.2424468994140625
1700516805649688000,7.02168798828125,-1.0381927490234375,-0.2572784423828125,-0.0946807861328125
1700516805659698000,7.031697998046875,-1.1014251708984375,-0.451446533203125,0.0708465576171875
1700516805669709000,7.041708984375,-0.9941253662109375,-0.970001220703125,-0.0088348388671875
1700516805679719000,7.051718994140625,-1.1097564697265625,-0.4577484130859375,-0.0904541015625
1700516805689730000,7.06172998046875,-0.5473175048828125,-0.5155487060546875,0.219451904296875
1700516805699740000,7.071739990234375,-0.8670806884765625,-0.41473388671875,-0.2136383056640625
1700516805709750800,7.081750732421875,-0.8790435791015625,-0.4971160888671875,0.2250213623046875
1700516805719761000,7.091760986328125,-0.85888671875,-0.4482269287109375,-0.1823577880859375
1700516805729771800,7.101771728515625,-1.5733795166015625,-0.7579345703125,0.1855926513671875
1700516805739782000,7.111781982421875,-0.87261962890625,-0.916351318359375,0.03546142578125
1700516805749792800,7.121792724609375,-1.0577545166015625,-0.446441650390625,-0.0948638916015625
1700516805759803000,7.131802978515625,-0.5478363037109375,-0.7547149658203125,0.1066131591796875
1700516805769814000,7.14181396484375,-0.716217041015625,-0.6681976318359375,-0.2754669189453125
1700516805779824000,7.15182421875,-0.7383270263671875,-0.4366455078125,0.2877655029296875
1700516805789835000,7.1618349609375,-0.5802001953125,-0.08251953125,-0.1652679443359375
1700516805799844900,7.171844970703125,-1.374359130859375,-0.397796630859375,0.138580322265625
1700516805809856000,7.18185595703125,-0.9751739501953125,-0.521728515625,-0.116546630859375
1700516805819865900,7.191865966796875,-1.365325927734375,-0.7926788330078125,-0.031829833984375
1700516805829877000,7.201876953125,-1.1545562744140625,-0.80950927734375,0.1390533447265625
1700516805839886800,7.211886962890625,-0.7395172119140625,-0.2159271240234375,-0.1108856201171875
1700516805849898000,7.22189794921875,-0.5949859619140625,-0.7992401123046875,0.174468994140625
1700516805859908900,7.231908935546875,-0.989776611328125,-0.9320220947265625,-0.31640625
1700516805869918700,7.241918701171875,-1.0048065185546875,-0.233154296875,0.30755615234375
1700516805879930000,7.25193017578125,-0.7424468994140625,-0.273223876953125,0.064239501953125
1700516805889940000,7.26193994140625,-1.0659332275390625,-0.745758056640625,0.0668792724609375
1700516805899951000,7.271951171875,-0.7960052490234375,-0.51068115234375,-0.0896759033203125
1700516805909961000,7.2819609375,-1.1838531494140625,-0.522247314453125,-0.0031585693359375
1700516805919971800,7.291971923828125,-0.761627197265625,-0.6883087158203125,0.101806640625
1700516805929982000,7.30198193359375,-0.833587646484375,-0.4616241455078125,-0.1472320556640625
1700516805939992800,7.311992919921875,-0.781280517578125,-0.6702423095703125,0.2573089599609375
1700516805950003000,7.3220029296875,-0.991912841796875,-0.2938690185546875,-0.1013031005859375
1700516805960013800,7.332013916015625,-1.39337158203125,-0.5128021240234375,0.302032470703125
1700516805970024000,7.34202392578125,-0.87255859375,-0.264404296875,-0.0091400146484375
1700516805980034800,7.352034912109375,-1.0277252197265625,-0.60125732421875,0.04339599609375
1700516805990045000,7.362044921875,-0.9191741943359375,-0.581512451171875,-0.1931915283203125
1700516806000056000,7.37205615234375,-1.443145751953125,-0.5637054443359375,-0.003204345703125
1700516806010066000,7.38206591796875,-0.5717315673828125,-0.3723602294921875,0.1020965576171875
1700516806020077000,7.3920771484375,-0.88037109375,-0.3549652099609375,-0.098175048828125
1700516806030087000,7.4020869140625,-0.7969512939453125,-0.6390533447265625,-0.1241455078125
1700516806040098000,7.41209814453125,-1.6437225341796875,-0.3784332275390625,-0.00274658203125
1700516806050108000,7.42210791015625,-0.6887969970703125,-0.367584228515625,0.2049407958984375
1700516806060119000,7.432119140625,-0.8026885986328125,-0.370635986328125,-0.0948944091796875
1700516806070129000,7.44212890625,-0.6666717529296875,-0.6920623779296875,0.0304412841796875
1700516806080139800,7.452139892578125,-1.063201904296875,-0.480010986328125,-0.07672119140625
1700516806090151000,7.46215087890625,-0.875274658203125,-0.4351654052734375,0.1773223876953125
1700516806100160800,7.472160888671875,-0.8101348876953125,-0.0587615966796875,-0.0675506591796875
1700516806110172200,7.482172119140625,-0.76531982421875,-0.5044708251953125,0.1100311279296875
1700516806120181800,7.492181640625,-0.9258575439453125,-0.644989013671875,-0.1854400634765625
1700516806130193000,7.50219287109375,-1.40777587890625,-0.40716552734375,0.0753173828125
1700516806140203000,7.512203125,-0.8379669189453125,0.212677001953125,0.126373291015625
1700516806150214000,7.5222138671875,-0.9842376708984375,-0.607574462890625,-0.01318359375
1700516806160224000,7.53222412109375,-1.2506561279296875,-0.624847412109375,-0.201080322265625
1700516806170235000,7.54223486328125,-1.1830291748046875,-0.401947021484375,0.12274169921875
1700516806180245000,7.552244873046875,-0.9297637939453125,-0.14898681640625,0.0142822265625
1700516806190255900,7.562255859375,-0.9525604248046875,-0.746856689453125,0.07672119140625
1700516806200266000,7.572265869140625,-1.133544921875,-0.3283233642578125,-0.129425048828125
1700516806210276900,7.58227685546875,-1.1735992431640625,-0.5631256103515625,0.193634033203125
1700516806220286700,7.59228662109375,-0.790771484375,0.053955078125,0.0731964111328125
1700516806230297900,7.6022978515625,-0.6634521484375,-0.803741455078125,0.1027374267578125
1700516806240307700,7.6123076171875,-1.1881103515625,-0.4716644287109375,-0.087890625
1700516806250319000,7.622319091796875,-0.861297607421875,-0.349578857421875,0.2403411865234375
1700516806260329000,7.632328857421875,-0.761810302734375,0.046142578125,-0.0316009521484375
1700516806270339800,7.64233984375,-0.882354736328125,-0.654052734375,0.0781097412109375
1700516806280350000,7.652349853515625,-0.9981231689453125,-0.587799072265625,-0.09722900390625
1700516806290360800,7.66236083984375,-0.984771728515625,-0.369964599609375,0.193634033203125
1700516806300371000,7.672370849609375,-0.4083709716796875,0.13897705078125,-0.130279541015625
1700516806310381800,7.6823818359375,-0.9672698974609375,-0.7479248046875,0.0902862548828125
1700516806320392000,7.692391845703125,-1.1710662841796875,-0.71551513671875,-0.0366363525390625
1700516806330402800,7.70240283203125,-1.0206298828125,-0.3122406005859375,0.08538818359375
1700516806340413000,7.712412841796875,-0.5570831298828125,0.0843658447265625,0.0746612548828125
1700516806350423800,7.722423828125,-0.9421234130859375,-0.782318115234375,0.0792236328125
1700516806360435000,7.73243505859375,-1.3948822021484375,-0.687255859375,-0.0938720703125
1700516806370445000,7.742445068359375,-0.7953948974609375,0.025634765625,0.161590576171875
1700516806380456000,7.7524560546875,-0.64263916015625,-0.3167877197265625,0.11090087890625
1700516806390466000,7.762466064453125,-1.1610565185546875,-0.640533447265625,-0.0940093994140625
1700516806400477000,7.772476806640625,-1.24859619140625,-0.5079803466796875,0.108612060546875
1700516806410487000,7.782487060546875,-0.672119140625,-0.1003570556640625,0.04473876953125
1700516806420498000,7.792497802734375,-0.8335113525390625,-0.5550079345703125,0.0373687744140625
1700516806430507800,7.8025078125,-1.15484619140625,-0.4134063720703125,-0.1360931396484375
1700516806440519000,7.812518798828125,-0.9535369873046875,-0.609832763671875,0.168670654296875
1700516806450528800,7.82252880859375,-0.8294219970703125,-0.11199951171875,0.0908050537109375
1700516806460540000,7.832539794921875,-0.7501068115234375,-0.4254608154296875,-0.058258056640625
1700516806470549800,7.8425498046875,-1.6760101318359375,-0.76513671875,0.0385894775390625
1700516806480561000,7.852560791015625,-0.8548736572265625,0.02789306640625,0.1508331298828125
1700516806490571000,7.862571044921875,-0.675689697265625,-0.4878082275390625,0.124603271484375
1700516806500582000,7.872581787109375,-1.1007232666015625,-0.516082763671875,-0.1755828857421875
1700516806510592000,7.882592041015625,-1.227630615234375,-0.50726318359375,0.2738800048828125
1700516806520603000,7.892602783203125,-0.83831787109375,0.180908203125,-0.0457000732421875
1700516806530613000,7.902613037109375,-0.6708526611328125,-0.5881500244140625,0.03302001953125
1700516806540624000,7.912623779296875,-1.4247589111328125,-0.6407012939453125,-0.0650787353515625
1700516806550634000,7.922634033203125,-0.8759765625,-0.089111328125,0.0398712158203125
1700516806560644900,7.932644775390625,-0.6579132080078125,-0.4806060791015625,0.0022430419921875
1700516806570655200,7.9426552734375,-0.859588623046875,-0.434173583984375,-0.1748046875
1700516806580666400,7.952666259765625,-1.2857666015625,-0.6874847412109375,0.11114501953125
1700516806590676200,7.96267626953125,-0.617950439453125,0.0875244140625,0.0078277587890625
1700516806600687400,7.972687255859375,-0.7115020751953125,-0.623626708984375,0.157623291015625
1700516806610697200,7.982697265625,-1.55126953125,-0.7186126708984375,0.05950927734375
1700516806620708400,7.992708251953125,-1.3998565673828125,-0.014617919921875,0.27392578125
1700516806630718200,8.00271826171875,-0.6162109375,-0.3851776123046875,0.153472900390625
1700516806640729000,8.01272900390625,-1.0039215087890625,-0.615936279296875,-0.1421966552734375
1700516806650739200,8.0227392578125,-1.5179595947265625,-0.476104736328125,0.2391357421875
1700516806660750300,8.032750244140624,-0.7697601318359375,0.067901611328125,-0.0467681884765625
1700516806670761500,8.042761474609375,-0.3858642578125,-0.5928192138671875,-0.0359039306640625
1700516806680771300,8.052771240234375,-1.4283447265625,-0.6941070556640625,-0.1234283447265625
1700516806690782200,8.0627822265625,-0.9936065673828125,0.20770263671875,0.1518707275390625
1700516806700792300,8.072792236328125,-0.6026153564453125,-0.6412200927734375,0.1629486083984375
1700516806710803200,8.08280322265625,-0.8636322021484375,-0.4644775390625,-0.2096710205078125
1700516806720813300,8.092813232421875,-1.242156982421875,-0.4893341064453125,0.183441162109375
1700516806730824200,8.10282421875,-0.6024169921875,-0.0104827880859375,0.0192413330078125
1700516806740834300,8.112834228515625,-0.6980743408203125,-0.6378631591796875,0.06103515625
1700516806750845200,8.12284521484375,-1.267059326171875,-0.6040802001953125,0.0450439453125
1700516806760855300,8.132855224609376,-0.6527099609375,-0.0058746337890625,0.148284912109375
1700516806770866400,8.142866455078124,-0.8107452392578125,-0.5808868408203125,0.138671875
1700516806780876300,8.152876220703124,-1.40234375,-0.45819091796875,-0.125274658203125
1700516806790887400,8.162887451171875,-1.3890533447265625,-0.3473663330078125,0.1532135009765625
1700516806800897300,8.172897216796875,-0.65869140625,-0.392120361328125,0.009185791015625
1700516806810908400,8.182908447265625,-0.6805877685546875,-0.4559173583984375,-0.21734619140625
1700516806820918300,8.192918212890625,-1.47674560546875,-0.5212860107421875,0.1091766357421875
1700516806830929200,8.20292919921875,-0.831298828125,-0.016693115234375,-0.033233642578125
1700516806840939300,8.212939208984375,-0.6443939208984375,-0.5095367431640625,0.112640380859375
1700516806850950100,8.2229501953125,-1.3031005859375,-0.5938873291015625,0.107147216796875
1700516806860960300,8.232960205078125,-0.82080078125,-0.1196441650390625,0.111114501953125
1700516806870971100,8.24297119140625,-0.8161773681640625,-0.3480987548828125,0.154876708984375
1700516806880981200,8.252981201171876,-0.8675079345703125,-0.406524658203125,-0.03497314453125
1700516806890992400,8.262992431640624,-1.2684478759765625,-0.6482696533203125,0.1500701904296875
1700516806901002500,8.27300244140625,-0.7715911865234375,0.1017913818359375,0.103118896484375
1700516806911013400,8.283013427734375,-0.502044677734375,-0.524169921875,0.0265045166015625
1700516806921023500,8.2930234375,-1.48870849609375,-0.7812347412109375,-0.081207275390625
1700516806931034400,8.303034423828125,-1.0619354248046875,0.036041259765625,0.083160400390625
1700516806941044200,8.313044189453125,-0.5098419189453125,-0.5120391845703125,0.1742095947265625
1700516806951055400,8.323055419921875,-1.44427490234375,-0.57843017578125,-0.1251373291015625
1700516806961065200,8.333065185546875,-1.4369354248046875,-0.2475128173828125,0.175506591796875
1700516806971076400,8.343076416015625,-0.6515350341796875,-0.4460601806640625,0.0980072021484375
1700516806981086200,8.353086181640625,-0.852996826171875,-0.5287628173828125,-0.1499786376953125
1700516806991097000,8.36309716796875,-1.47552490234375,-0.3804473876953125,0.181396484375
1700516807001107200,8.373107177734376,-0.555633544921875,-0.1365966796875,0.0088348388671875
1700516807011118000,8.3831181640625,-0.422088623046875,-0.6738739013671875,0.0209197998046875
1700516807021128200,8.393128173828124,-1.16534423828125,-0.46234130859375,0.048828125
1700516807031139300,8.403139404296875,-0.6218109130859375,0.032012939453125,0.127777099609375
1700516807041149400,8.4131494140625,-0.8265228271484375,-0.4312744140625,0.186065673828125
1700516807051160300,8.423160400390625,-0.8842315673828125,-0.4698333740234375,0.0331878662109375
1700516807061170400,8.43317041015625,-1.465789794921875,-0.5010833740234375,0.2171478271484375
1700516807071181300,8.443181396484375,-0.7998809814453125,0.2530364990234375,0.1427154541015625
1700516807081191400,8.45319140625,-0.83123779296875,-0.7373046875,-0.041290283203125
1700516807091202300,8.463202392578125,-1.3383636474609375,-0.7128448486328125,-0.1122283935546875
1700516807101212200,8.473212158203125,-0.9786529541015625,0.2074737548828125,0.0580902099609375
1700516807111223300,8.483223388671876,-0.6096649169921875,-0.6169281005859375,0.0782470703125
1700516807121233200,8.493233154296876,-1.2455596923828125,-0.600067138671875,-0.165252685546875
1700516807131244300,8.503244384765624,-1.1608123779296875,-0.22308349609375,0.1431121826171875
1700516807141254100,8.513254150390624,-0.731781005859375,-0.3225860595703125,0.20880126953125
1700516807151265300,8.523265380859375,-0.6148834228515625,-0.4054412841796875,-0.0884857177734375
1700516807161275400,8.533275390625,-1.2541046142578125,-0.5721893310546875,0.19873046875
1700516807171286300,8.543286376953125,-0.7188568115234375,0.0303955078125,0.1605987548828125
1700516807181296400,8.55329638671875,-0.6552581787109375,-0.4114990234375,0.2439727783203125
1700516807191307300,8.563307373046875,-1.3209381103515625,-0.578125,-0.0096588134765625
1700516807201317400,8.5733173828125,-0.88348388671875,-0.1149444580078125,0.1921539306640625
1700516807211328300,8.583328369140625,-0.5604248046875,-0.279052734375,0.0541229248046875
1700516807221338400,8.59333837890625,-0.564727783203125,-0.5084381103515625,-0.2567596435546875
1700516807231349200,8.603349365234376,-1.269622802734375,-0.551177978515625,-0.037567138671875
1700516807241359400,8.613359375,-0.8234100341796875,-0.02471923828125,0.0459747314453125
1700516807251370200,8.623370361328124,-0.6455078125,-0.4410400390625,0.0093536376953125
1700516807261380000,8.633380126953124,-1.5024566650390625,-0.6656341552734375,0.031890869140625
1700516807271391500,8.6433916015625,-0.993865966796875,0.0701141357421875,0.2315673828125
1700516807281401300,8.6534013671875,-0.6991119384765625,-0.5191192626953125,0.22064208984375
1700516807291412500,8.66341259765625,-1.316009521484375,-0.4795074462890625,0.0413055419921875
1700516807301422300,8.67342236328125,-1.1373138427734375,-0.221954345703125,0.2001495361328125
1700516807311433200,8.68343310546875,-1.223785400390625,-0.5198211669921875,0.1137237548828125
1700516807321443300,8.693443359375,-1.071075439453125,-0.337432861328125,-0.0852813720703125
1700516807331454200,8.7034541015625,-0.903564453125,-0.5506744384765625,-0.003326416015625
1700516807341464300,8.71346435546875,-0.585235595703125,-0.0988006591796875,-0.00439453125
1700516807351475200,8.72347509765625,-0.89227294921875,-0.377349853515625,-0.1675872802734375
1700516807361485300,8.7334853515625,-1.4817047119140625,-0.5407257080078125,0.0473175048828125
1700516807371496200,8.74349609375,-0.546630859375,0.139129638671875,0.1484527587890625
1700516807381506300,8.75350634765625,-0.7295684814453125,-0.726806640625,0.0849151611328125
1700516807391517400,8.763517333984375,-1.5099334716796875,-0.2975616455078125,-0.0001068115234375
1700516807401527300,8.77352734375,-1.21380615234375,-0.2769317626953125,0.2866363525390625
1700516807411538400,8.783538330078125,-0.8250732421875,-0.4146270751953125,0.118377685546875
1700516807421548300,8.79354833984375,-0.5845947265625,-0.3093109130859375,-0.0444488525390625
1700516807431559400,8.803559326171875,-1.15838623046875,-0.6775054931640625,0.0988616943359375
1700516807441569300,8.8135693359375,-0.982757568359375,0.0615997314453125,-0.0205230712890625
1700516807451580200,8.823580078125,-0.4550323486328125,-0.5107421875,0.039794921875
1700516807461590300,8.83359033203125,-1.3045196533203125,-0.6568450927734375,-0.0999755859375
1700516807471601200,8.84360107421875,-0.7764129638671875,0.027679443359375,-0.034698486328125
1700516807481611300,8.853611328125,-0.754913330078125,-0.44146728515625,0.1494140625
1700516807491622100,8.8636220703125,-1.0620880126953125,-0.4690704345703125,-0.1061248779296875
1700516807501632300,8.87363232421875,-1.2378997802734375,-0.3670196533203125,0.1742095947265625
1700516807511643400,8.883643310546875,-0.8753204345703125,-0.067626953125,0.1956939697265625
1700516807521653200,8.8936533203125,-1.01165771484375,-0.3875579833984375,0.062835693359375
1700516807531664400,8.903664306640625,-1.5755615234375,-0.625213623046875,0.051971435546875
1700516807541674500,8.913674560546875,-0.9440155029296875,0.0562896728515625,0.086639404296875
1700516807551685400,8.923685302734375,-0.3046417236328125,-0.6237030029296875,0.06793212890625
1700516807561695200,8.9336953125,-1.1822967529296875,-0.60498046875,-0.140350341796875
1700516807571705000,8.943705078125,-1.173919677734375,-0.0622100830078125,0.1891326904296875
1700516807581715200,8.953715087890625,-0.7698516845703125,-0.5641021728515625,0.2277374267578125
1700516807591726000,8.96372607421875,-0.7002410888671875,-0.38201904296875,-0.07421875
1700516807601736200,8.973736083984376,-0.9821319580078125,-0.3841400146484375,0.2105560302734375
1700516807611747300,8.983747314453124,-1.1269378662109375,0.0716400146484375,0.11126708984375
1700516807621757200,8.993757080078124,-0.46533203125,-0.4999542236328125,0.00421142578125
1700516807631768300,9.003768310546874,-1.530609130859375,-0.617401123046875,-0.0272979736328125
1700516807641778200,9.013778076171874,-1.051055908203125,0.367645263671875,0.0854644775390625
1700516807651789300,9.023789306640625,-0.521331787109375,-0.6862335205078125,0.080963134765625
1700516807661799200,9.033799072265625,-1.3092803955078125,-0.597869873046875,-0.2421112060546875
1700516807671810000,9.04381005859375,-1.4867706298828125,-0.1150054931640625,0.2582855224609375
1700516807681820200,9.053820068359375,-0.6545867919921875,-0.252044677734375,0.0494232177734375
1700516807691831000,9.0638310546875,-0.39794921875,-0.574798583984375,-0.1255950927734375
1700516807701841200,9.073841064453125,-1.6740570068359375,-0.555023193359375,0.138427734375
1700516807711852000,9.08385205078125,-1.3068084716796875,0.2105865478515625,0.0915985107421875
1700516807721862100,9.093862060546876,-0.6221160888671875,-0.7480010986328125,-0.0214996337890625
1700516807731873300,9.103873291015624,-1.393035888671875,-0.5346832275390625,-0.2077789306640625
1700516807741883400,9.11388330078125,-0.8265380859375,0.1717529296875,0.17401123046875
1700516807751894300,9.123894287109374,-0.582305908203125,-0.7439117431640625,0.112945556640625
1700516807761904000,9.133904052734374,-1.3136444091796875,-0.3170166015625,-0.34503173828125
1700516807771914200,9.143914306640625,-1.3668060302734375,-0.2514190673828125,0.265594482421875
1700516807781925000,9.153925048828125,-0.7545166015625,-0.1647796630859375,-0.0164031982421875
1700516807791935200,9.163935302734375,-0.498077392578125,-0.4788360595703125,-0.1153106689453125
1700516807801946000,9.173946044921875,-1.216949462890625,-0.49560546875,0.0738677978515625
1700516807811956200,9.183956298828125,-0.60491943359375,0.1837158203125,-0.0732421875
1700516807821967000,9.193967041015625,-0.497406005859375,-0.7212677001953125,-0.042510986328125
1700516807831977200,9.203977294921875,-1.0527496337890625,-0.219451904296875,-0.235504150390625
1700516807841988000,9.213988037109376,-0.8782501220703125,-0.27490234375,0.13629150390625
1700516807851998200,9.223998291015626,-1.0266571044921875,-0.0656585693359375,-0.0666046142578125
1700516807862009000,9.234009033203124,-1.093536376953125,-0.3261871337890625,-0.06036376953125
1700516807872019000,9.24401904296875,-1.2194671630859375,-0.6565704345703125,-0.03118896484375
1700516807882030300,9.2540302734375,-0.91888427734375,0.146270751953125,-0.10211181640625
1700516807892040200,9.264040283203125,-0.859375,-0.366241455078125,0.001953125
1700516807902051300,9.27405126953125,-0.889556884765625,-0.6734161376953125,-0.14874267578125
1700516807912061200,9.284061279296875,-1.159637451171875,-0.1032562255859375,-0.0441131591796875
1700516807922072000,9.294072021484375,-0.7644805908203125,-0.0925445556640625,0.0591888427734375
1700516807932082200,9.304082275390625,-1.1058807373046875,-0.6054534912109375,-0.229156494140625
1700516807942093000,9.314093017578125,-1.5518341064453125,-0.40283203125,-0.1658935546875
1700516807952103200,9.324103271484375,-0.30291748046875,0.15435791015625,-0.0901336669921875
1700516807962114000,9.334114013671876,-0.3935394287109375,-0.7420654296875,-0.29693603515625
1700516807972124200,9.344124267578126,-1.8448028564453125,-0.405731201171875,-0.1417999267578125
1700516807982135000,9.354135009765624,-0.816558837890625,0.205108642578125,0.1183624267578125
1700516807992145200,9.364145263671874,-0.7455291748046875,-0.754730224609375,-0.00677490234375
1700516808002156300,9.37415625,-1.299346923828125,-0.3373870849609375,-0.12646484375
1700516808012166100,9.384166259765625,-0.686981201171875,-0.2042388916015625,0.0855712890625
1700516808022177300,9.39417724609375,-0.996551513671875,-0.2444000244140625,-0.020416259765625
1700516808032187100,9.404187255859375,-0.859954833984375,-0.4161224365234375,-0.165130615234375
1700516808042197200,9.414197265625,-0.838897705078125,-0.398406982421875,0.021087646484375
1700516808052208000,9.4242080078125,-0.5148162841796875,0.09136962890625,-0.0384521484375
1700516808062218200,9.43421826171875,-1.2373809814453125,-0.3383636474609375,0.0462799072265625
1700516808072229000,9.44422900390625,-1.4400634765625,-0.518707275390625,-0.1952972412109375
1700516808082239200,9.4542392578125,-0.84326171875,-0.23004150390625,-0.171356201171875
1700516808092250000,9.46425,-0.5245361328125,0.0888519287109375,-0.05084228515625
1700516808102260200,9.47426025390625,-0.9417572021484375,-0.6695404052734375,-0.11541748046875
1700516808112271000,9.48427099609375,-1.9528961181640625,-0.53106689453125,-0.097991943359375
1700516808122281000,9.494281005859374,-0.585968017578125,0.3060455322265625,-0.01031494140625
1700516808132292400,9.504292236328125,-0.0954132080078125,-0.6324462890625,-0.1250762939453125
1700516808142302200,9.51430224609375,-1.517547607421875,-0.53094482421875,-0.2366943359375
1700516808152313300,9.524313232421875,-1.158416748046875,0.04840087890625,0.121856689453125
1700516808162323200,9.5343232421875,-0.7249908447265625,-0.570556640625,-0.0142059326171875
1700516808172334000,9.544333984375,-1.29583740234375,-0.2932281494140625,-0.2357635498046875
1700516808182344200,9.55434423828125,-1.0389404296875,-0.34375,0.2145843505859375
1700516808192355000,9.56435498046875,-1.2257537841796875,-0.1258544921875,-0.2333221435546875
1700516808202365200,9.574365234375,-0.9787750244140625,-0.3440704345703125,0.0305633544921875
1700516808212376000,9.5843759765625,-1.3814849853515625,-0.60455322265625,-0.0810699462890625
1700516808222386200,9.59438623046875,-0.9116668701171875,0.0746612548828125,-0.2385711669921875
1700516808232397000,9.60439697265625,-0.60882568359375,-0.476409912109375,0.2071533203125
1700516808242407200,9.6144072265625,-1.2566986083984375,-0.4882659912109375,-0.3384552001953125
1700516808252418300,9.624418212890625,-0.7870941162109375,-0.24267578125,0.0341033935546875
1700516808262428200,9.63442822265625,-0.4179534912109375,0.0547027587890625,-0.0343170166015625
1700516808272438000,9.64443798828125,-0.5229339599609375,-0.5925445556640625,-0.077239990234375
1700516808282449200,9.65444921875,-1.644775390625,-0.42095947265625,-0.071197509765625
1700516808292459300,9.664459228515625,-0.6565399169921875,0.419342041015625,0.0654754638671875
1700516808302470100,9.67447021484375,-0.8093414306640625,-0.6676483154296875,0.17724609375
1700516808312480300,9.684480224609375,-1.57232666015625,-0.3790283203125,-0.1088409423828125
1700516808322491100,9.6944912109375,-1.1468505859375,-0.259735107421875,0.0579376220703125
1700516808332501200,9.704501220703126,-0.704254150390625,-0.1834564208984375,-0.0699462890625
1700516808342512000,9.71451220703125,-0.7108154296875,-0.3082122802734375,-0.2399749755859375
1700516808352522200,9.724522216796874,-1.77459716796875,-0.681396484375,-0.11871337890625
1700516808362533000,9.734533203125,-1.04345703125,0.197021484375,-0.1991424560546875
1700516808372543000,9.74454296875,-0.4420928955078125,-0.6646728515625,-0.10125732421875
1700516808382554000,9.75455419921875,-1.7333984375,-0.61712646484375,-0.0974578857421875
1700516808392564000,9.76456396484375,-1.1766815185546875,0.1215667724609375,0.20684814453125
1700516808402575400,9.774575439453125,-1.04443359375,-0.7089385986328125,0.2166290283203125
1700516808412585200,9.784585205078125,-1.4556884765625,-0.3956146240234375,-0.084136962890625
1700516808422596000,9.79459619140625,-0.8914642333984375,-0.1792144775390625,0.1735992431640625
1700516808432606200,9.804606201171875,-1.013275146484375,-0.219635009765625,-0.0925445556640625
1700516808442616300,9.8146162109375,-0.4043731689453125,-0.3146209716796875,-0.134368896484375
1700516808452627200,9.824627197265626,-0.850677490234375,-0.605804443359375,-0.0302734375
1700516808462637300,9.83463720703125,-0.688995361328125,0.0108642578125,-0.09625244140625
1700516808472648200,9.844648193359374,-0.667205810546875,-0.190277099609375,0.096038818359375
1700516808482658000,9.854657958984374,-0.5264434814453125,-0.4065399169921875,-0.1682891845703125
1700516808492669200,9.864669189453124,-1.2984161376953125,-0.3217926025390625,0.1232147216796875
1700516808502679000,9.874678955078124,-0.715789794921875,0.3820343017578125,0.1412506103515625
1700516808512690200,9.884690185546875,-1.146759033203125,-0.6516571044921875,0.221435546875
1700516808522700000,9.894699951171875,-1.017608642578125,-0.5301513671875,-0.07421875
1700516808532711200,9.904711181640625,-1.1131744384765625,0.1856536865234375,0.0877227783203125
1700516808542721300,9.91472119140625,-0.788818359375,-0.411041259765625,0.0504150390625
1700516808552732200,9.924732177734375,-1.150146484375,-0.4075164794921875,-0.23187255859375
1700516808562742300,9.9347421875,-1.25372314453125,-0.5120849609375,-0.055145263671875
1700516808572754200,9.944754150390626,-1.0110015869140625,0.06268310546875,-0.14202880859375
1700516808582764000,9.954763916015626,-0.8304290771484375,-0.605560302734375,-0.140289306640625
1700516808592775200,9.964775146484374,-1.79315185546875,-0.5247039794921875,0.093994140625
1700516808602785000,9.974784912109374,-0.9395599365234375,0.259979248046875,0.098968505859375
1700516808612795100,9.984795166015624,-0.516937255859375,-0.8926849365234375,0.2158203125
1700516808622806000,9.994805908203125,-1.176727294921875,-0.2330169677734375,-0.054412841796875
1700516808632816000,10.004816162109375,-0.4101715087890625,-0.194549560546875,0.2545318603515625
1700516808642827000,10.014826904296875,-0.8693084716796875,-0.1993865966796875,-0.0581512451171875
1700516808652837000,10.024837158203125,-0.4458160400390625,-0.26837158203125,-0.0212860107421875
1700516808662848000,10.034847900390625,-1.0477294921875,-0.480987548828125,-0.01605224609375
1700516808672858000,10.044858154296875,-0.646728515625,0.1146087646484375,-0.049224853515625
1700516808682869000,10.054868896484376,-0.8517303466796875,-0.13861083984375,0.1695556640625
1700516808692878800,10.06487890625,-0.56195068359375,-0.643829345703125,-0.177520751953125
1700516808702890200,10.07489013671875,-1.037567138671875,-0.28179931640625,-0.080352783203125
1700516808712900000,10.084900146484374,-0.6567230224609375,0.3173370361328125,0.045623779296875
1700516808722911200,10.0949111328125,-1.03790283203125,-0.54119873046875,0.03375244140625
1700516808732921000,10.104921142578124,-0.810272216796875,-0.376861572265625,-0.03271484375
1700516808742932000,10.114931884765625,-0.4510498046875,0.095611572265625,-0.0297393798828125
1700516808752942000,10.124942138671875,-1.037109375,-0.3334503173828125,0.0746002197265625
1700516808762952200,10.1349521484375,-1.31060791015625,-0.4413299560546875,-0.0160064697265625
1700516808772963000,10.144963134765625,-1.6211395263671875,-0.30059814453125,0.0749664306640625
1700516808782973000,10.154972900390625,-0.6917877197265625,-0.0604095458984375,0.271209716796875
1700516808792984000,10.164984130859375,-0.8532562255859375,-0.570526123046875,-0.1778106689453125
1700516808802994000,10.174993896484375,-1.8342132568359375,-0.4172515869140625,0.1163787841796875
1700516808813005000,10.185005126953126,-0.975921630859375,0.097198486328125,0.063079833984375
1700516808823015000,10.195014892578126,-0.7261199951171875,-0.614501953125,0.1517791748046875
1700516808833026000,10.205026123046874,-1.159088134765625,-0.3673858642578125,0.1026153564453125
1700516808843036000,10.215035888671874,-0.90478515625,-0.225189208984375,-0.04180908203125
1700516808853047000,10.225047119140624,-0.7313385009765625,-0.11859130859375,0.2043304443359375
1700516808863057200,10.23505712890625,-0.7033538818359375,-0.55328369140625,-0.1360015869140625
1700516808873067300,10.2450673828125,-1.2564544677734375,-0.3784942626953125,0.079681396484375
1700516808883078100,10.255078125,-0.6016387939453125,0.26910400390625,0.04296875
1700516808893088000,10.265087890625,-0.584930419921875,-0.73675537109375,0.2033843994140625
1700516808903099100,10.27509912109375,-1.6715545654296875,-0.336700439453125,-0.0901641845703125
1700516808913109000,10.28510888671875,-0.9569091796875,-0.0130462646484375,0.2453460693359375
1700516808923120000,10.2951201171875,-0.6430816650390625,-0.291961669921875,-0.0339202880859375
1700516808933130000,10.3051298828125,-0.9566802978515625,-0.3565673828125,-0.1450653076171875
1700516808943140900,10.315140869140626,-1.7453155517578125,-0.564788818359375,0.12347412109375
1700516808953151000,10.32515087890625,-0.8277435302734375,0.4059906005859375,0.025360107421875
1700516808963161900,10.335161865234374,-0.5051116943359375,-0.7855072021484375,0.124481201171875
1700516808973172000,10.345171875,-1.533782958984375,-0.295013427734375,-0.027923583984375
1700516808983182000,10.35518212890625,-0.73046875,0.0322265625,0.2369384765625
1700516808993193200,10.365193115234375,-0.8415679931640625,-0.56829833984375,0.1200714111328125
1700516809003203000,10.375203125,-1.133392333984375,-0.281494140625,-0.0335235595703125
1700516809013214200,10.385214111328125,-0.98931884765625,-0.411651611328125,0.2920379638671875
1700516809023224000,10.39522412109375,-1.0125274658203125,0.1308441162109375,-0.0231781005859375
1700516809033235200,10.405235107421875,0.6055755615234375,-0.6373748779296875,0.0643157958984375
1700516809043245000,10.4152451171875,-3.5102996826171875,-0.4497222900390625,-0.069000244140625
1700516809053256000,10.425255859375,-1.3700714111328125,0.632781982421875,0.2314300537109375
1700516809063266000,10.43526611328125,0.044342041015625,-0.820159912109375,0.100799560546875
1700516809073277000,10.44527685546875,-0.7723846435546875,-0.4322662353515625,-0.230133056640625
1700516809083287000,10.455287109375,-1.339569091796875,-0.409454345703125,0.2498626708984375
1700516809093297000,10.465296875,-1.237884521484375,0.0479736328125,0.0314178466796875
1700516809103308000,10.47530810546875,-0.7842559814453125,-0.3926239013671875,0.071136474609375
1700516809113318000,10.48531787109375,-1.1259307861328125,-0.568939208984375,0.0670166015625
1700516809123329000,10.4953291015625,-0.64129638671875,0.1830596923828125,0.0956573486328125
1700516809133339000,10.5053388671875,-0.5447998046875,-0.7228546142578125,0.21990966796875
1700516809143350000,10.51535009765625,-1.0488433837890625,-0.235992431640625,-0.0931243896484375
1700516809153360100,10.525360107421875,-0.7713165283203125,-0.3372344970703125,0.1952362060546875
1700516809163371000,10.53537109375,-0.90911865234375,0.152008056640625,0.0343475341796875
1700516809173381000,10.545381103515625,-0.784576416015625,-0.5007476806640625,0.09161376953125
1700516809183392000,10.55539208984375,-1.3433074951171875,-0.5023651123046875,-0.0234222412109375
1700516809193402000,10.565402099609376,-0.8834075927734375,0.375457763671875,0.0882720947265625
1700516809203412000,10.575411865234376,-0.7636566162109375,-0.49114990234375,0.1414947509765625
1700516809213423000,10.585423095703124,-1.0857086181640625,-0.432037353515625,-0.2407073974609375
1700516809223433000,10.595432861328124,-1.048492431640625,-0.2308502197265625,0.15679931640625
1700516809233444000,10.605444091796874,-0.7745208740234375,0.04058837890625,-0.0241851806640625
1700516809243454000,10.615453857421874,-0.8972625732421875,-0.397491455078125,-0.0753631591796875
1700516809253464800,10.62546484375,-1.49005126953125,-0.584625244140625,0.0382537841796875
1700516809263475000,10.635474853515625,-0.83343505859375,0.354095458984375,0.0832977294921875
1700516809273486000,10.645486083984375,-0.7017059326171875,-0.7418212890625,0.2841949462890625
1700516809283496200,10.65549609375,-1.28936767578125,-0.3163299560546875,-0.015625
1700516809293507000,10.665507080078125,-1.0984039306640625,-0.299713134765625,0.1903228759765625
1700516809303517200,10.67551708984375,-0.9320526123046875,-0.1951904296875,0.1549072265625
1700516809313527000,10.685527099609375,-0.884918212890625,-0.4010162353515625,-0.022064208984375
1700516809323538200,10.6955380859375,-1.206695556640625,-0.462188720703125,0.107208251953125
1700516809333548000,10.705548095703126,-0.9455413818359375,0.1641387939453125,0.03302001953125
1700516809343559000,10.715558837890624,-0.7786865234375,-0.5431060791015625,0.17437744140625
1700516809353569000,10.725569091796874,-1.416046142578125,-0.3663482666015625,-0.1279754638671875
1700516809363580000,10.735579833984374,-0.8764801025390625,-0.088592529296875,0.0999298095703125
1700516809373590000,10.745590087890625,-0.70892333984375,-0.17926025390625,0.0105133056640625
1700516809383601000,10.755600830078125,-1.0310516357421875,-0.4265899658203125,-0.0164642333984375
1700516809393611000,10.765611083984375,-1.22686767578125,-0.46063232421875,0.1257476806640625
1700516809403620900,10.775620849609375,-0.63287353515625,0.387786865234375,0.042938232421875
1700516809413632300,10.78563232421875,-0.710662841796875,-0.704559326171875,0.149383544921875
1700516809423642000,10.79564208984375,-1.408203125,-0.350799560546875,0.01654052734375
1700516809433653000,10.805653076171875,-1.2404022216796875,-0.0279693603515625,0.1737060546875
1700516809443663000,10.8156630859375,-0.9156341552734375,-0.2876739501953125,0.144287109375
1700516809453674000,10.825674072265626,-0.9059906005859375,-0.509063720703125,-0.0116424560546875
1700516809463684000,10.83568408203125,-1.1583099365234375,-0.286712646484375,0.1137237548828125
1700516809473695000,10.845695068359374,-0.93865966796875,0.0173492431640625,0.0757293701171875
1700516809483705000,10.855705078125,-0.9723052978515625,-0.501220703125,0.20135498046875
1700516809493715000,10.86571484375,-1.4691162109375,-0.472869873046875,0.0816497802734375
1700516809503726000,10.87572607421875,-0.8296051025390625,0.053802490234375,0.0577392578125
1700516809513736000,10.88573583984375,-0.722503662109375,-0.38330078125,0.3192901611328125
1700516809523747000,10.8957470703125,-1.317413330078125,-0.478729248046875,-0.0825347900390625
1700516809533757000,10.9057568359375,-1.3273773193359375,-0.272613525390625,0.1126708984375
1700516809543767800,10.915767822265625,-0.7606353759765625,0.051361083984375,0.06451416015625
1700516809553778000,10.92577783203125,-0.6248779296875,-0.469512939453125,0.0977783203125
1700516809563789000,10.9357890625,-1.2835540771484375,-0.480316162109375,0.036163330078125
1700516809573799000,10.945798828125,-0.9405059814453125,0.125244140625,0.1647796630859375
1700516809583809000,10.95580908203125,-0.6237335205078125,-0.294677734375,0.264312744140625
1700516809593820000,10.96581982421875,-1.0965423583984375,-0.49066162109375,-0.1968841552734375
1700516809603829800,10.975829833984376,-0.8990631103515625,-0.183074951171875,0.2446441650390625
1700516809613841000,10.9858408203125,-0.9072418212890625,-0.050323486328125,0.118682861328125
1700516809623850800,10.995850830078124,-0.6635894775390625,-0.3550262451171875,-0.030059814453125
1700516809633862000,11.00586181640625,-1.257049560546875,-0.5437774658203125,0.1287078857421875
1700516809643871700,11.015871826171875,-0.78216552734375,0.29107666015625,0.10345458984375
1700516809653882600,11.025882568359375,-0.61468505859375,-0.5327606201171875,0.1450347900390625
1700516809663892700,11.035892822265625,-1.26959228515625,-0.3851776123046875,-0.1191864013671875
1700516809673902800,11.04590283203125,-0.8814544677734375,-0.233306884765625,0.2423248291015625
1700516809683914000,11.0559140625,-0.7667083740234375,-0.0095672607421875,-0.029083251953125
1700516809693923800,11.065923828125,-0.9431304931640625,-0.34716796875,0.0229644775390625
1700516809703935000,11.07593505859375,-1.705230712890625,-0.706298828125,0.1908721923828125
1700516809713944800,11.08594482421875,-0.761260986328125,0.43609619140625,0.0293121337890625
1700516809723956000,11.0959560546875,-0.5326385498046875,-0.5605316162109375,0.18890380859375
1700516809733965800,11.1059658203125,-1.3169708251953125,-0.4131622314453125,-0.13287353515625
1700516809743976000,11.115975830078124,-1.1725006103515625,-0.2087860107421875,0.2903594970703125
1700516809753986800,11.12598681640625,-0.76300048828125,0.00665283203125,0.17755126953125
1700516809763997000,11.135996826171874,-0.8060760498046875,-0.4617767333984375,-0.0218353271484375
1700516809774007800,11.1460078125,-1.39581298828125,-0.4621734619140625,0.172332763671875
1700516809784018000,11.156017822265625,-1.076873779296875,0.1967315673828125,0.080413818359375
1700516809794028800,11.16602880859375,-0.8227386474609375,-0.571990966796875,0.319793701171875
1700516809804038700,11.17603857421875,-1.22442626953125,-0.3949737548828125,-0.1248016357421875
1700516809814049800,11.1860498046875,-0.8484954833984375,-0.215179443359375,0.223175048828125
1700516809824059600,11.1960595703125,-0.723724365234375,-0.1922607421875,0.0023193359375
1700516809834069800,11.20606982421875,-1.046722412109375,-0.3485260009765625,-0.206085205078125
1700516809844081000,11.216080810546876,-1.449188232421875,-0.5086669921875,0.0906982421875
1700516809854091000,11.226091064453126,-0.771026611328125,0.27093505859375,0.075164794921875
1700516809864102000,11.236101806640624,-0.4815826416015625,-0.5258331298828125,0.26007080078125
1700516809874112000,11.246112060546874,-1.2312469482421875,-0.40252685546875,-0.0412750244140625
1700516809884123000,11.256122802734374,-0.911651611328125,-0.001129150390625,0.1680755615234375
1700516809894132700,11.2661328125,-0.708160400390625,-0.1145782470703125,0.190460205078125
1700516809904142800,11.276142822265625,-0.7538909912109375,-0.476287841796875,0.027099609375
1700516809914153700,11.28615380859375,-0.94708251953125,-0.1862640380859375,0.14093017578125
1700516809924163800,11.296163818359375,-0.9700775146484375,0.131500244140625,0.1289215087890625
1700516809934174700,11.3061748046875,-0.888275146484375,-0.468963623046875,0.0619964599609375
1700516809944184800,11.316184814453125,-1.5505218505859375,-0.46697998046875,-0.021148681640625
1700516809954195700,11.32619580078125,-0.93585205078125,0.1776885986328125,0.17767333984375
1700516809964205800,11.336205810546875,-0.661773681640625,-0.5824432373046875,0.15924072265625
1700516809974215700,11.346215576171875,-1.0904693603515625,-0.2500152587890625,-0.1299591064453125
1700516809984226800,11.356226806640626,-1.4523468017578125,-0.4411468505859375,0.1559295654296875
1700516809994237000,11.36623681640625,-1.1238861083984375,0.1745147705078125,0.083709716796875
1700516810004247800,11.376247802734374,-0.878753662109375,-0.598358154296875,0.1339874267578125
1700516810014258000,11.3862578125,-1.19464111328125,-0.429168701171875,0.0700836181640625
1700516810024268000,11.39626806640625,-0.848236083984375,0.1315765380859375,0.183929443359375
1700516810034279000,11.40627880859375,-0.7933502197265625,-0.5696563720703125,0.23974609375
1700516810044288800,11.416288818359375,-0.9896240234375,-0.2813873291015625,-0.1426849365234375
1700516810054300000,11.4262998046875,-0.8693084716796875,-0.370697021484375,0.1510772705078125
1700516810064309800,11.436309814453125,-0.6582794189453125,0.2731170654296875,-0.0118560791015625
1700516810074321000,11.44632080078125,-0.4989013671875,-0.5529022216796875,0.0471038818359375
1700516810084330800,11.456330810546875,-1.373138427734375,-0.35498046875,-0.0795135498046875
1700516810094340900,11.4663408203125,-1.0324249267578125,0.1710968017578125,0.191558837890625
1700516810104351700,11.476351806640626,-0.6346435546875,-0.225921630859375,0.1341400146484375
1700516810114361900,11.48636181640625,-0.78411865234375,-0.442962646484375,-0.093719482421875
1700516810124372700,11.496372802734374,-0.81109619140625,-0.1839141845703125,0.221771240234375
1700516810134382800,11.5063828125,-0.8094329833984375,0.099029541015625,0.0239410400390625
1700516810144392700,11.516392822265624,-0.7280120849609375,-0.376678466796875,0.0822296142578125
1700516810154403800,11.52640380859375,-1.29156494140625,-0.5318145751953125,-0.050567626953125
1700516810164414000,11.5364140625,-1.1493682861328125,0.1871185302734375,-0.0331878662109375
1700516810174424800,11.5464248046875,-0.7002105712890625,-0.387725830078125,0.128265380859375
1700516810184435000,11.55643505859375,-1.110565185546875,-0.39227294921875,-0.1632080078125
1700516810194445800,11.56644580078125,-1.3485870361328125,-0.2547760009765625,0.211944580078125
1700516810204456000,11.5764560546875,-1.042877197265625,0.0275421142578125,0.133392333984375
1700516810214465800,11.5864658203125,-0.738739013671875,-0.36834716796875,-0.002227783203125
1700516810224477000,11.596476806640625,-1.027496337890625,-0.4599609375,0.1546783447265625
1700516810234486800,11.60648681640625,-0.811126708984375,0.1980743408203125,-0.0121307373046875
1700516810244497700,11.61649755859375,-0.7966156005859375,-0.5467071533203125,0.2371063232421875
1700516810254507800,11.6265078125,-1.267791748046875,-0.32415771484375,-0.075531005859375
1700516810264518000,11.636517822265626,-0.9969635009765625,-0.1513519287109375,0.249664306640625
1700516810274528800,11.64652880859375,-0.64739990234375,-0.0316009521484375,0.08502197265625
1700516810284538600,11.65653857421875,-0.94561767578125,-0.4745025634765625,0.0034637451171875
1700516810294550000,11.666550048828125,-1.344573974609375,-0.3632049560546875,0.058837890625
1700516810304559900,11.676559814453125,-0.7745819091796875,0.236480712890625,-0.020660400390625
1700516810314570000,11.686570068359375,-0.66845703125,-0.44195556640625,0.0974273681640625
1700516810324580900,11.696580810546875,-1.49700927734375,-0.579254150390625,-0.1929473876953125
1700516810334591000,11.706591064453125,-0.9307861328125,0.007293701171875,0.1298980712890625
1700516810344601900,11.716601806640625,-0.51605224609375,-0.1293182373046875,0.0260772705078125
1700516810354612000,11.726612060546875,-0.9900665283203125,-0.3001708984375,-0.0763397216796875
1700516810364621800,11.736621826171875,-1.5974273681640625,-0.5669097900390625,0.1314239501953125
1700516810374633000,11.746633056640626,-0.796051025390625,0.460113525390625,0.0519561767578125
1700516810384642800,11.756642822265626,-0.4920501708984375,-0.5273895263671875,0.1076202392578125
1700516810394653700,11.76665380859375,-1.2834625244140625,-0.3753509521484375,-0.001129150390625
1700516810404663800,11.776663818359374,-0.873199462890625,0.0854949951171875,0.132568359375
1700516810414674000,11.786673828125,-0.614166259765625,-0.29608154296875,0.246734619140625
1700516810424684800,11.796684814453124,-1.33319091796875,-0.33203125,-0.03765869140625
1700516810434694700,11.806694580078124,-1.3122711181640625,-0.2536468505859375,0.3154449462890625
1700516810444705800,11.816705810546875,-0.8546142578125,0.046630859375,-0.0500640869140625
1700516810454715600,11.826715576171875,-0.87115478515625,-0.41668701171875,-0.047332763671875
1700516810464725800,11.836725830078125,-1.5391998291015625,-0.5577239990234375,-0.0262451171875
1700516810474737000,11.84673681640625,-1.1619415283203125,0.215484619140625,0.0350799560546875
1700516810484747000,11.8567470703125,-0.8031768798828125,-0.5860443115234375,0.0890045166015625
1700516810494758000,11.8667578125,-1.2039337158203125,-0.4370574951171875,-0.0902557373046875
1700516810504768000,11.87676806640625,-1.0544281005859375,-0.047332763671875,0.157623291015625
1700516810514777900,11.88677783203125,-0.93603515625,-0.2046356201171875,0.0652008056640625
1700516810524788700,11.896788818359376,-0.7790069580078125,-0.25274658203125,0.009124755859375
1700516810534798800,11.906798828125,-1.0928955078125,-0.528564453125,0.1687774658203125
1700516810544809700,11.916809814453124,-0.7242889404296875,0.36358642578125,-0.0357666015625
1700516810554819800,11.92681982421875,-0.3511199951171875,-0.516632080078125,0.1896514892578125
1700516810564830000,11.936829833984374,-1.0433807373046875,-0.2998046875,-0.0171966552734375
1700516810574840800,11.9468408203125,-0.6063232421875,0.0322723388671875,0.0522003173828125
1700516810584850400,11.956850341796875,-0.9231109619140625,-0.014556884765625,0.088134765625
1700516810594861800,11.96686181640625,-0.875823974609375,-0.4801788330078125,-0.0703582763671875
1700516810604871700,11.97687158203125,-1.913330078125,-0.18170166015625,0.004058837890625
1700516810614881800,11.9868818359375,-1.4178314208984375,0.0960845947265625,-0.045440673828125
1700516810624892700,11.996892578125,-1.13983154296875,-0.4220733642578125,0.083770751953125
1700516810634902800,12.00690283203125,-1.5774993896484375,-0.680755615234375,0.0372467041015625
1700516810644913700,12.01691357421875,-0.9866485595703125,0.2762908935546875,-0.0319976806640625
1700516810654923800,12.026923828125,-0.7010498046875,-0.5960540771484375,0.2208709716796875
1700516810664933600,12.03693359375,-0.9892730712890625,-0.4483184814453125,0.14801025390625
1700516810674944500,12.046944580078126,-0.6943817138671875,-0.0699310302734375,0.1495513916015625
1700516810684954600,12.05695458984375,-0.5677947998046875,-0.153350830078125,0.1255645751953125
1700516810694964700,12.06696484375,-0.9068603515625,-0.5160064697265625,-0.066986083984375
1700516810704975600,12.0769755859375,-0.8843231201171875,-0.2695465087890625,0.12353515625
1700516810714985700,12.08698583984375,-0.4949951171875,0.26171875,-0.0616607666015625
1700516810724996600,12.09699658203125,-0.82318115234375,-0.1864013671875,0.1318817138671875
1700516810735006500,12.10700634765625,-1.468414306640625,-0.514251708984375,-0.1428375244140625
1700516810745016600,12.1170166015625,-1.2763824462890625,0.3034210205078125,0.0301055908203125
1700516810755027700,12.12702783203125,-0.7655029296875,-0.184478759765625,0.1319427490234375
1700516810765037800,12.137037841796875,-0.98248291015625,-0.3246002197265625,-0.176361083984375
1700516810775048700,12.147048583984375,-1.1998748779296875,-0.340057373046875,0.0505523681640625
1700516810785058800,12.157058837890625,-0.86181640625,0.032470703125,0.190277099609375
1700516810795068700,12.167068603515625,-1.1052093505859375,-0.47760009765625,-0.0425872802734375
1700516810805079800,12.177079833984376,-1.508453369140625,-0.48077392578125,0.1275177001953125
1700516810815089700,12.187089599609376,-1.0353546142578125,0.16497802734375,0.1281890869140625
1700516810825099800,12.197099853515626,-0.735565185546875,-0.5133209228515625,0.2881317138671875
1700516810835110700,12.207110595703124,-1.24127197265625,-0.5630340576171875,-0.03839111328125
1700516810845120800,12.217120849609374,-0.81005859375,0.2233428955078125,0.2121734619140625
1700516810855131600,12.227131591796875,-0.6389007568359375,-0.4821624755859375,0.138031005859375
1700516810865141500,12.2371416015625,-0.950286865234375,-0.2165374755859375,-0.090423583984375
1700516810875151600,12.247151611328125,-0.8986968994140625,-0.2903900146484375,0.1603546142578125
1700516810885162500,12.25716259765625,-0.86279296875,0.0976409912109375,-0.121063232421875
1700516810895172600,12.267172607421875,-0.9102020263671875,-0.3255462646484375,-0.1404876708984375
1700516810905182700,12.2771826171875,-1.405731201171875,-0.484100341796875,0.012542724609375
1700516810915193600,12.287193603515625,-0.875732421875,0.3188323974609375,-0.08502197265625
1700516810925203500,12.297203369140625,-0.601165771484375,-0.3373260498046875,0.093292236328125
1700516810935214800,12.30721484375,-1.2598419189453125,-0.534210205078125,-0.0023956298828125
1700516810945224700,12.317224609375,-1.0897674560546875,0.1027374267578125,0.1190185546875
1700516810955234800,12.32723486328125,-0.752044677734375,-0.1264495849609375,0.1132965087890625
1700516810965245700,12.33724560546875,-0.8381500244140625,-0.3383941650390625,0.23388671875
1700516810975255800,12.347255859375,-1.043487548828125,-0.353607177734375,0.152557373046875
1700516810985265700,12.357265625,-0.6852874755859375,0.2652740478515625,0.10211181640625
1700516810995276800,12.36727685546875,-0.640350341796875,-0.473602294921875,0.1171875
1700516811005286700,12.37728662109375,-1.280487060546875,-0.3274993896484375,0.0367889404296875
1700516811015297500,12.387297607421875,-0.9364166259765625,0.2085113525390625,-0.21832275390625
1700516811025307600,12.3973076171875,-0.9060821533203125,-0.261627197265625,0.09027099609375
1700516811035317800,12.40731787109375,-1.6826324462890625,-0.5204620361328125,-0.1392822265625
1700516811045328600,12.41732861328125,-1.1671142578125,0.2321014404296875,-0.0084991455078125
1700516811055338500,12.42733837890625,-0.9328460693359375,-0.355712890625,0.0601348876953125
1700516811065348600,12.4373486328125,-0.8945770263671875,-0.361236572265625,0.0999298095703125
1700516811075359500,12.447359375,-0.9303436279296875,-0.30108642578125,0.2160186767578125
1700516811085369600,12.45736962890625,-1.0097503662109375,0.0740203857421875,0.168975830078125
1700516811095380700,12.467380615234376,-1.1976776123046875,-0.5506744384765625,0.0967864990234375
1700516811105390600,12.477390625,-1.2522125244140625,-0.3867950439453125,0.1112213134765625
1700516811115400400,12.487400390625,-0.6644439697265625,0.2684326171875,-0.044525146484375
1700516811125411800,12.497411865234374,-0.8209075927734375,-0.37060546875,0.2097930908203125
1700516811135421700,12.507421630859374,-1.67474365234375,-0.5644073486328125,-0.1050262451171875
1700516811145431800,12.517431884765625,-0.88067626953125,0.3476715087890625,0.007476806640625
1700516811155442700,12.527442626953125,-0.4499053955078125,-0.29437255859375,0.10650634765625
1700516811165452800,12.537452880859375,-1.1421051025390625,-0.2777557373046875,0.0124359130859375
1700516811175463700,12.547463623046875,-1.3118743896484375,-0.2398681640625,0.081451416015625
1700516811185473800,12.557473876953125,-0.8100433349609375,0.101837158203125,0.14300537109375
1700516811195483600,12.567483642578125,-0.915283203125,-0.402496337890625,0.0314178466796875
1700516811205494500,12.57749462890625,-1.1272735595703125,-0.3760223388671875,0.1439208984375
1700516811215504600,12.587504638671875,-0.6895294189453125,0.1787261962890625,-0.035003662109375
1700516811225514800,12.5975146484375,-0.71942138671875,-0.3912506103515625,0.0270233154296875
1700516811235525600,12.607525634765626,-1.5307769775390625,-0.5638885498046875,0.049896240234375
1700516811245535500,12.617535400390626,-0.9817047119140625,0.3035430908203125,0.0558929443359375
1700516811255545600,12.627545654296876,-0.5296630859375,-0.388153076171875,0.129852294921875
1700516811265556500,12.637556396484374,-1.0991058349609375,-0.329925537109375,0.155609130859375
1700516811275566600,12.647566650390624,-1.1050872802734375,0.034942626953125,0.2566070556640625
1700516811285577700,12.65757763671875,-0.9384918212890625,-0.089263916015625,0.182708740234375
1700516811295587800,12.667587890625,-1.178680419921875,-0.3884429931640625,0.1383514404296875
1700516811305597700,12.67759765625,-1.0846099853515625,-0.11029052734375,0.136138916015625
1700516811315608800,12.68760888671875,-0.702239990234375,-0.0658416748046875,-0.0493621826171875
1700516811325618700,12.69761865234375,-0.817138671875,-0.2015533447265625,0.0452117919921875
1700516811335628800,12.70762890625,-1.43035888671875,-0.5437164306640625,-0.0208587646484375
1700516811345639700,12.7176396484375,-0.7955169677734375,0.2899169921875,-0.0316619873046875
1700516811355649800,12.72764990234375,-0.5197906494140625,-0.397705078125,0.2054595947265625
1700516811365659600,12.73765966796875,-1.1500244140625,-0.5420379638671875,0.045318603515625
1700516811375670800,12.7476708984375,-0.9696044921875,-0.0375518798828125,0.0895233154296875
1700516811385680600,12.7576806640625,-0.6818389892578125,0.04046630859375,0.1509246826171875
1700516811395691500,12.76769140625,-1.2360382080078125,-0.4539794921875,0.23089599609375
1700516811405701600,12.77770166015625,-1.201385498046875,-0.2392730712890625,0.0018310546875
1700516811415711700,12.787711669921874,-0.4778900146484375,0.310272216796875,0.0797882080078125
1700516811425722600,12.79772265625,-0.8290863037109375,-0.30889892578125,0.1732330322265625
1700516811435732500,12.807732421875,-1.3585052490234375,-0.4472198486328125,0.0023651123046875
1700516811445742600,12.81774267578125,-0.8359222412109375,0.38189697265625,-0.037322998046875
1700516811455753500,12.82775341796875,-0.356658935546875,-0.2205657958984375,0.1281890869140625
1700516811465763600,12.837763671875,-0.916778564453125,-0.481048583984375,-0.095062255859375
1700516811475773700,12.847773681640625,-1.17181396484375,-0.005828857421875,0.0831451416015625
1700516811485784800,12.857784912109375,-0.6356048583984375,0.01361083984375,0.0550689697265625
1700516811495794700,12.867794677734375,-0.9680328369140625,-0.42901611328125,0.0953521728515625
1700516811505804800,12.8778046875,-1.3837432861328125,-0.1376495361328125,0.0619354248046875
1700516811515815700,12.887815673828126,-0.845733642578125,0.22637939453125,0.053253173828125
