time,seconds_elapsed,z,y,x
1699665526461007000,0.202007080078125,0.0009926559869199991,0.0009162978967651725,0.00007635815563844517
1699665526470403000,0.211403076171875,0.0009926559869199991,0.0009162978967651725,0.00007635815563844517
1699665526480242000,0.221241943359375,0.0009926559869199991,0.001527163083665073,0.0006872233934700489
1699665526490338000,0.231338134765625,-0.00022907447419129312,0.002138028386980295,-0.0005345070967450738
1699665526501363000,0.242363037109375,0.00038179077091626823,0.001527163083665073,-0.0017562375869601965
1699665526510876000,0.2518759765625,0.00038179077091626823,0.0009162978967651725,0.00007635815563844517
1699665526520520000,0.26152001953125,0.0009926559869199991,0.001527163083665073,0.0006872233934700489
1699665526530254000,0.271254150390625,0.0009926559869199991,0.001527163083665073,0.00007635815563844517
1699665526540318000,0.28131787109375,0.0009926559869199991,0.001527163083665073,-0.0005345070967450738
1699665526550170000,0.291170166015625,0.00038179077091626823,0.0009162978967651725,0.00007635815563844517
1699665526560153000,0.301153076171875,0.00038179077091626823,0.001527163083665073,0.0006872233934700489
1699665526570296000,0.311296142578125,0.00038179077091626823,0.001527163083665073,0.0006872233934700489
1699665526580145000,0.321144775390625,0.0009926559869199991,0.001527163083665073,0.0006872233934700489
1699665526590205000,0.331204833984375,-0.00022907447419129312,0.001527163083665073,0.00007635815563844517
1699665526600426000,0.341426025390625,0.00038179077091626823,0.001527163083665073,0.0006872233934700489
1699665526610165000,0.3511650390625,0.0009926559869199991,0.001527163083665073,0.00007635815563844517
1699665526620153000,0.361153076171875,0.0009926559869199991,0.001527163083665073,-0.0005345070967450738
1699665526630311000,0.371310791015625,0.00038179077091626823,0.001527163083665073,0.00007635815563844517
1699665526640218000,0.381218017578125,0.00038179077091626823,0.001527163083665073,0.00007635815563844517
1699665526650220000,0.391219970703125,0.00038179077091626823,0.0009162978967651725,0.00007635815563844517
1699665526660176000,0.40117578125,0.00038179077091626823,0.001527163083665073,0.0012980886967852712
1699665526670145000,0.41114501953125,0.0009926559869199991,0.001527163083665073,0.0006872233934700489
1699665526680161000,0.4211611328125,0.0009926559869199991,0.002138028386980295,0.0006872233934700489
1699665526690326000,0.431325927734375,0.0016035212902352214,0.0009162978967651725,0.00007635815563844517
1699665526700139000,0.441138916015625,0.0009926559869199991,0.001527163083665073,0.00007635815563844517
1699665526710836000,0.4518359375,0.0009926559869199991,0.001527163083665073,0.00007635815563844517
1699665526720222000,0.461221923828125,0.0009926559869199991,0.002138028386980295,0.00007635815563844517
1699665526730220000,0.471219970703125,0.0009926559869199991,0.001527163083665073,0.00007635815563844517
1699665526740282000,0.4812822265625,0.0009926559869199991,0.001527163083665073,-0.0005345070967450738
1699665526750444000,0.491444091796875,0.0009926559869199991,0.0009162978967651725,0.0012980886967852712
1699665526760373000,0.501373046875,0.0009926559869199991,0.001527163083665073,0.00007635815563844517
1699665526770559000,0.51155908203125,0.0009926559869199991,0.001527163083665073,0.0006872233934700489
1699665526780192000,0.52119189453125,0.0009926559869199991,0.001527163083665073,0.0006872233934700489
1699665526790480000,0.53147998046875,0.0016035212902352214,0.0009162978967651725,0.0006872233934700489
1699665526800710000,0.5417099609375,0.0009926559869199991,0.001527163083665073,0.00007635815563844517
1699665526810535000,0.551534912109375,0.0016035212902352214,0.001527163083665073,0.0012980886967852712
1699665526820796000,0.5617958984375,0.0022143865935504436,0.001527163083665073,0.00007635815563844517
1699665526830422000,0.571422119140625,0.0009926559869199991,0.001527163083665073,-0.0005345070967450738
1699665526840222000,0.581221923828125,0.0009926559869199991,0.001527163083665073,-0.0005345070967450738
1699665526850204000,0.591203857421875,0.0009926559869199991,0.001527163083665073,0.0006872233934700489
1699665526860885000,0.601885009765625,0.0016035212902352214,0.0009162978967651725,-0.0005345070967450738
1699665526870538000,0.6115380859375,0.00038179077091626823,0.0009162978967651725,0.0006872233934700489
1699665526880613000,0.621613037109375,0.0009926559869199991,0.001527163083665073,0.00007635815563844517
1699665526890502000,0.631501953125,0.00038179077091626823,0.0009162978967651725,0.00007635815563844517
1699665526900357000,0.641357177734375,0.0009926559869199991,0.0009162978967651725,0.00007635815563844517
1699665526910417000,0.6514169921875,-0.00022907447419129312,0.002138028386980295,0.0012980886967852712
1699665526920223000,0.661222900390625,0.00038179077091626823,0.0009162978967651725,0.0019089538836851716
1699665526930798000,0.671798095703125,0.0009926559869199991,0.002138028386980295,0.0006872233934700489
1699665526940724000,0.681723876953125,0.0009926559869199991,0.0009162978967651725,0.00007635815563844517
1699665526950681000,0.69168115234375,0.0009926559869199991,0.001527163083665073,-0.0011453722836449742
1699665526960223000,0.701222900390625,0.0009926559869199991,0.0009162978967651725,0.00007635815563844517
1699665526970247000,0.711246826171875,0.0009926559869199991,0.002138028386980295,0.0006872233934700489
1699665526980174000,0.721174072265625,0.0009926559869199991,0.0009162978967651725,0.00007635815563844517
1699665526992199000,0.733198974609375,0.0009926559869199991,0.001527163083665073,0.00007635815563844517
1699665527000385000,0.741385009765625,0.0009926559869199991,0.001527163083665073,0.0006872233934700489
1699665527011190000,0.75218994140625,0.0009926559869199991,0.0003054326225537807,0.00007635815563844517
1699665527020462000,0.761462158203125,0.0009926559869199991,0.0009162978967651725,0.0006872233934700489
1699665527030339000,0.771339111328125,0.0009926559869199991,-0.0003054326225537807,0.0006872233934700489
1699665527040317000,0.78131689453125,0.0009926559869199991,0.001527163083665073,0.0006872233934700489
1699665527050166000,0.791166015625,0.0016035212902352214,0.002138028386980295,0.0006872233934700489
1699665527060225000,0.80122509765625,0.0009926559869199991,0.001527163083665073,0.0012980886967852712
1699665527070234000,0.811234130859375,0.0009926559869199991,0.0009162978967651725,0.0006872233934700489
1699665527080492000,0.821491943359375,0.0009926559869199991,0.0009162978967651725,0.0006872233934700489
1699665527091986000,0.83298583984375,0.00038179077091626823,0.0009162978967651725,0.00007635815563844517
1699665527100814000,0.84181396484375,0.00038179077091626823,0.0009162978967651725,0.00007635815563844517
1699665527110929000,0.851928955078125,-0.00022907447419129312,0.0009162978967651725,0.0006872233934700489
1699665527120209000,0.861208984375,0.00038179077091626823,0.002138028386980295,0.0012980886967852712
1699665527130183000,0.871182861328125,0.0009926559869199991,0.002138028386980295,0.00007635815563844517
1699665527140241000,0.881240966796875,0.00038179077091626823,0.0009162978967651725,0.0012980886967852712
1699665527151046000,0.8920458984375,0.00038179077091626823,0.002138028386980295,0.00007635815563844517
1699665527160898000,0.90189794921875,0.0009926559869199991,0.001527163083665073,0.00007635815563844517
1699665527170891000,0.91189111328125,0.0009926559869199991,0.001527163083665073,0.0006872233934700489
1699665527180535000,0.92153515625,0.0016035212902352214,0.0009162978967651725,0.0006872233934700489
1699665527191282000,0.932281982421875,0.0016035212902352214,0.002138028386980295,0.0006872233934700489
1699665527200306000,0.941305908203125,0.0016035212902352214,0.001527163083665073,0.0006872233934700489
1699665527210406000,0.951406005859375,0.00038179077091626823,0.001527163083665073,0.0006872233934700489
1699665527220303000,0.96130322265625,0.0009926559869199991,0.002138028386980295,0.0006872233934700489
1699665527230548000,0.9715478515625,0.0022143865935504436,0.001527163083665073,0.0006872233934700489
1699665527240749000,0.9817490234375,0.0016035212902352214,0.0009162978967651725,0.0012980886967852712
1699665527250880000,0.9918798828125,0.0016035212902352214,0.0009162978967651725,0.00007635815563844517
1699665527260463000,1.001463134765625,0.0009926559869199991,0.0009162978967651725,0.00007635815563844517
1699665527270551000,1.011551025390625,0.0009926559869199991,0.0003054326225537807,0.00007635815563844517
1699665527280604000,1.02160400390625,0.0009926559869199991,0.0003054326225537807,0.0006872233934700489
1699665527290502000,1.031501953125,0.0009926559869199991,0.0003054326225537807,0.0012980886967852712
1699665527300309000,1.04130908203125,0.00038179077091626823,0.0009162978967651725,0.0006872233934700489
1699665527311056000,1.052055908203125,0.00038179077091626823,0.0009162978967651725,0.0006872233934700489
1699665527320318000,1.06131787109375,0.0016035212902352214,0.0009162978967651725,0.0012980886967852712
1699665527330330000,1.071330078125,0.0009926559869199991,0.0009162978967651725,0.0006872233934700489
1699665527340732000,1.08173193359375,0.00038179077091626823,0.0009162978967651725,0.0006872233934700489
1699665527350778000,1.091778076171875,0.00038179077091626823,0.001527163083665073,0.00007635815563844517
1699665527360809000,1.10180908203125,0.0009926559869199991,0.001527163083665073,-0.0011453722836449742
1699665527370346000,1.111345947265625,0.0009926559869199991,0.002138028386980295,-0.0011453722836449742
1699665527380183000,1.12118310546875,0.0016035212902352214,0.0009162978967651725,0.0006872233934700489
1699665527391245000,1.1322451171875,0.00038179077091626823,0.001527163083665073,0.0012980886967852712
1699665527400358000,1.14135791015625,0.0009926559869199991,0.002138028386980295,0.0012980886967852712
1699665527410400000,1.15139990234375,0.0009926559869199991,0.001527163083665073,0.00007635815563844517
1699665527420287000,1.161286865234375,0.00038179077091626823,0.002138028386980295,0.00007635815563844517
1699665527431144000,1.17214404296875,0.00038179077091626823,0.001527163083665073,0.00007635815563844517
1699665527442612000,1.183612060546875,0.0009926559869199991,0.002138028386980295,0.00007635815563844517
1699665527451023000,1.192023193359375,0.0016035212902352214,0.002138028386980295,0.00007635815563844517
1699665527461553000,1.202552978515625,0.0009926559869199991,0.001527163083665073,0.00007635815563844517
1699665527470390000,1.21139013671875,0.0009926559869199991,0.001527163083665073,-0.0005345070967450738
1699665527480417000,1.2214169921875,0.0009926559869199991,0.0003054326225537807,0.00007635815563844517
1699665527490435000,1.23143505859375,0.0009926559869199991,0.0003054326225537807,0.0012980886967852712
1699665527500452000,1.2414521484375,0.0016035212902352214,0.0009162978967651725,0.0006872233934700489
1699665527517405000,1.258405029296875,0.00038179077091626823,0.0009162978967651725,0.0006872233934700489
1699665527530154000,1.271154052734375,0.00038179077091626823,0.0009162978967651725,0.0006872233934700489
1699665527540319000,1.281319091796875,0.0009926559869199991,0.0009162978967651725,0.0012980886967852712
1699665527550610000,1.29160986328125,0.0009926559869199991,0.0009162978967651725,0.0019089538836851716
1699665527560723000,1.301722900390625,0.0009926559869199991,0.0009162978967651725,0.0006872233934700489
1699665527570643000,1.311642822265625,0.0009926559869199991,0.0009162978967651725,0.00007635815563844517
1699665527580376000,1.3213759765625,0.0022143865935504436,0.001527163083665073,0.00007635815563844517
1699665527590928000,1.331927978515625,0.0016035212902352214,0.0009162978967651725,0.00007635815563844517
1699665527600285000,1.341284912109375,0.0022143865935504436,0.0009162978967651725,0.0006872233934700489
1699665527610293000,1.35129296875,0.00038179077091626823,0.0009162978967651725,0.0006872233934700489
1699665527620292000,1.3612919921875,0.0009926559869199991,0.0009162978967651725,0.0012980886967852712
1699665527630295000,1.371294921875,0.00038179077091626823,0.002138028386980295,0.0006872233934700489
1699665527640434000,1.381433837890625,0.0009926559869199991,0.001527163083665073,0.00007635815563844517
1699665527650528000,1.391528076171875,0.0009926559869199991,0.002138028386980295,0.00007635815563844517
1699665527660437000,1.40143701171875,0.0009926559869199991,0.001527163083665073,0.0006872233934700489
1699665527670528000,1.411528076171875,0.0022143865935504436,0.0009162978967651725,0.0006872233934700489
1699665527680897000,1.42189697265625,0.0022143865935504436,0.0009162978967651725,0.0006872233934700489
1699665527690747000,1.431746826171875,0.0016035212902352214,0.001527163083665073,0.00007635815563844517
1699665527700865000,1.441864990234375,0.0009926559869199991,0.0009162978967651725,0.0006872233934700489
1699665527710961000,1.4519609375,0.0009926559869199991,0.001527163083665073,0.0006872233934700489
1699665527720415000,1.4614150390625,0.00038179077091626823,0.001527163083665073,0.0006872233934700489
1699665527731207000,1.47220703125,0.0009926559869199991,0.001527163083665073,0.0006872233934700489
1699665527741255000,1.4822548828125,0.0016035212902352214,0.002138028386980295,0.0012980886967852712
1699665527751841000,1.492841064453125,0.0009926559869199991,0.0009162978967651725,0.0012980886967852712
1699665527760547000,1.501547119140625,0.0009926559869199991,0.001527163083665073,0.0019089538836851716
1699665527770499000,1.5114990234375,0.0009926559869199991,0.0003054326225537807,0.0012980886967852712
1699665527780267000,1.52126708984375,0.0009926559869199991,0.0009162978967651725,0.0006872233934700489
1699665527791011000,1.532010986328125,0.0009926559869199991,0.001527163083665073,0.0006872233934700489
1699665527800880000,1.541880126953125,0.0016035212902352214,0.001527163083665073,0.0006872233934700489
1699665527810572000,1.551572021484375,0.0009926559869199991,0.0009162978967651725,0.0012980886967852712
1699665527820764000,1.561763916015625,0.0009926559869199991,0.001527163083665073,0.0006872233934700489
1699665527830587000,1.5715869140625,0.0016035212902352214,0.001527163083665073,0.00007635815563844517
1699665527840577000,1.581576904296875,0.0022143865935504436,0.001527163083665073,0.0006872233934700489
1699665527850591000,1.591591064453125,0.0016035212902352214,0.001527163083665073,0.0006872233934700489
1699665527860566000,1.60156591796875,0.00038179077091626823,0.0009162978967651725,0.0006872233934700489
1699665527870596000,1.61159619140625,0.0009926559869199991,0.001527163083665073,0.0006872233934700489
1699665527880569000,1.621569091796875,0.0009926559869199991,0.002138028386980295,0.00007635815563844517
1699665527890825000,1.631824951171875,0.00038179077091626823,0.001527163083665073,-0.0005345070967450738
1699665527900560000,1.641559814453125,0.0009926559869199991,0.001527163083665073,0.00007635815563844517
1699665527910600000,1.651599853515625,0.0016035212902352214,0.001527163083665073,0.0006872233934700489
1699665527920572000,1.661572021484375,0.0009926559869199991,0.0009162978967651725,0.0012980886967852712
1699665527930613000,1.671613037109375,0.0009926559869199991,0.0009162978967651725,0.0012980886967852712
1699665527940552000,1.681552001953125,0.0009926559869199991,0.001527163083665073,0.00007635815563844517
1699665527950623000,1.691623046875,0.0009926559869199991,0.001527163083665073,0.0006872233934700489
1699665527960476000,1.701475830078125,0.0009926559869199991,0.001527163083665073,0.0012980886967852712
1699665527970590000,1.71158984375,0.0009162978967651725,0.00022907447419129312,-0.0006872233934700489
1699665527980579000,1.7215791015625,0.0003054326225537807,0.00022907447419129312,0.0005345070967450738
1699665527990711000,1.7317109375,0.0003054326225537807,-0.00038179077091626823,-0.00007635815563844517
1699665528000543000,1.74154296875,0.0003054326225537807,0.00022907447419129312,0.0005345070967450738
1699665528010542000,1.7515419921875,0.0003054326225537807,0.00022907447419129312,-0.0006872233934700489
1699665528020583000,1.7615830078125,0.001527163083665073,0.000839939690195024,-0.0006872233934700489
1699665528030561000,1.77156103515625,0.0003054326225537807,-0.00038179077091626823,0.0005345070967450738
1699665528040489000,1.781489013671875,-0.0003054326225537807,0.00022907447419129312,-0.00007635815563844517
1699665528050526000,1.79152587890625,-0.0003054326225537807,-0.00038179077091626823,-0.00007635815563844517
1699665528060527000,1.801527099609375,0.0003054326225537807,0.000839939690195024,-0.00007635815563844517
1699665528070524000,1.81152392578125,0.0003054326225537807,-0.00038179077091626823,0.0005345070967450738
1699665528080535000,1.82153515625,0.0003054326225537807,0.00022907447419129312,0.0005345070967450738
1699665528090529000,1.831529052734375,0.0003054326225537807,0.00022907447419129312,-0.00007635815563844517
1699665528100550000,1.8415498046875,0.0009162978967651725,0.00022907447419129312,-0.0006872233934700489
1699665528110397000,1.85139697265625,0.0009162978967651725,0.00022907447419129312,-0.00007635815563844517
1699665528120918000,1.86191796875,0.0009162978967651725,-0.00038179077091626823,-0.00007635815563844517
1699665528131352000,1.87235205078125,0.0003054326225537807,0.000839939690195024,-0.0006872233934700489
1699665528140513000,1.881512939453125,0.0009162978967651725,0.000839939690195024,-0.0012980886967852712
1699665528150597000,1.89159716796875,0.0003054326225537807,-0.00038179077091626823,-0.0006872233934700489
1699665528160676000,1.901676025390625,0.0009162978967651725,0.00022907447419129312,-0.00007635815563844517
1699665528170458000,1.9114580078125,0.0009162978967651725,-0.00038179077091626823,0.0005345070967450738
1699665528180937000,1.92193701171875,0.001527163083665073,0.00022907447419129312,-0.00007635815563844517
1699665528190598000,1.931597900390625,-0.0003054326225537807,0.00022907447419129312,-0.0006872233934700489
1699665528200415000,1.9414150390625,0.0003054326225537807,0.00022907447419129312,-0.0006872233934700489
1699665528210209000,1.951208984375,0.0003054326225537807,-0.00038179077091626823,0.0005345070967450738
1699665528220493000,1.9614931640625,0.0003054326225537807,-0.00038179077091626823,0.0005345070967450738
1699665528230353000,1.971352783203125,0.0009162978967651725,0.00022907447419129312,-0.00007635815563844517
1699665528240813000,1.98181298828125,0.0003054326225537807,0.000839939690195024,-0.00007635815563844517
1699665528250239000,1.991239013671875,0.0003054326225537807,0.000839939690195024,-0.00007635815563844517
1699665528260852000,2.00185205078125,0.0003054326225537807,0.00022907447419129312,0.0005345070967450738
1699665528270378000,2.0113779296875,0.0003054326225537807,0.00022907447419129312,-0.00007635815563844517
1699665528280947000,2.021947021484375,0.0003054326225537807,0.00022907447419129312,-0.00007635815563844517
1699665528290351000,2.03135107421875,0.0003054326225537807,0.000839939690195024,-0.00007635815563844517
1699665528301467000,2.042466796875,0.0003054326225537807,0.00022907447419129312,0.0005345070967450738
1699665528311409000,2.052408935546875,0.0009162978967651725,-0.00038179077091626823,-0.00007635815563844517
1699665528320889000,2.06188916015625,-0.0003054326225537807,-0.0009926559869199991,-0.0006872233934700489
1699665528331546000,2.072546142578125,0.0003054326225537807,-0.00038179077091626823,-0.00007635815563844517
1699665528340977000,2.081976806640625,-0.0003054326225537807,-0.00038179077091626823,-0.00007635815563844517
1699665528351004000,2.09200390625,0.0003054326225537807,0.00022907447419129312,-0.00007635815563844517
1699665528360882000,2.1018818359375,0.0003054326225537807,-0.00038179077091626823,-0.00007635815563844517
1699665528371356000,2.11235595703125,0.0003054326225537807,0.00022907447419129312,-0.0006872233934700489
1699665528381758000,2.122758056640625,0.0003054326225537807,-0.00038179077091626823,-0.00007635815563844517
1699665528391741000,2.132740966796875,0.0009162978967651725,0.000839939690195024,0.0005345070967450738
1699665528401418000,2.14241796875,0.0003054326225537807,-0.00038179077091626823,-0.0006872233934700489
1699665528411754000,2.15275390625,0.0003054326225537807,-0.00038179077091626823,-0.0006872233934700489
1699665528420843000,2.161843017578125,0.0003054326225537807,0.00022907447419129312,-0.0006872233934700489
1699665528430699000,2.171698974609375,0.0009162978967651725,0.00022907447419129312,-0.0006872233934700489
1699665528440816000,2.181816162109375,0.0003054326225537807,-0.00038179077091626823,-0.00007635815563844517
1699665528450726000,2.191725830078125,0.0009162978967651725,0.00022907447419129312,-0.0006872233934700489
1699665528461498000,2.202498046875,0.0003054326225537807,0.00022907447419129312,-0.00007635815563844517
1699665528472084000,2.213083984375,0.0003054326225537807,-0.00038179077091626823,0.0005345070967450738
1699665528482676000,2.223676025390625,0.0003054326225537807,-0.00038179077091626823,0.0005345070967450738
1699665528491299000,2.232299072265625,0.0003054326225537807,0.00022907447419129312,-0.00007635815563844517
1699665528501184000,2.24218408203125,0.0003054326225537807,0.00022907447419129312,0.0005345070967450738
1699665528511869000,2.252868896484375,0.0009162978967651725,0.00022907447419129312,-0.00007635815563844517
1699665528520544000,2.2615439453125,0.001527163083665073,0.00022907447419129312,0.0005345070967450738
1699665528530377000,2.271376953125,0.0003054326225537807,-0.00038179077091626823,0.0005345070967450738
1699665528540587000,2.2815869140625,0.0003054326225537807,0.00022907447419129312,-0.00007635815563844517
1699665528550490000,2.291489990234375,0.0009162978967651725,0.00022907447419129312,-0.0006872233934700489
1699665528560841000,2.301841064453125,0.0003054326225537807,0.00022907447419129312,-0.00007635815563844517
1699665528570432000,2.311431884765625,0.0003054326225537807,0.00022907447419129312,0.0005345070967450738
1699665528587382000,2.328382080078125,0.0003054326225537807,0.00022907447419129312,-0.00007635815563844517
1699665528601412000,2.342412109375,0.0009162978967651725,0.000839939690195024,-0.00007635815563844517
1699665528610252000,2.351251953125,0.0009162978967651725,-0.00038179077091626823,-0.0006872233934700489
1699665528620250000,2.36125,0.0003054326225537807,0.00022907447419129312,-0.0012980886967852712
1699665528630227000,2.37122705078125,0.0003054326225537807,0.00022907447419129312,-0.0006872233934700489
1699665528640237000,2.381237060546875,0.0003054326225537807,0.00022907447419129312,-0.0006872233934700489
1699665528650207000,2.39120703125,0.0009162978967651725,0.00022907447419129312,-0.00007635815563844517
1699665528661444000,2.402444091796875,0.0003054326225537807,-0.00038179077091626823,-0.00007635815563844517
1699665528670339000,2.411339111328125,0.0009162978967651725,-0.00038179077091626823,0.0005345070967450738
1699665528683383000,2.424383056640625,0.0003054326225537807,0.00022907447419129312,-0.00007635815563844517
1699665528700236000,2.441236083984375,0.0003054326225537807,0.00022907447419129312,0.0005345070967450738
1699665528711087000,2.452087158203125,-0.0003054326225537807,-0.00038179077091626823,0.0005345070967450738
1699665528720345000,2.461344970703125,0.0009162978967651725,-0.00038179077091626823,-0.00007635815563844517
1699665528730926000,2.471926025390625,0.0009162978967651725,-0.00038179077091626823,-0.0006872233934700489
1699665528740720000,2.48172021484375,0.0003054326225537807,-0.00038179077091626823,0.0005345070967450738
1699665528750228000,2.49122802734375,-0.0003054326225537807,0.00022907447419129312,-0.00007635815563844517
1699665528760222000,2.501221923828125,0.0003054326225537807,-0.00038179077091626823,-0.0006872233934700489
1699665528770252000,2.511251953125,-0.0003054326225537807,0.00022907447419129312,-0.0006872233934700489
1699665528780423000,2.5214228515625,0.0003054326225537807,-0.00038179077091626823,-0.0006872233934700489
1699665528791922000,2.532921875,0.0009162978967651725,0.00022907447419129312,-0.00007635815563844517
1699665528800266000,2.541265869140625,0.0009162978967651725,0.00022907447419129312,-0.00007635815563844517
1699665528810357000,2.55135693359375,0.0009162978967651725,0.00022907447419129312,-0.0006872233934700489
1699665528820495000,2.5614951171875,0.0009162978967651725,-0.00038179077091626823,-0.0012980886967852712
1699665528830970000,2.57197021484375,0.0009162978967651725,0.00022907447419129312,-0.0006872233934700489
1699665528842764000,2.583763916015625,0.0003054326225537807,0.00022907447419129312,-0.00007635815563844517
1699665528860512000,2.601511962890625,0.0003054326225537807,0.00022907447419129312,-0.0006872233934700489
1699665528870923000,2.611923095703125,0.0003054326225537807,-0.00038179077091626823,-0.00007635815563844517
1699665528880229000,2.62122900390625,0.0003054326225537807,-0.00038179077091626823,-0.00007635815563844517
1699665528890564000,2.631564208984375,0.0009162978967651725,-0.00038179077091626823,-0.00007635815563844517
1699665528900370000,2.641369873046875,0.0003054326225537807,0.00022907447419129312,-0.00007635815563844517
1699665528910239000,2.651239013671875,0.0003054326225537807,-0.00038179077091626823,0.0005345070967450738
1699665528920303000,2.66130322265625,-0.0003054326225537807,0.00022907447419129312,-0.00007635815563844517
1699665528935668000,2.67666796875,-0.0003054326225537807,0.000839939690195024,-0.0006872233934700489
1699665528950395000,2.691394775390625,0.0009162978967651725,-0.00038179077091626823,-0.00007635815563844517
1699665528960237000,2.701237060546875,0.0003054326225537807,-0.00038179077091626823,-0.0006872233934700489
1699665528971940000,2.712940185546875,-0.0003054326225537807,-0.00038179077091626823,0.0011453722836449742
1699665528980309000,2.72130908203125,0.0003054326225537807,0.00022907447419129312,0.0005345070967450738
1699665528990433000,2.73143310546875,-0.0009162978967651725,0.00022907447419129312,-0.00007635815563844517
1699665529000364000,2.741364013671875,-0.0003054326225537807,0.00022907447419129312,0.0005345070967450738
1699665529010335000,2.7513349609375,0.0003054326225537807,-0.0009926559869199991,-0.00007635815563844517
1699665529020258000,2.761258056640625,0.00022907447419129312,-0.00038179077091626823,-0.00007635815563844517
1699665529030780000,2.77177978515625,-0.00038179077091626823,0.00022907447419129312,-0.0006872233934700489
1699665529040576000,2.781575927734375,-0.00038179077091626823,0.00022907447419129312,-0.0006872233934700489
1699665529050754000,2.791754150390625,0.00022907447419129312,-0.00038179077091626823,-0.0006872233934700489
1699665529060331000,2.8013310546875,0.000839939690195024,0.00022907447419129312,-0.00007635815563844517
1699665529070526000,2.81152587890625,0.000839939690195024,0.000839939690195024,-0.00007635815563844517
1699665529080445000,2.82144482421875,0.00022907447419129312,-0.00038179077091626823,-0.00007635815563844517
1699665529090163000,2.831162841796875,0.00022907447419129312,-0.00038179077091626823,-0.00007635815563844517
1699665529100622000,2.8416220703125,0.00022907447419129312,-0.00038179077091626823,0.0005345070967450738
1699665529110188000,2.85118798828125,0.00022907447419129312,-0.00038179077091626823,-0.00007635815563844517
1699665529120251000,2.8612509765625,0.00022907447419129312,0.00022907447419129312,-0.00007635815563844517
1699665529130389000,2.871388916015625,0.00022907447419129312,0.00022907447419129312,-0.00007635815563844517
1699665529140244000,2.881243896484375,0.00022907447419129312,0.00022907447419129312,-0.00007635815563844517
1699665529150368000,2.891367919921875,0.00022907447419129312,0.00022907447419129312,-0.00007635815563844517
1699665529259181600,3.000181640625,0.00022907447419129312,-0.00038179077091626823,-0.0012980886967852712
1699665529320468700,3.06146875,0.00022907447419129312,-0.00038179077091626823,-0.00007635815563844517
1699665529359476000,3.10047607421875,0.00022907447419129312,-0.00038179077091626823,0.0011453722836449742
1699665529387423500,3.128423583984375,0.00022907447419129312,-0.00038179077091626823,-0.00007635815563844517
1699665529409756200,3.150756103515625,0.00022907447419129312,0.00022907447419129312,-0.00007635815563844517
1699665529429274000,3.170274169921875,-0.00038179077091626823,0.000839939690195024,-0.00007635815563844517
1699665529449534000,3.190533935546875,-0.0009926559869199991,-0.00038179077091626823,-0.00007635815563844517
1699665529461845500,3.202845458984375,-0.0009926559869199991,-0.00038179077091626823,-0.00007635815563844517
1699665529473163300,3.214163330078125,-0.00038179077091626823,-0.00038179077091626823,-0.0006872233934700489
1699665529485590000,3.226590087890625,-0.00038179077091626823,-0.00038179077091626823,-0.0006872233934700489
1699665529493755000,3.2347548828125,0.00022907447419129312,-0.00038179077091626823,0.0005345070967450738
1699665529504454400,3.245454345703125,0.000839939690195024,0.00022907447419129312,0.0005345070967450738
1699665529516350000,3.257349853515625,0.000839939690195024,-0.00038179077091626823,0.0005345070967450738
1699665529526767000,3.26776708984375,0.00022907447419129312,-0.00038179077091626823,-0.00007635815563844517
1699665529541844000,3.282843994140625,0.00022907447419129312,0.00022907447419129312,-0.0006872233934700489
1699665529562886400,3.303886474609375,0.00022907447419129312,-0.00038179077091626823,-0.0006872233934700489
1699665529573605400,3.31460546875,0.00022907447419129312,0.000839939690195024,-0.00007635815563844517
1699665529586923000,3.327923095703125,0.00022907447419129312,0.00022907447419129312,0.0005345070967450738
1699665529601760000,3.342760009765625,0.00022907447419129312,0.00022907447419129312,0.0005345070967450738
1699665529610704000,3.351703857421875,0.00022907447419129312,0.00022907447419129312,0.0005345070967450738
1699665529620232000,3.36123193359375,-0.00038179077091626823,0.00022907447419129312,0.0005345070967450738
1699665529630172000,3.371171875,-0.00038179077091626823,0.00022907447419129312,0.0005345070967450738
1699665529642187000,3.38318701171875,-0.00038179077091626823,0.000839939690195024,-0.00007635815563844517
1699665529659307000,3.40030712890625,0.00022907447419129312,0.00022907447419129312,0.0005345070967450738
1699665529675615000,3.416614990234375,0.000839939690195024,0.00022907447419129312,-0.00007635815563844517
1699665529690902000,3.431902099609375,0.00022907447419129312,-0.00038179077091626823,0.0005345070967450738
1699665529700993000,3.441992919921875,0.00022907447419129312,-0.00038179077091626823,-0.00007635815563844517
1699665529711937000,3.45293701171875,0.00022907447419129312,0.00022907447419129312,0.0005345070967450738
1699665529720712000,3.4617119140625,0.00022907447419129312,0.00022907447419129312,0.0005345070967450738
1699665529730249000,3.4712490234375,-0.00038179077091626823,0.00022907447419129312,-0.00007635815563844517
1699665529742358000,3.48335791015625,0.000839939690195024,0.00022907447419129312,-0.0006872233934700489
1699665529752031000,3.493031005859375,-0.00038179077091626823,0.00022907447419129312,-0.0006872233934700489
1699665529763354000,3.50435400390625,-0.00038179077091626823,0.00022907447419129312,-0.0006872233934700489
1699665529780426000,3.521426025390625,0.00022907447419129312,0.00022907447419129312,-0.0006872233934700489
1699665529790246000,3.531245849609375,0.00022907447419129312,0.00022907447419129312,-0.00007635815563844517
1699665529800515000,3.54151513671875,0.00022907447419129312,0.00022907447419129312,-0.0006872233934700489
1699665529810452000,3.551451904296875,-0.00038179077091626823,0.00022907447419129312,-0.00007635815563844517
1699665529820198000,3.561197998046875,-0.00038179077091626823,0.00022907447419129312,-0.00007635815563844517
1699665529830405000,3.571405029296875,0.00022907447419129312,0.00022907447419129312,-0.00007635815563844517
1699665529840272000,3.58127197265625,0.00022907447419129312,-0.00038179077091626823,-0.0006872233934700489
1699665529850447000,3.591447021484375,0.00022907447419129312,0.00022907447419129312,-0.00007635815563844517
1699665529860808000,3.601807861328125,0.00022907447419129312,0.00022907447419129312,0.0005345070967450738
1699665529870439000,3.61143896484375,0.000839939690195024,0.00022907447419129312,-0.00007635815563844517
1699665529880882000,3.6218818359375,0.00022907447419129312,-0.00038179077091626823,-0.0006872233934700489
1699665529890222000,3.63122216796875,0.000839939690195024,-0.00038179077091626823,0.0005345070967450738
1699665529900511000,3.641510986328125,0.000839939690195024,-0.0009926559869199991,-0.0006872233934700489
1699665529910352000,3.651351806640625,0.00022907447419129312,0.00022907447419129312,-0.0006872233934700489
1699665529920417000,3.6614169921875,0.0014508049935102463,-0.00038179077091626823,-0.00007635815563844517
1699665529930468000,3.671468017578125,0.000839939690195024,0.00022907447419129312,-0.00007635815563844517
1699665529940465000,3.68146484375,0.00022907447419129312,-0.00038179077091626823,-0.0006872233934700489
1699665529950366000,3.691365966796875,0.00022907447419129312,0.00022907447419129312,-0.00007635815563844517
1699665529960336000,3.7013359375,-0.00038179077091626823,0.00022907447419129312,-0.00007635815563844517
1699665529970335000,3.7113349609375,0.00022907447419129312,-0.00038179077091626823,-0.0006872233934700489
1699665529980220000,3.721219970703125,0.00022907447419129312,-0.00038179077091626823,-0.0006872233934700489
1699665529990151000,3.73115087890625,-0.00038179077091626823,-0.00038179077091626823,-0.0006872233934700489
1699665530000205000,3.741205078125,-0.00038179077091626823,-0.00038179077091626823,-0.00007635815563844517
1699665530010210000,3.7512099609375,0.00022907447419129312,0.00022907447419129312,0.0005345070967450738
1699665530020213000,3.761212890625,0.000839939690195024,0.00022907447419129312,-0.0006872233934700489
1699665530030563000,3.77156298828125,0.00022907447419129312,0.00022907447419129312,-0.00007635815563844517
1699665530040378000,3.781378173828125,0.000839939690195024,0.00022907447419129312,-0.00007635815563844517
1699665530050296000,3.791296142578125,0.00022907447419129312,-0.00038179077091626823,0.0005345070967450738
1699665530060153000,3.801153076171875,0.000839939690195024,0.00022907447419129312,-0.00007635815563844517
1699665530070144000,3.81114404296875,0.00022907447419129312,-0.00038179077091626823,-0.0006872233934700489
1699665530080317000,3.82131689453125,0.00022907447419129312,-0.00038179077091626823,-0.0006872233934700489
1699665530090124000,3.8311240234375,0.00022907447419129312,0.00022907447419129312,-0.00007635815563844517
1699665530100251000,3.8412509765625,0.000839939690195024,0.00022907447419129312,-0.0006872233934700489
1699665530111361000,3.852361083984375,0.00022907447419129312,0.00022907447419129312,-0.00007635815563844517
1699665530120503000,3.8615029296875,-0.00038179077091626823,0.00022907447419129312,-0.00007635815563844517
1699665530130420000,3.871419921875,0.00022907447419129312,-0.00038179077091626823,-0.00007635815563844517
1699665530140283000,3.881282958984375,-0.00038179077091626823,-0.0009926559869199991,0.0005345070967450738
1699665530150475000,3.89147509765625,-0.00038179077091626823,0.00022907447419129312,-0.00007635815563844517
1699665530160496000,3.90149609375,0.00022907447419129312,0.00022907447419129312,-0.00007635815563844517
1699665530170223000,3.91122314453125,0.00022907447419129312,0.00022907447419129312,-0.00007635815563844517
1699665530180505000,3.921505126953125,0.000839939690195024,0.00022907447419129312,0.0005345070967450738
1699665530190562000,3.93156201171875,0.00022907447419129312,-0.00038179077091626823,-0.0006872233934700489
1699665530200402000,3.94140185546875,0.00022907447419129312,-0.00038179077091626823,-0.0006872233934700489
1699665530210533000,3.951533203125,-0.00038179077091626823,-0.00038179077091626823,-0.0006872233934700489
1699665530221078000,3.962078125,-0.00038179077091626823,0.00022907447419129312,-0.00007635815563844517
1699665530230688000,3.97168798828125,0.00022907447419129312,-0.00038179077091626823,0.0005345070967450738
1699665530240497000,3.981496826171875,0.00022907447419129312,-0.00038179077091626823,-0.00007635815563844517
1699665530250530000,3.991530029296875,-0.00038179077091626823,0.00022907447419129312,-0.00007635815563844517
1699665530260531000,4.001531005859375,-0.00038179077091626823,-0.00038179077091626823,-0.00007635815563844517
1699665530270237000,4.01123681640625,0.00022907447419129312,-0.00038179077091626823,-0.0006872233934700489
1699665530280512000,4.021511962890625,0.000839939690195024,0.00022907447419129312,-0.0006872233934700489
1699665530290501000,4.031501220703125,0.000839939690195024,0.00022907447419129312,-0.0006872233934700489
1699665530300490000,4.041489990234375,0.00022907447419129312,0.00022907447419129312,-0.0006872233934700489
1699665530310516000,4.051515869140625,0.00022907447419129312,-0.00038179077091626823,-0.00007635815563844517
1699665530320490000,4.061489990234375,0.00022907447419129312,-0.00038179077091626823,-0.00007635815563844517
1699665530330213000,4.071213134765625,-0.00022907447419129312,0.0003054326225537807,-0.00015271631127689034
1699665530340513000,4.081512939453125,0.00038179077091626823,-0.0003054326225537807,0.00045814894838258624
1699665530350545000,4.091544921875,0.0009926559869199991,-0.0003054326225537807,0.0010690141934901476
1699665530360514000,4.10151416015625,0.00038179077091626823,-0.0009162978967651725,0.0010690141934901476
1699665530370520000,4.11152001953125,-0.00022907447419129312,-0.0003054326225537807,0.00045814894838258624
1699665530380490000,4.121489990234375,0.00038179077091626823,0.0003054326225537807,0.00045814894838258624
1699665530390646000,4.13164599609375,0.0009926559869199991,-0.0003054326225537807,0.00045814894838258624
1699665530400506000,4.141506103515625,0.0009926559869199991,-0.0003054326225537807,-0.00015271631127689034
1699665530410368000,4.151367919921875,0.00038179077091626823,0.0009162978967651725,-0.00015271631127689034
1699665530420354000,4.16135400390625,0.00038179077091626823,0.0003054326225537807,-0.0007635815418325365
1699665530430529000,4.171529052734375,0.0009926559869199991,-0.0003054326225537807,-0.00015271631127689034
1699665530440524000,4.18152392578125,0.00038179077091626823,0.0003054326225537807,-0.00015271631127689034
1699665530450230000,4.19122998046875,0.00038179077091626823,0.0003054326225537807,-0.00015271631127689034
1699665530460243000,4.201242919921875,-0.00022907447419129312,-0.0003054326225537807,-0.00015271631127689034
1699665530470751000,4.2117509765625,-0.000839939690195024,0.0003054326225537807,-0.00015271631127689034
1699665530480524000,4.22152392578125,0.0009926559869199991,0.0003054326225537807,0.00045814894838258624
1699665530490556000,4.231555908203125,0.0009926559869199991,-0.0003054326225537807,-0.00015271631127689034
1699665530500528000,4.241528076171875,0.0009926559869199991,-0.0003054326225537807,-0.00015271631127689034
1699665530510880000,4.2518798828125,0.00038179077091626823,0.0003054326225537807,-0.00015271631127689034
1699665530520293000,4.261293212890625,0.00038179077091626823,0.0003054326225537807,-0.0007635815418325365
1699665530530369000,4.271369140625,-0.00022907447419129312,-0.0009162978967651725,0.00045814894838258624
1699665530540275000,4.28127490234375,0.0009926559869199991,-0.0003054326225537807,-0.00015271631127689034
1699665530550464000,4.291464111328125,0.00038179077091626823,-0.0003054326225537807,0.00045814894838258624
1699665530560499000,4.3014990234375,0.00038179077091626823,-0.0003054326225537807,-0.00015271631127689034
1699665530570671000,4.311671142578125,-0.00022907447419129312,-0.0003054326225537807,-0.00015271631127689034
1699665530580279000,4.321279052734375,-0.00022907447419129312,0.0003054326225537807,-0.00015271631127689034
1699665530590246000,4.331245849609375,-0.00022907447419129312,0.0003054326225537807,-0.0007635815418325365
1699665530600508000,4.3415078125,-0.00022907447419129312,0.0009162978967651725,-0.0007635815418325365
1699665530610429000,4.351428955078125,0.00038179077091626823,-0.0003054326225537807,0.0010690141934901476
1699665530620615000,4.361614990234375,0.0009926559869199991,-0.0003054326225537807,-0.00015271631127689034
1699665530630553000,4.371552978515625,0.0009926559869199991,-0.0003054326225537807,-0.00015271631127689034
1699665530640601000,4.38160107421875,0.0009926559869199991,-0.0003054326225537807,0.00045814894838258624
1699665530650644000,4.39164404296875,0.00038179077091626823,0.0003054326225537807,0.0010690141934901476
1699665530663626000,4.4046259765625,0.00038179077091626823,0.0003054326225537807,-0.00015271631127689034
1699665530680309000,4.42130908203125,0.00038179077091626823,0.0009162978967651725,-0.0007635815418325365
1699665530690335000,4.4313349609375,-0.00022907447419129312,0.0003054326225537807,0.00045814894838258624
1699665530700395000,4.44139501953125,-0.00022907447419129312,0.0009162978967651725,-0.0007635815418325365
1699665530711301000,4.452301025390625,0.00038179077091626823,0.0003054326225537807,-0.0007635815418325365
1699665530720560000,4.46156005859375,0.00038179077091626823,-0.0003054326225537807,-0.0007635815418325365
1699665530730184000,4.471183837890625,0.00038179077091626823,0.0003054326225537807,0.00045814894838258624
1699665530740402000,4.48140185546875,0.00038179077091626823,0.0003054326225537807,0.00045814894838258624
1699665530750227000,4.49122705078125,0.0009926559869199991,-0.0003054326225537807,-0.00015271631127689034
1699665530760238000,4.501238037109375,0.0009926559869199991,0.0009162978967651725,0.00045814894838258624
1699665530770501000,4.511501220703125,0.00038179077091626823,0.0009162978967651725,-0.00015271631127689034
1699665530780490000,4.521489990234375,0.00038179077091626823,0.002138028386980295,-0.00015271631127689034
1699665530790452000,4.531451904296875,0.00038179077091626823,0.0003054326225537807,-0.00015271631127689034
1699665530800470000,4.541469970703125,0.0009926559869199991,0.0009162978967651725,0.00045814894838258624
1699665530810231000,4.55123095703125,0.00038179077091626823,0.0009162978967651725,-0.00015271631127689034
1699665530820476000,4.561475830078125,0.0009926559869199991,0.0003054326225537807,0.00045814894838258624
1699665530830169000,4.571169189453125,0.00038179077091626823,0.0003054326225537807,0.00045814894838258624
1699665530840452000,4.5814521484375,0.0016035212902352214,-0.0009162978967651725,0.00045814894838258624
1699665530850149000,4.591149169921875,0.0016035212902352214,-0.0009162978967651725,-0.00015271631127689034
1699665530860431000,4.60143115234375,0.00038179077091626823,-0.0009162978967651725,0.00045814894838258624
1699665530870874000,4.6118740234375,0.00038179077091626823,-0.0009162978967651725,-0.00015271631127689034
1699665530880441000,4.621441162109375,-0.00022907447419129312,-0.0009162978967651725,0.0010690141934901476
1699665530890773000,4.63177294921875,-0.00022907447419129312,-0.0009162978967651725,0.00045814894838258624
1699665530900439000,4.64143896484375,-0.00022907447419129312,-0.0009162978967651725,-0.00015271631127689034
1699665530910568000,4.65156787109375,-0.00022907447419129312,-0.0003054326225537807,-0.0007635815418325365
1699665530920647000,4.66164697265625,-0.000839939690195024,-0.0003054326225537807,-0.00015271631127689034
1699665530930157000,4.671156982421875,-0.0014508049935102463,0.0003054326225537807,-0.0007635815418325365
1699665530940428000,4.681427978515625,-0.000839939690195024,-0.0003054326225537807,-0.00015271631127689034
1699665530950210000,4.6912099609375,-0.0014508049935102463,0.002138028386980295,-0.00015271631127689034
1699665530960396000,4.70139599609375,-0.000839939690195024,0.0027488935738801956,-0.0019853119738399982
1699665530970520000,4.71152001953125,-0.00022907447419129312,0.0027488935738801956,-0.0019853119738399982
1699665530980499000,4.7214990234375,0.0009926559869199991,0.002138028386980295,-0.0019853119738399982
1699665530990462000,4.7314619140625,0.0022143865935504436,0.0009162978967651725,-0.0013744467869400978
1699665531000529000,4.74152880859375,0.0022143865935504436,-0.0003054326225537807,-0.0007635815418325365
1699665531010337000,4.7513369140625,0.002825251780450344,-0.0003054326225537807,-0.00015271631127689034
1699665531020938000,4.76193798828125,0.0009926559869199991,-0.001527163083665073,-0.0013744467869400978
1699665531030366000,4.771365966796875,0.0009926559869199991,-0.001527163083665073,-0.0013744467869400978
1699665531040306000,4.781305908203125,0.0009926559869199991,-0.002138028386980295,-0.0007635815418325365
1699665531050348000,4.79134814453125,0.00038179077091626823,-0.002138028386980295,-0.0007635815418325365
1699665531060131000,4.801131103515625,0.00038179077091626823,-0.0027488935738801956,-0.0007635815418325365
1699665531070362000,4.811362060546875,-0.00022907447419129312,-0.002138028386980295,-0.0007635815418325365
1699665531080471000,4.821470947265625,-0.00022907447419129312,-0.0003054326225537807,-0.00015271631127689034
1699665531090457000,4.83145703125,-0.000839939690195024,-0.0009162978967651725,-0.00015271631127689034
1699665531100458000,4.8414580078125,-0.000839939690195024,0.0003054326225537807,-0.00015271631127689034
1699665531110653000,4.85165283203125,-0.00022907447419129312,0.0003054326225537807,-0.00015271631127689034
1699665531120723000,4.861722900390625,0.00038179077091626823,0.0009162978967651725,0.00045814894838258624
1699665531130625000,4.871625,0.00038179077091626823,0.0009162978967651725,-0.00015271631127689034
1699665531140811000,4.88181103515625,0.00038179077091626823,0.0009162978967651725,-0.00015271631127689034
1699665531151728000,4.89272802734375,0.0016035212902352214,0.0009162978967651725,-0.00015271631127689034
1699665531162233000,4.903233154296875,0.0009926559869199991,0.0009162978967651725,0.0010690141934901476
1699665531171953000,4.912952880859375,0.0009926559869199991,0.0009162978967651725,0.00045814894838258624
1699665531181586000,4.9225859375,0.0009926559869199991,0.0003054326225537807,0.0010690141934901476
1699665531191614000,4.932614013671875,0.00038179077091626823,0.0003054326225537807,-0.0007635815418325365
1699665531200723000,4.941722900390625,-0.00022907447419129312,0.0003054326225537807,-0.00015271631127689034
1699665531210791000,4.951791015625,-0.00022907447419129312,0.0003054326225537807,-0.0007635815418325365
1699665531221595000,4.962594970703125,0.00038179077091626823,-0.0003054326225537807,-0.00015271631127689034
1699665531231484000,4.97248388671875,-0.000839939690195024,-0.0003054326225537807,-0.0007635815418325365
1699665531241511000,4.982510986328125,-0.00022907447419129312,-0.0003054326225537807,-0.0007635815418325365
1699665531251547000,4.992546875,-0.00022907447419129312,-0.0003054326225537807,-0.0007635815418325365
1699665531261458000,5.0024580078125,0.00038179077091626823,-0.0009162978967651725,-0.00015271631127689034
1699665531271021000,5.01202099609375,0.0009926559869199991,-0.0003054326225537807,-0.0007635815418325365
1699665531281516000,5.02251611328125,0.0009926559869199991,-0.001527163083665073,-0.00015271631127689034
1699665531291260000,5.032260009765625,0.00038179077091626823,0.0003054326225537807,-0.0007635815418325365
1699665531300608000,5.04160791015625,0.00038179077091626823,0.0003054326225537807,-0.0007635815418325365
1699665531311444000,5.05244384765625,0.00038179077091626823,0.0003054326225537807,-0.00015271631127689034
1699665531320989000,5.061989013671875,0.00038179077091626823,0.0003054326225537807,-0.00015271631127689034
1699665531331210000,5.0722099609375,-0.00022907447419129312,0.0009162978967651725,0.00045814894838258624
1699665531340365000,5.081364990234375,-0.00022907447419129312,0.0009162978967651725,0.0010690141934901476
1699665531350318000,5.091318115234375,0.00038179077091626823,0.0003054326225537807,0.0010690141934901476
1699665531360277000,5.101277099609375,0.00038179077091626823,-0.0003054326225537807,0.00045814894838258624
1699665531370819000,5.111819091796875,0.0009926559869199991,-0.001527163083665073,0.00045814894838258624
1699665531380846000,5.12184619140625,0.00038179077091626823,-0.0009162978967651725,0.00045814894838258624
1699665531390749000,5.1317490234375,0.00038179077091626823,-0.0003054326225537807,-0.00015271631127689034
1699665531400459000,5.141458984375,0.00038179077091626823,-0.0009162978967651725,0.00045814894838258624
1699665531410498000,5.151498046875,0.00038179077091626823,-0.0003054326225537807,0.00045814894838258624
1699665531420833000,5.1618330078125,0.0009926559869199991,0.0003054326225537807,-0.00015271631127689034
1699665531430358000,5.17135791015625,0.00038179077091626823,0.0003054326225537807,-0.0013744467869400978
1699665531440508000,5.1815078125,0.00038179077091626823,-0.0003054326225537807,-0.0007635815418325365
1699665531450456000,5.1914560546875,-0.000839939690195024,0.0003054326225537807,-0.0007635815418325365
1699665531460563000,5.20156298828125,0.0009926559869199991,-0.0003054326225537807,-0.0007635815418325365
1699665531471125000,5.212125,0.00038179077091626823,-0.0003054326225537807,-0.0007635815418325365
1699665531480588000,5.221588134765625,0.00038179077091626823,-0.0003054326225537807,-0.0013744467869400978
1699665531490769000,5.231768798828125,0.00038179077091626823,-0.0003054326225537807,-0.00015271631127689034
1699665531500511000,5.241510986328125,0.00038179077091626823,-0.0009162978967651725,-0.00015271631127689034
1699665531510522000,5.251522216796875,-0.00022907447419129312,0.0003054326225537807,-0.00015271631127689034
1699665531520839000,5.2618388671875,-0.00022907447419129312,0.0003054326225537807,0.00045814894838258624
1699665531530645000,5.27164501953125,-0.00022907447419129312,0.0003054326225537807,-0.00015271631127689034
1699665531541361000,5.28236083984375,-0.000839939690195024,0.0003054326225537807,-0.0007635815418325365
1699665531550897000,5.29189697265625,-0.00022907447419129312,0.0003054326225537807,-0.0007635815418325365
1699665531561871000,5.30287109375,0.00038179077091626823,-0.0003054326225537807,0.00045814894838258624
1699665531571024000,5.31202392578125,0.00038179077091626823,0.0003054326225537807,0.00045814894838258624
1699665531580380000,5.3213798828125,0.00038179077091626823,-0.0009162978967651725,0.00045814894838258624
1699665531590351000,5.33135107421875,0.00038179077091626823,0.0003054326225537807,0.00045814894838258624
1699665531600376000,5.3413759765625,0.0009926559869199991,-0.0003054326225537807,-0.00015271631127689034
1699665531610995000,5.351994873046875,0.0009926559869199991,-0.0009162978967651725,-0.00015271631127689034
1699665531621349000,5.36234912109375,0.0009926559869199991,-0.0009162978967651725,0.00045814894838258624
1699665531630805000,5.371804931640625,0.00038179077091626823,-0.0003054326225537807,-0.00015271631127689034
1699665531640561000,5.381560791015625,-0.000839939690195024,0.0009162978967651725,-0.0013744467869400978
1699665531650798000,5.391798095703125,-0.00022907447419129312,-0.0003054326225537807,-0.0013744467869400978
1699665531665523000,5.40652294921875,-0.000839939690195024,-0.0003054326225537807,-0.0013744467869400978
1699665531681229000,5.42222900390625,0.00038179077091626823,0.0009162978967651725,-0.0007635815418325365
1699665531690354000,5.43135400390625,0.00038179077091626823,0.0003054326225537807,-0.0007635815418325365
1699665531700607000,5.44160693359375,0.0009926559869199991,0.0003054326225537807,0.00045814894838258624
1699665531710216000,5.4512158203125,0.00038179077091626823,0.0003054326225537807,-0.00015271631127689034
1699665531720303000,5.46130322265625,0.00038179077091626823,0.0003054326225537807,0.0010690141934901476
1699665531730164000,5.4711640625,0.0009926559869199991,0.0009162978967651725,0.00045814894838258624
1699665531740354000,5.48135400390625,0.00038179077091626823,0.0003054326225537807,-0.00015271631127689034
1699665531750173000,5.4911728515625,-0.00022907447419129312,0.0003054326225537807,-0.00015271631127689034
1699665531761203000,5.502202880859375,0.00038179077091626823,0.0003054326225537807,-0.00015271631127689034
1699665531770414000,5.5114140625,-0.000839939690195024,0.0009162978967651725,-0.0007635815418325365
1699665531780429000,5.521428955078125,0.00038179077091626823,0.0003054326225537807,-0.00015271631127689034
1699665531790379000,5.53137890625,0.00038179077091626823,-0.0009162978967651725,-0.00015271631127689034
1699665531800370000,5.541369873046875,0.00038179077091626823,0.0003054326225537807,-0.00015271631127689034
1699665531810513000,5.551512939453125,0.00038179077091626823,0.0003054326225537807,-0.00015271631127689034
1699665531820472000,5.56147216796875,0.0009926559869199991,-0.0003054326225537807,0.00045814894838258624
1699665531830355000,5.57135498046875,0.00038179077091626823,-0.0009162978967651725,0.00045814894838258624
1699665531840505000,5.581505126953125,0.0016035212902352214,-0.0003054326225537807,-0.00015271631127689034
1699665531850497000,5.5914970703125,0.0009926559869199991,0.0009162978967651725,0.00045814894838258624
1699665531860434000,5.601433837890625,-0.00022907447419129312,0.0003054326225537807,-0.00015271631127689034
1699665531872307000,5.613306884765625,0.00038179077091626823,0.0009162978967651725,-0.0007635815418325365
1699665531880511000,5.621510986328125,0.00038179077091626823,0.0009162978967651725,-0.0007635815418325365
1699665531890505000,5.6315048828125,-0.00022907447419129312,-0.0003054326225537807,-0.00015271631127689034
1699665531900550000,5.6415498046875,-0.00022907447419129312,-0.0003054326225537807,0.00045814894838258624
1699665531910377000,5.651376953125,0.00038179077091626823,-0.0009162978967651725,0.00045814894838258624
1699665531920439000,5.66143896484375,0.0009926559869199991,-0.0009162978967651725,-0.0007635815418325365
1699665531930537000,5.671536865234375,0.0009926559869199991,-0.0009162978967651725,-0.00015271631127689034
1699665531940441000,5.681441162109375,0.0009926559869199991,0.0003054326225537807,0.00045814894838258624
1699665531950736000,5.69173583984375,0.00038179077091626823,0.0003054326225537807,0.00045814894838258624
1699665531960769000,5.70176904296875,0.00038179077091626823,-0.0003054326225537807,0.00045814894838258624
1699665531971193000,5.712193115234375,0.00038179077091626823,0.0003054326225537807,-0.00015271631127689034
1699665531980910000,5.72191015625,-0.00022907447419129312,0.0003054326225537807,-0.0007635815418325365
1699665531990356000,5.73135595703125,-0.00022907447419129312,-0.0009162978967651725,0.00045814894838258624
1699665532000702000,5.741701904296875,-0.00022907447419129312,-0.0003054326225537807,-0.0007635815418325365
1699665532010338000,5.751338134765625,-0.00022907447419129312,-0.0003054326225537807,-0.00015271631127689034
1699665532020957000,5.76195703125,-0.000839939690195024,0.0009162978967651725,-0.00015271631127689034
1699665532030356000,5.77135595703125,-0.00022907447419129312,-0.0003054326225537807,-0.00015271631127689034
1699665532040774000,5.78177392578125,-0.00022907447419129312,-0.0003054326225537807,-0.0007635815418325365
1699665532050217000,5.791217041015625,-0.00022907447419129312,0.0003054326225537807,0.00045814894838258624
1699665532060802000,5.801802001953125,-0.00015271631127689034,-0.00022907447419129312,0.00045814894838258624
1699665532070359000,5.811359130859375,-0.00015271631127689034,-0.00022907447419129312,-0.0007635815418325365
1699665532081425000,5.8224248046875,0.0010690141934901476,-0.00022907447419129312,-0.0007635815418325365
1699665532091244000,5.832244140625,0.00045814894838258624,-0.00022907447419129312,-0.0013744467869400978
1699665532100548000,5.841548095703125,-0.00015271631127689034,-0.000839939690195024,-0.00015271631127689034
1699665532110513000,5.851512939453125,0.00045814894838258624,-0.00022907447419129312,0.00045814894838258624
1699665532121576000,5.862575927734375,0.0010690141934901476,-0.00022907447419129312,0.0010690141934901476
1699665532130724000,5.87172412109375,-0.00015271631127689034,-0.00022907447419129312,0.00045814894838258624
1699665532140604000,5.88160400390625,0.0010690141934901476,-0.00022907447419129312,-0.00015271631127689034
1699665532150771000,5.89177099609375,0.00045814894838258624,0.00038179077091626823,0.00045814894838258624
1699665532161548000,5.902548095703125,0.00045814894838258624,0.00038179077091626823,-0.00015271631127689034
1699665532170690000,5.91168994140625,0.00045814894838258624,0.00038179077091626823,-0.0007635815418325365
1699665532180745000,5.921744873046875,-0.00015271631127689034,0.00038179077091626823,-0.0007635815418325365
1699665532191572000,5.932572021484375,0.00045814894838258624,-0.00022907447419129312,-0.00015271631127689034
1699665532201570000,5.942570068359375,0.00045814894838258624,-0.00022907447419129312,0.00045814894838258624
1699665532211716000,5.952716064453125,0.0010690141934901476,0.00038179077091626823,-0.0013744467869400978
1699665532221677000,5.962677001953125,0.00045814894838258624,0.00038179077091626823,-0.00015271631127689034
1699665532231699000,5.972698974609375,0.0010690141934901476,-0.00022907447419129312,-0.0007635815418325365
1699665532240640000,5.981639892578125,0.00045814894838258624,0.00038179077091626823,-0.0007635815418325365
1699665532251678000,5.992677978515625,0.0010690141934901476,0.00038179077091626823,-0.00015271631127689034
1699665532260651000,6.001651123046875,0.0010690141934901476,0.00038179077091626823,-0.00015271631127689034
1699665532271738000,6.012738037109375,-0.00015271631127689034,0.00038179077091626823,-0.0007635815418325365
1699665532280837000,6.021837158203125,0.00045814894838258624,-0.00022907447419129312,-0.0007635815418325365
1699665532290449000,6.031448974609375,0.00045814894838258624,-0.00022907447419129312,-0.00015271631127689034
1699665532300589000,6.041589111328125,-0.00015271631127689034,-0.00022907447419129312,-0.00015271631127689034
1699665532310906000,6.051906005859375,0.0010690141934901476,-0.00022907447419129312,-0.00015271631127689034
1699665532321768000,6.062767822265625,0.00045814894838258624,0.00038179077091626823,-0.0007635815418325365
1699665532331060000,6.07206005859375,0.0010690141934901476,0.00038179077091626823,0.00045814894838258624
1699665532340620000,6.0816201171875,0.00045814894838258624,0.00038179077091626823,0.00045814894838258624
1699665532350652000,6.09165185546875,0.00045814894838258624,0.0009926559869199991,0.00045814894838258624
1699665532360681000,6.101680908203125,0.0010690141934901476,0.00038179077091626823,0.00045814894838258624
1699665532370752000,6.111751953125,0.0010690141934901476,-0.00022907447419129312,-0.00015271631127689034
1699665532380681000,6.121680908203125,0.0010690141934901476,-0.000839939690195024,0.00045814894838258624
1699665532390882000,6.131882080078125,-0.00015271631127689034,-0.00022907447419129312,-0.00015271631127689034
1699665532400356000,6.141356201171875,-0.00015271631127689034,0.00038179077091626823,-0.0007635815418325365
1699665532410571000,6.151571044921875,-0.00015271631127689034,-0.00022907447419129312,-0.0007635815418325365
1699665532420617000,6.161616943359375,0.00045814894838258624,0.00038179077091626823,-0.0007635815418325365
1699665532430218000,6.171218017578125,0.00045814894838258624,0.00038179077091626823,-0.0007635815418325365
1699665532440355000,6.18135498046875,-0.00015271631127689034,0.00038179077091626823,-0.0007635815418325365
1699665532450791000,6.191791015625,-0.00015271631127689034,-0.00022907447419129312,-0.0007635815418325365
1699665532460681000,6.201680908203125,0.00045814894838258624,-0.00022907447419129312,-0.0007635815418325365
1699665532470350000,6.21135009765625,0.00045814894838258624,0.00038179077091626823,-0.00015271631127689034
1699665532480457000,6.22145703125,0.00045814894838258624,0.0009926559869199991,-0.0007635815418325365
1699665532490686000,6.23168603515625,0.00045814894838258624,0.00038179077091626823,-0.00015271631127689034
1699665532500614000,6.24161376953125,-0.00015271631127689034,0.00038179077091626823,-0.00015271631127689034
1699665532510489000,6.251489013671875,0.00045814894838258624,0.00038179077091626823,-0.0007635815418325365
1699665532520585000,6.2615849609375,0.00045814894838258624,-0.00022907447419129312,-0.00015271631127689034
1699665532530779000,6.27177880859375,0.00045814894838258624,0.00038179077091626823,0.00045814894838258624
1699665532540428000,6.281427978515625,-0.0007635815418325365,-0.00022907447419129312,-0.0007635815418325365
1699665532550423000,6.291423095703125,0.00045814894838258624,-0.00022907447419129312,0.00045814894838258624
1699665532561423000,6.302423095703125,0.00045814894838258624,0.00038179077091626823,0.0010690141934901476
1699665532570321000,6.31132080078125,-0.00015271631127689034,-0.00022907447419129312,-0.00015271631127689034
1699665532580274000,6.32127392578125,0.00045814894838258624,-0.00022907447419129312,-0.0007635815418325365
1699665532590462000,6.3314619140625,-0.00015271631127689034,0.00038179077091626823,-0.0007635815418325365
1699665532601125000,6.342125,-0.00015271631127689034,0.00038179077091626823,-0.0013744467869400978
1699665532610559000,6.35155908203125,0.00045814894838258624,-0.00022907447419129312,-0.0007635815418325365
1699665532621094000,6.362093994140625,0.00045814894838258624,0.00038179077091626823,-0.0007635815418325365
1699665532630426000,6.371426025390625,0.001679879380390048,0.00038179077091626823,-0.00015271631127689034
1699665532640246000,6.38124609375,-0.00015271631127689034,0.00038179077091626823,-0.00015271631127689034
1699665532650380000,6.391380126953125,0.00045814894838258624,0.00038179077091626823,0.0010690141934901476
1699665532662461000,6.4034609375,-0.00015271631127689034,0.00038179077091626823,0.00045814894838258624
1699665532675459000,6.416458984375,0.0010690141934901476,0.00038179077091626823,-0.00015271631127689034
1699665532690361000,6.431361083984375,0.0010690141934901476,0.00038179077091626823,0.00045814894838258624
1699665532700481000,6.44148095703125,0.00045814894838258624,0.00038179077091626823,-0.00015271631127689034
1699665532711307000,6.45230712890625,-0.00015271631127689034,0.00038179077091626823,-0.00015271631127689034
1699665532720431000,6.46143115234375,-0.00015271631127689034,0.00038179077091626823,-0.00015271631127689034
1699665532730167000,6.4711669921875,0.00045814894838258624,0.00038179077091626823,-0.00015271631127689034
1699665532740843000,6.481843017578125,-0.00015271631127689034,-0.000839939690195024,0.00045814894838258624
1699665532750611000,6.49161083984375,-0.00015271631127689034,-0.00022907447419129312,-0.00015271631127689034
1699665532760518000,6.501517822265625,0.00045814894838258624,-0.00022907447419129312,-0.0007635815418325365
1699665532770346000,6.511345947265625,0.0010690141934901476,0.00038179077091626823,-0.0013744467869400978
1699665532780544000,6.5215439453125,0.0010690141934901476,-0.00022907447419129312,-0.00015271631127689034
1699665532790389000,6.531388916015625,0.00045814894838258624,0.00038179077091626823,-0.0007635815418325365
1699665532800476000,6.541475830078125,0.00045814894838258624,0.00038179077091626823,-0.0007635815418325365
1699665532810359000,6.551359130859375,0.00045814894838258624,0.00038179077091626823,-0.0007635815418325365
1699665532820312000,6.56131201171875,0.00045814894838258624,0.00038179077091626823,-0.00015271631127689034
1699665532830320000,6.571320068359375,0.00045814894838258624,0.0009926559869199991,-0.0013744467869400978
1699665532840795000,6.581794921875,0.00045814894838258624,0.00038179077091626823,-0.00015271631127689034
1699665532850375000,6.591375,0.00045814894838258624,-0.00022907447419129312,-0.00015271631127689034
1699665532860500000,6.6015,0.00045814894838258624,-0.00022907447419129312,0.00045814894838258624
1699665532870498000,6.611498046875,-0.00015271631127689034,-0.00022907447419129312,-0.00015271631127689034
1699665532880349000,6.621348876953125,0.0010690141934901476,-0.00022907447419129312,0.00045814894838258624
1699665532890541000,6.631541015625,0.0010690141934901476,0.00038179077091626823,-0.0007635815418325365
1699665532900676000,6.641676025390625,0.00045814894838258624,0.0009926559869199991,-0.0013744467869400978
1699665532910192000,6.651192138671875,0.00045814894838258624,-0.00022907447419129312,-0.0013744467869400978
1699665532920857000,6.661857177734375,0.0010690141934901476,-0.00022907447419129312,-0.00015271631127689034
1699665532930348000,6.67134814453125,0.0010690141934901476,-0.000839939690195024,-0.0013744467869400978
1699665532940232000,6.68123193359375,0.0010690141934901476,0.00038179077091626823,-0.00015271631127689034
1699665532950199000,6.691198974609375,0.00045814894838258624,-0.00022907447419129312,-0.00015271631127689034
1699665532960983000,6.701983154296875,-0.00015271631127689034,-0.00022907447419129312,-0.00015271631127689034
1699665532970353000,6.711352783203125,0.00045814894838258624,0.00038179077091626823,0.00045814894838258624
1699665532980280000,6.721280029296875,0.0010690141934901476,0.0009926559869199991,-0.00015271631127689034
1699665532990448000,6.7314482421875,0.0010690141934901476,0.00038179077091626823,0.00045814894838258624
1699665533001216000,6.742216064453125,-0.00015271631127689034,-0.000839939690195024,-0.00015271631127689034
1699665533010927000,6.751927001953125,-0.00015271631127689034,-0.000839939690195024,-0.00015271631127689034
1699665533020715000,6.761715087890625,0.00045814894838258624,-0.00022907447419129312,-0.0007635815418325365
1699665533031652000,6.772652099609375,-0.00015271631127689034,0.00038179077091626823,0.00045814894838258624
1699665533040469000,6.781468994140625,0.0010690141934901476,0.00038179077091626823,0.00045814894838258624
1699665533050449000,6.791448974609375,0.00045814894838258624,0.00038179077091626823,-0.0007635815418325365
1699665533061389000,6.80238916015625,0.00045814894838258624,0.00038179077091626823,-0.0007635815418325365
1699665533071388000,6.812387939453125,-0.00015271631127689034,-0.00022907447419129312,-0.00015271631127689034
1699665533080604000,6.82160400390625,0.0010690141934901476,0.0009926559869199991,-0.0007635815418325365
1699665533090727000,6.831726806640625,0.00045814894838258624,-0.00022907447419129312,0.00045814894838258624
1699665533101713000,6.842712890625,0.00045814894838258624,-0.00022907447419129312,-0.00015271631127689034
1699665533110694000,6.85169384765625,0.00045814894838258624,-0.00022907447419129312,-0.00015271631127689034
1699665533120738000,6.861738037109375,0.0010690141934901476,0.00038179077091626823,-0.00015271631127689034
1699665533131748000,6.872748046875,0.00045814894838258624,0.00038179077091626823,-0.00015271631127689034
1699665533140764000,6.881763916015625,-0.00015271631127689034,0.00038179077091626823,0.00045814894838258624
1699665533151749000,6.8927490234375,0.00045814894838258624,0.00038179077091626823,0.00045814894838258624
1699665533160809000,6.90180908203125,0.00045814894838258624,0.00038179077091626823,0.00045814894838258624
1699665533171737000,6.912737060546875,0.00045814894838258624,-0.000839939690195024,0.0010690141934901476
1699665533181363000,6.922363037109375,0.00045814894838258624,-0.00022907447419129312,-0.00015271631127689034
1699665533190417000,6.9314169921875,0.00045814894838258624,-0.00022907447419129312,-0.0013744467869400978
1699665533200876000,6.9418759765625,0.00045814894838258624,-0.00022907447419129312,-0.0007635815418325365
1699665533212263000,6.953262939453125,0.00045814894838258624,0.00038179077091626823,-0.0007635815418325365
1699665533221314000,6.96231396484375,0.00045814894838258624,0.0009926559869199991,-0.0007635815418325365
1699665533230431000,6.971430908203125,0.0010690141934901476,0.00038179077091626823,-0.0013744467869400978
1699665533240635000,6.981634765625,0.00045814894838258624,0.00038179077091626823,-0.0019853119738399982
1699665533250391000,6.99139111328125,0.00045814894838258624,0.00038179077091626823,-0.0013744467869400978
1699665533260697000,7.001697021484375,-0.00015271631127689034,0.00038179077091626823,-0.0007635815418325365
1699665533271048000,7.0120478515625,0.00045814894838258624,0.00038179077091626823,-0.0007635815418325365
1699665533280961000,7.0219609375,0.00045814894838258624,0.0009926559869199991,0.00045814894838258624
1699665533290441000,7.03144091796875,0.00045814894838258624,-0.00022907447419129312,0.00045814894838258624
1699665533300556000,7.04155615234375,0.001679879380390048,-0.000839939690195024,0.001679879380390048
1699665533311399000,7.05239892578125,0.0010690141934901476,-0.00022907447419129312,0.00045814894838258624
1699665533320644000,7.06164404296875,-0.00015271631127689034,-0.000839939690195024,0.00045814894838258624
1699665533330355000,7.07135498046875,0.00045814894838258624,-0.00022907447419129312,-0.0007635815418325365
1699665533340692000,7.08169189453125,-0.0007635815418325365,-0.00022907447419129312,-0.0007635815418325365
1699665533350684000,7.091683837890625,-0.0007635815418325365,-0.000839939690195024,-0.0019853119738399982
1699665533360807000,7.101806884765625,-0.0007635815418325365,-0.00022907447419129312,-0.0013744467869400978
1699665533371098000,7.11209814453125,-0.00015271631127689034,0.0009926559869199991,-0.0019853119738399982
1699665533380794000,7.121794189453125,0.0010690141934901476,-0.000839939690195024,-0.0007635815418325365
1699665533390673000,7.1316728515625,0.0010690141934901476,0.00038179077091626823,-0.0013744467869400978
1699665533400810000,7.14181005859375,0.0010690141934901476,0.00038179077091626823,0.00045814894838258624
1699665533410595000,7.151594970703125,0.001679879380390048,0.00038179077091626823,-0.00015271631127689034
1699665533420453000,7.161453125,0.001679879380390048,0.0009926559869199991,0.0010690141934901476
1699665533430869000,7.171868896484375,0.001679879380390048,0.00038179077091626823,-0.0013744467869400978
1699665533442368000,7.183367919921875,0.001679879380390048,0.00038179077091626823,0.00045814894838258624
1699665533455353000,7.19635302734375,-0.00015271631127689034,0.0009926559869199991,-0.00015271631127689034
1699665533470697000,7.211697021484375,0.00045814894838258624,-0.00022907447419129312,-0.00015271631127689034
1699665533480259000,7.221259033203125,0.00045814894838258624,0.00038179077091626823,0.00045814894838258624
1699665533490252000,7.231251953125,-0.0007635815418325365,-0.00022907447419129312,0.0010690141934901476
1699665533500680000,7.241679931640625,0.00045814894838258624,-0.000839939690195024,0.00045814894838258624
1699665533510383000,7.251383056640625,0.0010690141934901476,-0.0014508049935102463,-0.0013744467869400978
1699665533520148000,7.26114794921875,0.001679879380390048,-0.0014508049935102463,-0.0007635815418325365
1699665533530173000,7.2711728515625,0.0010690141934901476,-0.000839939690195024,-0.00015271631127689034
1699665533540227000,7.28122705078125,-0.00015271631127689034,-0.00022907447419129312,-0.0007635815418325365
1699665533550157000,7.291156982421875,0.00045814894838258624,-0.00022907447419129312,-0.0013744467869400978
1699665533561584000,7.302584228515625,0.00045814894838258624,0.0009926559869199991,-0.00015271631127689034
1699665533570912000,7.311912109375,0.00045814894838258624,0.0009926559869199991,-0.0007635815418325365
1699665533580590000,7.321590087890625,0.00045814894838258624,0.0009926559869199991,-0.0007635815418325365
1699665533590474000,7.331473876953125,0.0010690141934901476,0.0009926559869199991,-0.0007635815418325365
1699665533601586000,7.3425859375,0.00045814894838258624,0.0009926559869199991,-0.00015271631127689034
1699665533610452000,7.351451904296875,0.0010690141934901476,0.00038179077091626823,-0.0007635815418325365
1699665533621402000,7.362402099609375,0.0010690141934901476,0.00038179077091626823,-0.00015271631127689034
1699665533630694000,7.37169384765625,0.00045814894838258624,0.00038179077091626823,0.00045814894838258624
1699665533640695000,7.381695068359375,0.00045814894838258624,0.00038179077091626823,-0.0007635815418325365
1699665533650463000,7.391462890625,-0.00015271631127689034,-0.00022907447419129312,0.00045814894838258624
1699665533660724000,7.401723876953125,-0.0007635815418325365,-0.00022907447419129312,-0.0007635815418325365
1699665533670734000,7.411734130859375,-0.0007635815418325365,-0.00022907447419129312,0.00045814894838258624
1699665533680555000,7.421554931640625,-0.00015271631127689034,-0.000839939690195024,0.00045814894838258624
1699665533691601000,7.432600830078125,0.00045814894838258624,-0.00022907447419129312,-0.00015271631127689034
1699665533700704000,7.4417041015625,0.0010690141934901476,-0.000839939690195024,0.00045814894838258624
1699665533710826000,7.451825927734375,0.00045814894838258624,-0.000839939690195024,0.00045814894838258624
1699665533720215000,7.461215087890625,0.00045814894838258624,-0.00022907447419129312,-0.0007635815418325365
1699665533732097000,7.473096923828125,0.00045814894838258624,0.00038179077091626823,0.00045814894838258624
1699665533740520000,7.48152001953125,0.00045814894838258624,-0.00022907447419129312,-0.0013744467869400978
1699665533750153000,7.491153076171875,0.00045814894838258624,0.00038179077091626823,-0.0007635815418325365
1699665533760693000,7.50169287109375,-0.00015271631127689034,-0.00022907447419129312,-0.00015271631127689034
1699665533770574000,7.511573974609375,0.0010690141934901476,0.0009926559869199991,-0.0007635815418325365
1699665533780248000,7.521248046875,0.00045814894838258624,0.0009926559869199991,-0.0013744467869400978
1699665533790151000,7.53115087890625,0.00045814894838258624,0.00038179077091626823,-0.00015271631127689034
1699665533800292000,7.5412919921875,-0.00015271631127689034,0.0009926559869199991,-0.00015271631127689034
1699665533810171000,7.5511708984375,0.00045814894838258624,-0.00022907447419129312,0.00045814894838258624
1699665533820855000,7.56185498046875,0.00045814894838258624,-0.00022907447419129312,-0.00015271631127689034
1699665533830187000,7.57118701171875,-0.00015271631127689034,0.00038179077091626823,-0.0007635815418325365
1699665533840801000,7.581801025390625,-0.00015271631127689034,0.0009926559869199991,-0.0007635815418325365
1699665533850318000,7.591318115234375,0.00045814894838258624,0.00038179077091626823,-0.0007635815418325365
1699665533860416000,7.601416015625,0.00045814894838258624,-0.00022907447419129312,-0.0013744467869400978
1699665533870355000,7.61135498046875,0.00045814894838258624,-0.00022907447419129312,0.0010690141934901476
1699665533880405000,7.621405029296875,-0.00015271631127689034,0.00038179077091626823,-0.0007635815418325365
1699665533890376000,7.6313759765625,0.00045814894838258624,-0.00022907447419129312,-0.00015271631127689034
1699665533900339000,7.6413388671875,0.00045814894838258624,-0.00022907447419129312,-0.00015271631127689034
1699665533910517000,7.65151708984375,0.00045814894838258624,-0.000839939690195024,-0.00015271631127689034
1699665533920803000,7.661802978515625,0.0022907445672899485,-0.00022907447419129312,-0.00015271631127689034
1699665533930507000,7.671507080078125,0.001679879380390048,-0.00022907447419129312,-0.00015271631127689034
1699665533940479000,7.68147900390625,0.00045814894838258624,0.0009926559869199991,0.0010690141934901476
1699665533950422000,7.691422119140625,0.00045814894838258624,-0.000839939690195024,-0.00015271631127689034
1699665533960419000,7.701419189453125,-0.00015271631127689034,-0.00022907447419129312,0.001679879380390048
1699665533970402000,7.711402099609375,0.00045814894838258624,0.00038179077091626823,0.00045814894838258624
1699665533980525000,7.721525146484375,-0.00015271631127689034,-0.00022907447419129312,0.00045814894838258624
1699665533991165000,7.7321650390625,-0.00015271631127689034,0.00038179077091626823,-0.0013744467869400978
1699665534000645000,7.74164501953125,-0.00015271631127689034,-0.00022907447419129312,-0.00015271631127689034
1699665534010396000,7.75139599609375,-0.00015271631127689034,0.00038179077091626823,-0.00015271631127689034
1699665534020523000,7.76152294921875,0.0010690141934901476,-0.00022907447419129312,-0.0007635815418325365
1699665534030516000,7.771515869140625,0.00045814894838258624,0.0009926559869199991,-0.00015271631127689034
1699665534040548000,7.781548095703125,0.0010690141934901476,0.00038179077091626823,-0.0007635815418325365
1699665534050745000,7.7917451171875,0.0010690141934901476,-0.00022907447419129312,-0.00015271631127689034
1699665534060529000,7.80152880859375,0.00045814894838258624,0.00038179077091626823,-0.00015271631127689034
1699665534070633000,7.811633056640625,-0.00015271631127689034,0.0009926559869199991,-0.00015271631127689034
1699665534080482000,7.82148193359375,-0.00015271631127689034,-0.00022907447419129312,-0.00015271631127689034
1699665534090391000,7.83139111328125,0.0010690141934901476,0.00038179077091626823,-0.00015271631127689034
1699665534100586000,7.8415859375,-0.00015271631127689034,0.00038179077091626823,-0.00015271631127689034
1699665534110522000,7.851522216796875,-0.00015271631127689034,-0.00022907447419129312,-0.00015271631127689034
1699665534120389000,7.86138916015625,0.00045814894838258624,0.00038179077091626823,-0.0007635815418325365
1699665534130509000,7.871509033203125,0.00045814894838258624,-0.000839939690195024,0.00045814894838258624
1699665534140664000,7.8816640625,0.0010690141934901476,0.00038179077091626823,-0.0007635815418325365
1699665534150593000,7.891593017578125,-0.00015271631127689034,-0.000839939690195024,-0.00015271631127689034
1699665534160485000,7.901485107421875,-0.00015271631127689034,-0.00022907447419129312,0.00045814894838258624
1699665534170399000,7.91139892578125,0.00045814894838258624,-0.00022907447419129312,0.00045814894838258624
1699665534180554000,7.921553955078125,0.00045814894838258624,0.00038179077091626823,-0.0007635815418325365
1699665534190519000,7.93151904296875,0.00045814894838258624,-0.00022907447419129312,-0.00015271631127689034
1699665534200540000,7.941539794921875,-0.00015271631127689034,0.00038179077091626823,-0.00015271631127689034
1699665534210481000,7.95148095703125,-0.00015271631127689034,0.00038179077091626823,0.00045814894838258624
1699665534220352000,7.96135205078125,-0.00015271631127689034,-0.00022907447419129312,-0.00015271631127689034
1699665534230382000,7.971382080078125,-0.00015271631127689034,0.00038179077091626823,-0.00015271631127689034
1699665534240544000,7.9815439453125,-0.00015271631127689034,0.00038179077091626823,0.00045814894838258624
1699665534251388000,7.992387939453125,0.00045814894838258624,0.00038179077091626823,-0.0007635815418325365
1699665534260568000,8.001568115234376,0.0010690141934901476,0.00038179077091626823,-0.0013744467869400978
1699665534270541000,8.011541015625,0.001679879380390048,0.00038179077091626823,-0.0007635815418325365
1699665534280965000,8.021965087890624,0.0010690141934901476,0.00038179077091626823,-0.00015271631127689034
1699665534290543000,8.031543212890625,0.00045814894838258624,0.00038179077091626823,-0.0007635815418325365
1699665534300420000,8.041420166015625,0.00045814894838258624,0.0009926559869199991,-0.0007635815418325365
1699665534310426000,8.051426025390626,0.00045814894838258624,0.0009926559869199991,0.00045814894838258624
1699665534320560000,8.06156005859375,0.00045814894838258624,0.0009926559869199991,-0.00015271631127689034
1699665534330537000,8.071536865234375,-0.00015271631127689034,-0.00022907447419129312,0.0010690141934901476
1699665534341114000,8.082114013671875,-0.00015271631127689034,0.00038179077091626823,-0.00015271631127689034
1699665534351751000,8.0927509765625,0.0010690141934901476,-0.00022907447419129312,-0.0007635815418325365
1699665534360585000,8.1015849609375,0.00045814894838258624,-0.00022907447419129312,-0.0013744467869400978
1699665534370684000,8.111683837890626,0.00045814894838258624,-0.000839939690195024,-0.00015271631127689034
1699665534381160000,8.122159912109375,0.00045814894838258624,0.00038179077091626823,-0.0007635815418325365
1699665534390568000,8.13156787109375,-0.0007635815418325365,-0.00022907447419129312,-0.00015271631127689034
1699665534400942000,8.141942138671874,0.00045814894838258624,0.00038179077091626823,-0.0007635815418325365
1699665534410537000,8.151536865234375,0.00045814894838258624,-0.000839939690195024,-0.00015271631127689034
1699665534421172000,8.162171875,0.00045814894838258624,0.00038179077091626823,-0.00015271631127689034
1699665534430488000,8.171488037109375,0.00045814894838258624,-0.00022907447419129312,-0.0007635815418325365
1699665534440584000,8.181583984375,0.00045814894838258624,0.0009926559869199991,-0.00015271631127689034
1699665534451430000,8.192429931640625,0.0010690141934901476,0.0009926559869199991,-0.00015271631127689034
1699665534460369000,8.201368896484375,0.00045814894838258624,0.0009926559869199991,-0.00015271631127689034
1699665534470627000,8.211626953125,0.00045814894838258624,0.0009926559869199991,-0.00015271631127689034
1699665534481586000,8.2225859375,0.00045814894838258624,-0.000839939690195024,-0.00015271631127689034
1699665534490342000,8.231341796875,0.0010690141934901476,-0.000839939690195024,-0.00015271631127689034
1699665534500757000,8.241757080078125,0.00045814894838258624,-0.00022907447419129312,-0.0007635815418325365
1699665534510811000,8.251810791015625,-0.00015271631127689034,-0.00022907447419129312,-0.0007635815418325365
1699665534520205000,8.261205078125,-0.0007635815418325365,-0.00022907447419129312,-0.00015271631127689034
1699665534530787000,8.271787109375,-0.00015271631127689034,-0.000839939690195024,0.00045814894838258624
1699665534540777000,8.28177685546875,0.00045814894838258624,-0.00022907447419129312,-0.00015271631127689034
1699665534550834000,8.291833984375,0.00045814894838258624,-0.00022907447419129312,0.00045814894838258624
1699665534560555000,8.301554931640625,0.00045814894838258624,-0.00022907447419129312,0.00045814894838258624
1699665534570797000,8.311797119140625,0.001679879380390048,-0.00022907447419129312,-0.00015271631127689034
1699665534581608000,8.32260791015625,0.0010690141934901476,-0.00022907447419129312,-0.00015271631127689034
1699665534591389000,8.332388916015624,0.0010690141934901476,0.00038179077091626823,-0.0007635815418325365
1699665534601375000,8.342375,0.0010690141934901476,-0.00022907447419129312,0.00045814894838258624
1699665534610726000,8.351725830078125,0.00045814894838258624,0.00038179077091626823,0.00045814894838258624
1699665534620647000,8.36164697265625,0.0010690141934901476,-0.00022907447419129312,0.00045814894838258624
1699665534630815000,8.37181494140625,0.00045814894838258624,-0.00022907447419129312,-0.00015271631127689034
1699665534641184000,8.38218408203125,0.00045814894838258624,-0.00022907447419129312,-0.0007635815418325365
1699665534650685000,8.391684814453125,0.00045814894838258624,-0.00022907447419129312,-0.00015271631127689034
1699665534661164000,8.4021640625,0.00045814894838258624,-0.00022907447419129312,-0.00015271631127689034
1699665534675624000,8.4166240234375,0.0010690141934901476,-0.00022907447419129312,-0.0007635815418325365
1699665534690485000,8.431485107421874,0.00045814894838258624,0.00038179077091626823,-0.00015271631127689034
1699665534701251000,8.4422509765625,0.0010690141934901476,0.00038179077091626823,-0.00015271631127689034
1699665534710904000,8.451904052734376,0.00045814894838258624,-0.00022907447419129312,0.00045814894838258624
1699665534721258000,8.462258056640625,0.00045814894838258624,0.00038179077091626823,-0.0007635815418325365
1699665534730561000,8.47156103515625,0.00045814894838258624,-0.00022907447419129312,-0.00015271631127689034
1699665534740242000,8.481241943359375,0.0010690141934901476,-0.00022907447419129312,-0.00015271631127689034
1699665534750202000,8.4912021484375,-0.00015271631127689034,0.00038179077091626823,-0.00015271631127689034
1699665534760315000,8.50131494140625,0.00045814894838258624,0.00038179077091626823,-0.00015271631127689034
1699665534770624000,8.5116240234375,0.00045814894838258624,-0.00022907447419129312,-0.00015271631127689034
1699665534780275000,8.52127490234375,-0.00015271631127689034,-0.00022907447419129312,0.0010690141934901476
1699665534790152000,8.53115185546875,0.00045814894838258624,0.00038179077091626823,0.00045814894838258624
1699665534800174000,8.541174072265624,0.00045814894838258624,0.00038179077091626823,0.00045814894838258624
1699665534810551000,8.551551025390625,0.0010690141934901476,0.00038179077091626823,-0.00015271631127689034
1699665534820963000,8.561963134765625,0.00045814894838258624,0.00038179077091626823,-0.00015271631127689034
1699665534830308000,8.57130810546875,0.00045814894838258624,-0.000839939690195024,-0.00015271631127689034
1699665534840713000,8.581712890625,0.00045814894838258624,-0.00022907447419129312,-0.00015271631127689034
1699665534850351000,8.59135107421875,-0.00015271631127689034,-0.00022907447419129312,-0.00015271631127689034
1699665534860275000,8.60127490234375,0.00045814894838258624,0.00038179077091626823,-0.00015271631127689034
1699665534870370000,8.6113701171875,0.00045814894838258624,0.00038179077091626823,-0.00015271631127689034
1699665534880670000,8.621669921875,0.00045814894838258624,-0.00022907447419129312,-0.00015271631127689034
1699665534890717000,8.631717041015625,0.00045814894838258624,0.00038179077091626823,-0.0013744467869400978
1699665534900423000,8.6414228515625,0.00045814894838258624,-0.00022907447419129312,-0.00015271631127689034
1699665534910372000,8.6513720703125,0.00045814894838258624,-0.00022907447419129312,-0.00015271631127689034
1699665534920542000,8.6615419921875,0.0010690141934901476,-0.00022907447419129312,-0.00015271631127689034
1699665534930202000,8.6712021484375,0.00045814894838258624,0.00038179077091626823,-0.00015271631127689034
1699665534940185000,8.68118505859375,-0.00015271631127689034,-0.00022907447419129312,-0.00015271631127689034
1699665534950491000,8.691490966796875,0.00045814894838258624,-0.00022907447419129312,0.00045814894838258624
1699665534960295000,8.701294921875,-0.00015271631127689034,0.0009926559869199991,0.00045814894838258624
1699665534970236000,8.71123583984375,0.00045814894838258624,0.0009926559869199991,-0.0007635815418325365
1699665534980222000,8.721221923828125,0.00045814894838258624,0.0009926559869199991,-0.00015271631127689034
1699665534990590000,8.73158984375,0.00045814894838258624,-0.0014508049935102463,0.00045814894838258624
1699665535000319000,8.741319091796875,0.0010690141934901476,0.004657847341150045,0.0010690141934901476
1699665535010577000,8.751576904296876,0.0010690141934901476,-0.0032834007870405912,-0.0013744467869400978
1699665535020162000,8.761162109375,0.0010690141934901476,-0.0020616701804101467,-0.00015271631127689034
1699665535030153000,8.771153076171874,0.00045814894838258624,0.010155634954571724,-0.0013744467869400978
1699665535040268000,8.78126806640625,-0.0007635815418325365,-0.013057244941592216,-0.00015271631127689034
1699665535050504000,8.79150390625,-0.00015271631127689034,0.013209961354732513,-0.0013744467869400978
1699665535060334000,8.801333984375,0.00045814894838258624,-0.008170322515070438,-0.0007635815418325365
1699665535070447000,8.811447021484375,0.00045814894838258624,0.0022143865935504436,0.0010690141934901476
1699665535080329000,8.821328857421875,0.001679879380390048,0.004657847341150045,-0.0013744467869400978
1699665535090426000,8.831426025390625,-0.00015271631127689034,-0.007559457328170538,-0.00015271631127689034
1699665535100475000,8.841474853515624,0.0010690141934901476,0.0034361169673502445,-0.0013744467869400978
1699665535110464000,8.851464111328125,0.00045814894838258624,0.002825251780450344,0.00045814894838258624
1699665535120771000,8.86177099609375,0.00045814894838258624,-0.005115996580570936,-0.0007635815418325365
1699665535130470000,8.871469970703124,0.00045814894838258624,0.004657847341150045,-0.00015271631127689034
1699665535140318000,8.88131787109375,0.00045814894838258624,-0.00022907447419129312,-0.00015271631127689034
1699665535150254000,8.891254150390624,-0.00015271631127689034,-0.0038942659739404917,0.001679879380390048
1699665535160460000,8.9014599609375,0.0010690141934901476,0.005268712528049946,-0.0025961773935705423
1699665535170542000,8.9115419921875,0.00045814894838258624,-0.005115996580570936,0.0022907445672899485
1699665535180379000,8.92137890625,0.00045814894838258624,-0.005115996580570936,-0.00015271631127689034
1699665535190500000,8.9315,0.001679879380390048,-0.011835514567792416,0.005345070734620094
1699665535201768000,8.942767822265624,0.001679879380390048,0.023594669997692108,-0.0007635815418325365
1699665535210508000,8.951508056640625,-0.0013744467869400978,-0.016722436994314194,-0.004428773187100887
1699665535220251000,8.9612509765625,-0.00015271631127689034,-0.012446379289031029,-0.004428773187100887
1699665535230355000,8.97135498046875,0.00045814894838258624,0.027870727702975273,-0.0007635815418325365
1699665535240667000,8.9816669921875,0.00045814894838258624,-0.01794416643679142,0.0010690141934901476
1699665535251095000,8.992094970703125,-0.0007635815418325365,-0.005726861767470837,-0.006261368747800589
1699665535260646000,9.00164599609375,0.0010690141934901476,0.013820826075971127,0.0065668015740811825
1699665535270652000,9.01165185546875,0.0010690141934901476,-0.0038942659739404917,0.0029016099870204926
1699665535280219000,9.021218994140625,-0.0007635815418325365,-0.004505131393671036,-0.003817907767370343
1699665535290522000,9.031522216796875,0.00045814894838258624,0.0009926559869199991,-0.0007635815418325365
1699665535300731000,9.04173095703125,0.001679879380390048,-0.00939205288887024,0.00045814894838258624
1699665535310508000,9.051508056640625,0.00045814894838258624,0.010766499675810337,0.004734205547720194
1699665535320494000,9.061494140625,-0.0025961773935705423,-0.024663684889674187,-0.0025961773935705423
1699665535330406000,9.071406005859375,0.0010690141934901476,0.030314188450574875,0.00045814894838258624
1699665535340494000,9.081494140625,-0.00015271631127689034,-0.008781188167631626,-0.0019853119738399982
1699665535350671000,9.091671142578125,-0.0013744467869400978,-0.015500705689191818,-0.0032070425804704428
1699665535360498000,9.101497802734375,0.0022907445672899485,0.013209961354732513,0.004734205547720194
1699665535370402000,9.111402099609375,0.0022907445672899485,0.009544769302010536,0.009621127508580685
1699665535380298000,9.121298095703125,-0.00015271631127689034,-0.01488984003663063,-0.00809396430850029
1699665535390532000,9.131531982421874,-0.0007635815418325365,-0.000839939690195024,0.0022907445672899485
1699665535400432000,9.14143212890625,0.001679879380390048,0.025427265092730522,-0.0074830991216003895
1699665535410514000,9.151513916015626,0.0010690141934901476,-0.039935316890478134,0.00045814894838258624
1699665535420637000,9.161636962890626,-0.00015271631127689034,0.025427265092730522,-0.0032070425804704428
1699665535430429000,9.171428955078126,0.001679879380390048,-0.005726861767470837,-0.0025961773935705423
1699665535440615000,9.181614990234374,-0.00015271631127689034,-0.012446379289031029,0.008399397134780884
1699665535450645000,9.19164501953125,0.00045814894838258624,0.0290924571454525,-0.005650503560900688
1699665535460479000,9.20147900390625,-0.0007635815418325365,-0.04360050708055496,-0.0007635815418325365
1699665535470238000,9.211238037109375,0.001679879380390048,0.022372938692569733,0.0065668015740811825
1699665535480302000,9.221302001953125,0.00045814894838258624,0.02054034359753132,-0.008704829961061478
1699665535490760000,9.231760009765624,0.00045814894838258624,-0.05826127156615257,0.001679879380390048
1699665535500725000,9.24172509765625,0.00045814894838258624,0.0541379339993,-0.0019853119738399982
1699665535510513000,9.251512939453125,0.00045814894838258624,-0.019165897741913795,-0.005039638374000788
1699665535520514000,9.26151416015625,0.0010690141934901476,-0.02710714563727379,0.009621127508580685
1699665535530243000,9.2712431640625,0.001679879380390048,0.051083605736494064,-0.011759156361222267
1699665535540894000,9.28189404296875,0.001679879380390048,-0.04360050708055496,0.007788531947880983
1699665535550455000,9.291455078125,-0.0019853119738399982,0.02848159149289131,-0.006261368747800589
1699665535560449000,9.301448974609375,0.001679879380390048,-0.019165897741913795,0.0029016099870204926
1699665535570307000,9.31130712890625,-0.0013744467869400978,0.013820826075971127,-0.00015271631127689034
1699665535580368000,9.321367919921874,0.0022907445672899485,-0.005726861767470837,0.0010690141934901476
1699665535590481000,9.33148095703125,-0.003817907767370343,0.004657847341150045,-0.003817907767370343
1699665535600686000,9.34168603515625,0.004734205547720194,-0.024663684889674187,0.0065668015740811825
1699665535610694000,9.35169384765625,-0.004428773187100887,0.03703370690345764,-0.005650503560900688
1699665535620525000,9.361525146484375,0.007177666760981083,-0.016111571341753006,-0.0007635815418325365
1699665535630351000,9.37135107421875,-0.006261368747800589,-0.016111571341753006,-0.009926560334861279
1699665535640488000,9.381488037109374,0.004123340360820293,-0.011224648915231228,0.008399397134780884
1699665535650688000,9.39168798828125,-0.0025961773935705423,0.010766499675810337,-0.012980886735022068
1699665535660892000,9.401891845703124,-0.0007635815418325365,-0.00939205288887024,-0.005650503560900688
1699665535670922000,9.411921875,-0.0007635815418325365,-0.01366810966283083,0.00045814894838258624
1699665535680382000,9.4213818359375,-0.0007635815418325365,-0.01366810966283083,-0.01970040425658226
1699665535690353000,9.431352783203126,-0.003817907767370343,0.006490443367511034,-0.014202617108821869
1699665535700658000,9.441657958984376,-0.005039638374000788,-0.0069485921412706375,-0.009926560334861279
1699665535710426000,9.451426025390624,-0.005039638374000788,-0.005726861767470837,-0.009926560334861279
1699665535721344000,9.462343994140625,0.001679879380390048,-0.0032834007870405912,-0.005650503560900688
1699665535730129000,9.47112890625,0.001679879380390048,-0.0032834007870405912,-0.005650503560900688
1699665535740260000,9.481260009765625,-0.0007635815418325365,-0.005726861767470837,0.00045814894838258624
1699665535750195000,9.49119482421875,0.0010690141934901476,0.0071013085544109344,-0.0007635815418325365
1699665535760120000,9.5011201171875,0.00045814894838258624,0.00038179077091626823,-0.00015271631127689034
1699665535770377000,9.511376953125,0.00045814894838258624,0.004046982154250145,0.0010690141934901476
1699665535780317000,9.52131689453125,0.00045814894838258624,-0.0014508049935102463,0.0010690141934901476
1699665535790349000,9.53134912109375,0.001679879380390048,-0.0014508049935102463,-0.0019853119738399982
1699665535800166000,9.541165771484375,-0.00015271631127689034,-0.008170322515070438,0.001679879380390048
1699665535810845000,9.551844970703126,-0.00015271631127689034,0.0034361169673502445,-0.00015271631127689034
1699665535820294000,9.5612939453125,0.0010690141934901476,0.0071013085544109344,-0.0025961773935705423
1699665535830401000,9.571401123046876,-0.00015271631127689034,-0.01061378326267004,0.0010690141934901476
1699665535840371000,9.581370849609375,0.001679879380390048,-0.00022907447419129312,-0.0007635815418325365
1699665535850987000,9.591987060546876,0.0010690141934901476,0.013820826075971127,-0.0019853119738399982
1699665535860864000,9.601864013671875,0.00045814894838258624,-0.012446379289031029,0.0029016099870204926
1699665535871276000,9.612276123046875,0.0010690141934901476,-0.000839939690195024,-0.0007635815418325365
1699665535880784000,9.621783935546874,0.00045814894838258624,0.02054034359753132,-0.0032070425804704428
1699665535891192000,9.632192138671876,-0.00015271631127689034,-0.017333300784230232,0.00045814894838258624
1699665535901895000,9.64289501953125,0.0022907445672899485,-0.0032834007870405912,-0.0025961773935705423
1699665535911539000,9.6525390625,0.001679879380390048,0.021151209250092506,0.0010690141934901476
1699665535920767000,9.66176708984375,-0.0007635815418325365,-0.013057244941592216,-0.0025961773935705423
1699665535930946000,9.671946044921874,0.0029016099870204926,-0.01366810966283083,0.001679879380390048
1699665535940871000,9.681870849609375,-0.00015271631127689034,0.02054034359753132,-0.0013744467869400978
1699665535950913000,9.6919130859375,-0.00015271631127689034,-0.013057244941592216,-0.00015271631127689034
1699665535961552000,9.7025517578125,0.001679879380390048,-0.00939205288887024,0.0022907445672899485
1699665535970933000,9.71193310546875,-0.0007635815418325365,0.012599095702171326,-0.0019853119738399982
1699665535981628000,9.7226279296875,-0.00015271631127689034,-0.0069485921412706375,0.0022907445672899485
1699665535991813000,9.732813232421876,-0.0007635815418325365,-0.000839939690195024,-0.005039638374000788
1699665536001190000,9.74218994140625,-0.0019853119738399982,-0.000839939690195024,0.0029016099870204926
1699665536011512000,9.752511962890624,0.00045814894838258624,-0.010002918541431427,-0.0019853119738399982
1699665536021814000,9.76281396484375,-0.00015271631127689034,0.009544769302010536,-0.0019853119738399982
1699665536030937000,9.77193701171875,-0.0019853119738399982,0.00038179077091626823,0.001679879380390048
1699665536041675000,9.782675048828125,0.0010690141934901476,-0.011224648915231228,-0.00015271631127689034
1699665536050364000,9.791364013671876,-0.00015271631127689034,0.02298380434513092,-0.0032070425804704428
1699665536060958000,9.8019580078125,-0.00015271631127689034,-0.00939205288887024,-0.0074830991216003895
1699665536070354000,9.81135400390625,0.003512475173920393,-0.007559457328170538,-0.0019853119738399982
1699665536080278000,9.821278076171875,-0.00015271631127689034,0.013820826075971127,-0.003817907767370343
1699665536090326000,9.831325927734374,0.0029016099870204926,-0.015500705689191818,0.0065668015740811825
1699665536101959000,9.842958984375,0.0029016099870204926,-0.00022907447419129312,-0.00015271631127689034
1699665536110612000,9.851612060546875,0.00045814894838258624,0.005268712528049946,0.008399397134780884
1699665536120482000,9.86148193359375,0.0010690141934901476,-0.013057244941592216,-0.0007635815418325365
1699665536130735000,9.871735107421875,-0.00015271631127689034,0.010766499675810337,-0.0032070425804704428
1699665536140777000,9.88177685546875,-0.0025961773935705423,0.002825251780450344,-0.00015271631127689034
1699665536151503000,9.892503173828125,-0.00015271631127689034,-0.01488984003663063,-0.0013744467869400978
1699665536160701000,9.901700927734375,-0.0019853119738399982,0.01687515154480934,-0.003817907767370343
1699665536170545000,9.911544921875,-0.0019853119738399982,-0.0069485921412706375,-0.00015271631127689034
1699665536180757000,9.921757080078125,-0.0007635815418325365,-0.0038942659739404917,0.0010690141934901476
1699665536190792000,9.9317919921875,0.0010690141934901476,-0.012446379289031029,0.0022907445672899485
1699665536201727000,9.94272705078125,0.0022907445672899485,0.0034361169673502445,-0.006872233934700489
1699665536211753000,9.9527529296875,0.0010690141934901476,0.0022143865935504436,0.003512475173920393
1699665536220821000,9.961821044921875,0.0029016099870204926,-0.016722436994314194,-0.003817907767370343
1699665536231981000,9.97298095703125,0.0029016099870204926,0.011377365328371525,-0.0025961773935705423
1699665536240875000,9.981875,0.0010690141934901476,-0.002672535367310047,-0.00015271631127689034
1699665536251713000,9.992713134765625,0.0022907445672899485,-0.01366810966283083,0.0010690141934901476
1699665536260839000,10.0018388671875,-0.0007635815418325365,0.015653422102332115,-0.0013744467869400978
1699665536270749000,10.0117490234375,-0.0019853119738399982,-0.006337726954370737,0.0010690141934901476
1699665536280906000,10.021906005859375,-0.0007635815418325365,0.0022143865935504436,-0.00015271631127689034
1699665536291952000,10.0329521484375,-0.0025961773935705423,0.0071013085544109344,-0.0007635815418325365
1699665536300963000,10.041963134765625,-0.0007635815418325365,-0.008781188167631626,0.0022907445672899485
1699665536310502000,10.051501953125,-0.00015271631127689034,0.011377365328371525,-0.005650503560900688
1699665536320485000,10.061485107421875,-0.0013744467869400978,0.002825251780450344,0.005955935921519995
1699665536331958000,10.0729580078125,0.001679879380390048,-0.01061378326267004,-0.0007635815418325365
1699665536340603000,10.081602783203126,0.0010690141934901476,0.012599095702171326,-0.0032070425804704428
1699665536351875000,10.092875,0.0010690141934901476,-0.00022907447419129312,0.005345070734620094
1699665536361217000,10.102217041015624,0.0029016099870204926,-0.010002918541431427,-0.0032070425804704428
1699665536371755000,10.112755126953125,0.001679879380390048,0.011988230049610138,0.0010690141934901476
1699665536381784000,10.1227841796875,0.00045814894838258624,-0.0038942659739404917,-0.0013744467869400978
1699665536391537000,10.132536865234375,0.0029016099870204926,-0.00939205288887024,0.00045814894838258624
1699665536400214000,10.141214111328125,-0.0007635815418325365,0.011377365328371525,-0.0019853119738399982
1699665536410349000,10.15134912109375,-0.0013744467869400978,-0.006337726954370737,-0.0007635815418325365
1699665536420184000,10.16118408203125,0.00045814894838258624,-0.004505131393671036,0.00045814894838258624
1699665536431306000,10.172305908203125,-0.0013744467869400978,0.009544769302010536,-0.0007635815418325365
1699665536440859000,10.18185888671875,-0.00015271631127689034,-0.008170322515070438,-0.00015271631127689034
1699665536450709000,10.191708984375,-0.00015271631127689034,-0.008170322515070438,-0.0013744467869400978
1699665536461531000,10.20253076171875,-0.0007635815418325365,0.006490443367511034,0.00045814894838258624
1699665536470699000,10.211698974609375,0.001679879380390048,-0.011224648915231228,-0.00015271631127689034
1699665536480667000,10.2216669921875,0.0010690141934901476,0.006490443367511034,-0.003817907767370343
1699665536490307000,10.23130712890625,-0.00015271631127689034,0.0034361169673502445,0.0029016099870204926
1699665536500810000,10.24181005859375,0.001679879380390048,-0.012446379289031029,-0.00015271631127689034
1699665536510784000,10.251783935546875,0.0010690141934901476,0.008323038928210735,-0.0025961773935705423
1699665536521619000,10.262618896484375,-0.0007635815418325365,0.004046982154250145,0.0029016099870204926
1699665536530209000,10.271208984375,0.0010690141934901476,-0.012446379289031029,-0.0007635815418325365
1699665536540378000,10.281378173828125,0.0010690141934901476,0.010766499675810337,-0.0019853119738399982
1699665536550414000,10.2914140625,-0.0007635815418325365,0.0022143865935504436,0.0029016099870204926
1699665536560329000,10.301328857421876,0.00045814894838258624,-0.011224648915231228,-0.0019853119738399982
1699665536570354000,10.31135400390625,0.001679879380390048,0.013209961354732513,-0.0019853119738399982
1699665536580204000,10.3212041015625,-0.0007635815418325365,0.00038179077091626823,0.0010690141934901476
1699665536591460000,10.332460205078124,0.0010690141934901476,-0.010002918541431427,-0.0013744467869400978
1699665536601582000,10.34258203125,-0.0007635815418325365,-0.000839939690195024,0.00045814894838258624
1699665536611969000,10.352968994140625,0.00045814894838258624,-0.008781188167631626,-0.0025961773935705423
1699665536621768000,10.362767822265624,0.0010690141934901476,0.011377365328371525,0.001679879380390048
1699665536631642000,10.37264208984375,0.00045814894838258624,-0.0020616701804101467,0.0010690141934901476
1699665536640832000,10.38183203125,0.00045814894838258624,-0.0069485921412706375,-0.0025961773935705423
1699665536651622000,10.392621826171874,0.00045814894838258624,0.007712173741310835,0.0010690141934901476
1699665536662092000,10.403092041015626,-0.00015271631127689034,0.0009926559869199991,-0.0013744467869400978
1699665536672547000,10.413547119140626,0.00045814894838258624,-0.0069485921412706375,-0.0025961773935705423
1699665536682460000,10.4234599609375,0.001679879380390048,0.005879578180611134,0.00045814894838258624
1699665536690900000,10.43189990234375,0.00045814894838258624,0.00038179077091626823,-0.0007635815418325365
1699665536700536000,10.4415361328125,-0.0007635815418325365,-0.008170322515070438,-0.00015271631127689034
1699665536710840000,10.451840087890625,0.00045814894838258624,0.004046982154250145,0.00045814894838258624
1699665536720410000,10.46141015625,-0.00015271631127689034,0.005268712528049946,0.00045814894838258624
1699665536730181000,10.47118115234375,0.00045814894838258624,-0.008170322515070438,0.0010690141934901476
1699665536740259000,10.481259033203125,0.0010690141934901476,-0.008170322515070438,-0.0007635815418325365
1699665536750187000,10.49118701171875,0.00045814894838258624,0.008323038928210735,-0.0007635815418325365
1699665536760660000,10.501659912109375,-0.00015271631127689034,-0.008170322515070438,0.0010690141934901476
1699665536770325000,10.511324951171876,0.001679879380390048,-0.0020616701804101467,-0.0007635815418325365
1699665536780662000,10.521662109375,0.0010690141934901476,0.010155634954571724,-0.0013744467869400978
1699665536790325000,10.531324951171875,0.00045814894838258624,-0.005115996580570936,0.0010690141934901476
1699665536800232000,10.54123193359375,-0.00015271631127689034,-0.005115996580570936,-0.0007635815418325365
1699665536810738000,10.551738037109375,0.0010690141934901476,0.009544769302010536,0.0010690141934901476
1699665536820708000,10.5617080078125,0.00045814894838258624,-0.0032834007870405912,0.0010690141934901476
1699665536830475000,10.57147509765625,0.00045814894838258624,-0.004505131393671036,-0.0025961773935705423
1699665536840305000,10.581304931640625,0.001679879380390048,0.0071013085544109344,0.0010690141934901476
1699665536850207000,10.59120703125,0.00045814894838258624,-0.000839939690195024,-0.00015271631127689034
1699665536860805000,10.60180517578125,0.00045814894838258624,-0.006337726954370737,-0.0019853119738399982
1699665536870469000,10.61146923828125,0.0022907445672899485,0.005879578180611134,0.00045814894838258624
1699665536880211000,10.6212109375,0.00045814894838258624,0.002825251780450344,-0.0007635815418325365
1699665536890627000,10.631626953125,-0.00015271631127689034,-0.010002918541431427,0.00045814894838258624
1699665536900634000,10.641634033203125,0.0010690141934901476,0.002825251780450344,-0.0013744467869400978
1699665536910492000,10.651491943359375,0.00045814894838258624,0.0071013085544109344,-0.0007635815418325365
1699665536920379000,10.66137890625,-0.00015271631127689034,-0.010002918541431427,0.001679879380390048
1699665536930590000,10.67158984375,0.0010690141934901476,0.00038179077091626823,-0.0013744467869400978
1699665536940534000,10.681533935546875,0.0010690141934901476,0.0071013085544109344,0.00045814894838258624
1699665536950625000,10.691625,0.00045814894838258624,-0.006337726954370737,-0.00015271631127689034
1699665536960524000,10.70152392578125,0.0010690141934901476,-0.0020616701804101467,-0.0019853119738399982
1699665536970553000,10.711552978515625,0.001679879380390048,0.007712173741310835,0.0022907445672899485
1699665536980340000,10.721340087890624,0.0010690141934901476,-0.0038942659739404917,-0.0013744467869400978
1699665536990553000,10.731552978515625,0.00045814894838258624,-0.005115996580570936,-0.0025961773935705423
1699665537000325000,10.7413251953125,0.001679879380390048,0.009544769302010536,0.0010690141934901476
1699665537011210000,10.7522099609375,0.00045814894838258624,-0.0020616701804101467,0.0010690141934901476
1699665537021438000,10.76243798828125,0.0010690141934901476,0.006490443367511034,0.00045814894838258624
1699665537031626000,10.7726259765625,0.00045814894838258624,0.0034361169673502445,-0.00015271631127689034
1699665537040362000,10.781362060546876,0.00045814894838258624,-0.010002918541431427,0.0010690141934901476
1699665537050348000,10.79134814453125,-0.00015271631127689034,0.004046982154250145,-0.0013744467869400978
1699665537060473000,10.80147314453125,-0.00015271631127689034,0.0071013085544109344,-0.0007635815418325365
1699665537070510000,10.811510009765625,-0.00015271631127689034,-0.00939205288887024,0.00045814894838258624
1699665537081123000,10.822123046875,-0.00015271631127689034,-0.00022907447419129312,-0.0007635815418325365
1699665537091232000,10.83223193359375,0.00045814894838258624,0.009544769302010536,-0.00015271631127689034
1699665537100691000,10.84169091796875,0.00045814894838258624,-0.008170322515070438,0.0010690141934901476
1699665537111283000,10.852282958984375,-0.00015271631127689034,-0.000839939690195024,-0.0025961773935705423
1699665537120455000,10.861454833984375,0.0010690141934901476,0.010766499675810337,0.0022907445672899485
1699665537131448000,10.872447998046875,-0.00015271631127689034,-0.005726861767470837,-0.00015271631127689034
1699665537141285000,10.88228515625,-0.00015271631127689034,-0.0038942659739404917,-0.0019853119738399982
1699665537150957000,10.89195703125,0.00045814894838258624,0.010155634954571724,0.0022907445672899485
1699665537161588000,10.902587890625,-0.00015271631127689034,-0.0032834007870405912,-0.00015271631127689034
1699665537171094000,10.912093994140625,-0.00015271631127689034,-0.006337726954370737,-0.0007635815418325365
1699665537181205000,10.922205078125,0.0010690141934901476,0.008323038928210735,-0.0007635815418325365
1699665537191080000,10.932079833984375,-0.00015271631127689034,0.0022143865935504436,-0.0007635815418325365
1699665537201560000,10.94256005859375,-0.00015271631127689034,-0.008170322515070438,0.0010690141934901476
1699665537211555000,10.95255517578125,0.0010690141934901476,0.0034361169673502445,-0.0013744467869400978
1699665537222173000,10.9631728515625,0.0010690141934901476,0.005268712528049946,-0.0013744467869400978
1699665537231538000,10.972537841796875,0.00045814894838258624,-0.008781188167631626,0.00045814894838258624
1699665537241522000,10.98252197265625,0.00045814894838258624,0.0009926559869199991,-0.0007635815418325365
1699665537251145000,10.99214501953125,0.0010690141934901476,0.007712173741310835,0.00045814894838258624
1699665537261522000,11.00252197265625,0.0010690141934901476,-0.005726861767470837,-0.0007635815418325365
1699665537271471000,11.01247119140625,-0.00015271631127689034,0.00038179077091626823,-0.0013744467869400978
1699665537281479000,11.02247900390625,0.0010690141934901476,0.006490443367511034,0.0029016099870204926
1699665537291545000,11.032545166015625,0.00045814894838258624,-0.005115996580570936,-0.0013744467869400978
1699665537301909000,11.042908935546874,-0.00015271631127689034,-0.0032834007870405912,-0.0019853119738399982
1699665537310929000,11.051928955078125,0.00045814894838258624,0.008323038928210735,0.001679879380390048
1699665537320453000,11.061453125,-0.00015271631127689034,-0.002672535367310047,0.00045814894838258624
1699665537331331000,11.0723310546875,-0.00015271631127689034,-0.0069485921412706375,-0.0013744467869400978
1699665537340457000,11.08145703125,0.0010690141934901476,0.008933904580771923,-0.0007635815418325365
1699665537350317000,11.091317138671876,-0.00015271631127689034,-0.000839939690195024,-0.00015271631127689034
1699665537360285000,11.101284912109374,-0.00015271631127689034,-0.008170322515070438,-0.00015271631127689034
1699665537370362000,11.111362060546876,0.00045814894838258624,0.0071013085544109344,-0.0013744467869400978
1699665537381058000,11.12205810546875,-0.00015271631127689034,0.002825251780450344,-0.00015271631127689034
1699665537390876000,11.1318759765625,-0.00015271631127689034,-0.008781188167631626,0.00045814894838258624
1699665537400457000,11.14145703125,0.00045814894838258624,0.004657847341150045,-0.0007635815418325365
1699665537410487000,11.151487060546875,0.00045814894838258624,0.006490443367511034,-0.0019853119738399982
1699665537420912000,11.161912109375,0.00045814894838258624,-0.010002918541431427,0.0010690141934901476
1699665537431189000,11.17218896484375,0.00045814894838258624,0.0034361169673502445,-0.0013744467869400978
1699665537440847000,11.18184716796875,0.00045814894838258624,0.008323038928210735,-0.0019853119738399982
1699665537450641000,11.191640869140626,0.0010690141934901476,-0.011835514567792416,0.00045814894838258624
1699665537460597000,11.201596923828125,0.00045814894838258624,0.002825251780450344,-0.00015271631127689034
1699665537470597000,11.21159716796875,-0.00015271631127689034,-0.008781188167631626,0.00045814894838258624
1699665537480646000,11.22164599609375,0.0010690141934901476,0.00038179077091626823,-0.00015271631127689034
1699665537490409000,11.231408935546876,0.001679879380390048,0.008933904580771923,0.0022907445672899485
1699665537500562000,11.24156201171875,-0.00015271631127689034,-0.0069485921412706375,-0.0007635815418325365
1699665537510577000,11.251576904296876,0.00045814894838258624,-0.002672535367310047,-0.0019853119738399982
1699665537520547000,11.261547119140625,0.00045814894838258624,0.011988230049610138,0.0022907445672899485
1699665537530415000,11.2714150390625,-0.0007635815418325365,-0.0069485921412706375,-0.00015271631127689034
1699665537543553000,11.284552978515626,0.00045814894838258624,-0.006337726954370737,-0.0013744467869400978
1699665537560185000,11.30118505859375,-0.00015271631127689034,-0.0069485921412706375,0.0010690141934901476
1699665537570313000,11.31131298828125,0.00045814894838258624,-0.005726861767470837,-0.0019853119738399982
1699665537580374000,11.3213740234375,0.0010690141934901476,0.011377365328371525,-0.0007635815418325365
1699665537590350000,11.33135009765625,0.00045814894838258624,-0.004505131393671036,0.00045814894838258624
1699665537600248000,11.341248046875,0.00045814894838258624,-0.0069485921412706375,-0.0007635815418325365
1699665537610759000,11.351759033203125,0.0010690141934901476,0.007712173741310835,-0.00015271631127689034
1699665537620264000,11.361263916015625,-0.00015271631127689034,0.0009926559869199991,-0.0013744467869400978
1699665537630397000,11.37139697265625,-0.0007635815418325365,-0.010002918541431427,0.001679879380390048
1699665537640325000,11.3813251953125,0.00045814894838258624,0.006490443367511034,-0.00015271631127689034
1699665537650368000,11.391367919921874,-0.00015271631127689034,0.004657847341150045,-0.0019853119738399982
1699665537660482000,11.40148193359375,-0.00015271631127689034,-0.01061378326267004,0.0010690141934901476
1699665537671310000,11.41231005859375,0.00045814894838258624,0.002825251780450344,-0.00015271631127689034
1699665537680263000,11.421262939453126,0.00045814894838258624,0.008933904580771923,-0.0013744467869400978
1699665537690207000,11.43120703125,-0.00015271631127689034,-0.00939205288887024,0.0010690141934901476
1699665537700453000,11.441453125,0.0010690141934901476,0.0009926559869199991,-0.0007635815418325365
1699665537710676000,11.451676025390626,0.0010690141934901476,0.009544769302010536,0.0010690141934901476
1699665537720654000,11.461654052734374,-0.00015271631127689034,-0.005726861767470837,-0.00015271631127689034
1699665537730400000,11.47139990234375,0.00045814894838258624,-0.0014508049935102463,-0.0019853119738399982
1699665537740169000,11.4811689453125,0.0010690141934901476,0.008933904580771923,0.0022907445672899485
1699665537750497000,11.4914970703125,0.00045814894838258624,-0.004505131393671036,-0.00015271631127689034
1699665537760179000,11.501178955078124,0.00045814894838258624,-0.004505131393671036,-0.0007635815418325365
1699665537770493000,11.511492919921874,0.001679879380390048,0.009544769302010536,0.0010690141934901476
1699665537780349000,11.521348876953125,0.00045814894838258624,-0.002672535367310047,0.00045814894838258624
1699665537790447000,11.531447021484375,-0.00015271631127689034,-0.0069485921412706375,0.00045814894838258624
1699665537800481000,11.54148095703125,0.0010690141934901476,0.006490443367511034,-0.00015271631127689034
1699665537810361000,11.551361083984375,0.00045814894838258624,0.002825251780450344,-0.0013744467869400978
1699665537821202000,11.562201904296876,-0.00015271631127689034,-0.00939205288887024,0.0010690141934901476
1699665537830215000,11.57121484375,-0.00015271631127689034,0.0034361169673502445,-0.0019853119738399982
1699665537840350000,11.581349853515626,0.00045814894838258624,0.002825251780450344,-0.0007635815418325365
1699665537850155000,11.591155029296875,0.00045814894838258624,-0.006337726954370737,0.00045814894838258624
1699665537860474000,11.60147412109375,-0.00015271631127689034,0.0009926559869199991,-0.0007635815418325365
1699665537870433000,11.61143310546875,0.00045814894838258624,0.004657847341150045,0.00045814894838258624
1699665537880413000,11.621412841796875,-0.0007635815418325365,-0.004505131393671036,-0.0013744467869400978
1699665537890471000,11.631470947265624,0.00045814894838258624,-0.000839939690195024,-0.0013744467869400978
1699665537900409000,11.6414091796875,-0.00015271631127689034,-0.0038942659739404917,0.00045814894838258624
1699665537910353000,11.651352783203125,-0.0007635815418325365,-0.0020616701804101467,-0.0019853119738399982
1699665537920228000,11.66122802734375,0.0010690141934901476,0.0071013085544109344,0.0010690141934901476
1699665537930615000,11.671614990234374,0.00045814894838258624,-0.000839939690195024,0.0010690141934901476
1699665537940523000,11.68152294921875,-0.0007635815418325365,-0.0014508049935102463,-0.00015271631127689034
1699665537950546000,11.6915458984375,0.00045814894838258624,0.002825251780450344,0.00045814894838258624
1699665537960386000,11.701385986328125,0.00045814894838258624,0.0034361169673502445,-0.0007635815418325365
1699665537970507000,11.711507080078125,0.00045814894838258624,-0.0038942659739404917,0.0022907445672899485
1699665537980500000,11.7215,-0.00015271631127689034,0.0009926559869199991,-0.0013744467869400978
1699665537990505000,11.7315048828125,0.00045814894838258624,0.0034361169673502445,-0.0007635815418325365
1699665538000406000,11.741406005859375,0.00045814894838258624,-0.0020616701804101467,-0.00015271631127689034
1699665538010400000,11.75139990234375,0.00045814894838258624,-0.00022907447419129312,-0.0025961773935705423
1699665538020679000,11.761678955078125,0.0010690141934901476,0.002825251780450344,-0.00015271631127689034
1699665538030979000,11.77197900390625,0.00045814894838258624,-0.000839939690195024,-0.0007635815418325365
1699665538040556000,11.78155615234375,-0.0007635815418325365,-0.0020616701804101467,-0.003817907767370343
1699665538050401000,11.791401123046874,0.0010690141934901476,0.002825251780450344,0.0022907445672899485
1699665538060242000,11.801241943359376,0.00045814894838258624,-0.0014508049935102463,-0.00015271631127689034
1699665538070537000,11.811536865234375,-0.0007635815418325365,-0.004505131393671036,-0.00015271631127689034
1699665538080518000,11.821517822265625,0.00045814894838258624,0.004657847341150045,0.00045814894838258624
1699665538090505000,11.8315048828125,-0.00015271631127689034,0.004657847341150045,-0.0007635815418325365
1699665538100487000,11.84148681640625,-0.00015271631127689034,-0.0069485921412706375,0.0010690141934901476
1699665538110399000,11.85139892578125,0.00045814894838258624,0.0034361169673502445,-0.0007635815418325365
1699665538120410000,11.86141015625,0.0010690141934901476,0.0034361169673502445,0.00045814894838258624
1699665538130683000,11.871682861328125,-0.00015271631127689034,-0.0032834007870405912,0.001679879380390048
1699665538140408000,11.881407958984376,0.00045814894838258624,0.00038179077091626823,-0.00015271631127689034
1699665538150233000,11.891233154296875,0.00045814894838258624,0.004657847341150045,-0.0007635815418325365
1699665538160371000,11.901370849609375,0.00045814894838258624,-0.0014508049935102463,0.001679879380390048
1699665538170528000,11.911528076171875,-0.0013744467869400978,-0.00022907447419129312,-0.0013744467869400978
1699665538180453000,11.921453125,0.0010690141934901476,0.002825251780450344,0.0022907445672899485
1699665538190508000,11.931508056640626,0.0010690141934901476,-0.0020616701804101467,0.0010690141934901476
1699665538200506000,11.941506103515625,0.00045814894838258624,-0.002672535367310047,-0.0013744467869400978
1699665538210352000,11.95135205078125,0.0010690141934901476,0.004046982154250145,0.0010690141934901476
1699665538220391000,11.961390869140626,0.001679879380390048,0.0009926559869199991,-0.0013744467869400978
1699665538230456000,11.9714560546875,0.00045814894838258624,-0.005726861767470837,-0.0013744467869400978
1699665538240650000,11.98164990234375,0.0010690141934901476,0.0034361169673502445,-0.0013744467869400978
