time,seconds_elapsed,z,y,x
1700516283880310000,0.06331005859375,-1.2098135966569183,0.7132628358900547,-0.6237114520415663
1700516283890320100,0.073320068359375,-1.0944073483228682,0.3087298490852117,0.13098905392382293
1700516283900330000,0.083330078125,0.07319967624545097,0.0970021382458508,0.1271436305420473
1700516283910340000,0.093340087890625,0.6762877347141504,-0.08703706294000148,0.22595446217767892
1700516283920351000,0.10335107421875,1.8030986385136842,-0.3976414737254381,-0.31216124830599873
1700516283930361000,0.113361083984375,-1.5264491043001411,-0.328420053461194,0.07763309211563318
1700516283940371000,0.123370849609375,-1.0084002129524945,1.4273914948292077,0.03355217752251774
1700516283950381000,0.133381103515625,1.0495096374541522,0.3473614852964878,-0.27605646369121967
1700516283960391200,0.14339111328125,1.3330676358819007,-1.9306278708398341,0.7258166125148534
1700516283970401000,0.153401123046875,-1.653784859880805,0.7342419110327959,-0.5392860329046845
1700516283980411100,0.1634111328125,-0.8976987813085318,0.37452830916345115,0.15432948790304363
1700516283990421000,0.1734208984375,0.14719079512953756,0.2180678736463189,0.16505601256806401
1700516284000431000,0.18343115234375,0.705466482925415,-0.2369812484309077,0.2794666739935055
1700516284010441000,0.19344091796875,1.6994629074722527,-0.42165684782415624,-0.4246236252078786
1700516284020446700,0.20344677734375,-1.400267194929719,-0.1925171066738665,0.13924082250576467
1700516284030456800,0.213456787109375,-0.9712374802500009,1.4925994416683912,0.111608463486284
1700516284040467700,0.2234677734375,0.4564437913060188,0.25729835253357886,-0.2738919791337103
1700516284050477800,0.233477783203125,1.426533855086565,-2.072632349372655,0.6126739251986145
1700516284060487700,0.24348779296875,-0.6082867961555719,0.5179482074521482,-0.49829756790157403
1700516284070497800,0.253497802734375,-0.8451450027287006,0.19305194420292973,0.09854721226338296
1700516284080507600,0.263507568359375,-0.6430483129352331,0.3335430955633521,0.17059424787499008
1700516284090517800,0.273517822265625,0.6023585751503706,-0.2754465881645679,0.13408300135117024
1700516284100527900,0.28352783203125,2.2518998061120508,-0.31582594482600684,-0.3698668932236731
1700516284110537700,0.293537841796875,-1.0158604658305643,-0.48930268933475013,0.003576324116811156
1700516284120547800,0.3035478515625,-1.2007844870269297,1.6498441594310105,0.04481293692840263
1700516284130557700,0.3135576171875,0.6786351746231317,-0.1693399369649589,-0.13849931995607911
1700516284140567800,0.32356787109375,0.9893664266586303,-2.012184748803079,0.5958179944004863
1700516284150578700,0.33357861328125,-0.3479407464891672,0.6046636372223496,-0.8047193957727402
1700516284160588800,0.3435888671875,-0.8660738089889287,0.31669118335321544,0.000022102233953773973
1700516284170598700,0.3535986328125,-0.8932494006842374,0.2894546552509069,0.18801924726534633
1700516284180608800,0.36360888671875,0.9679612350583076,-0.7231289808660745,0.04555277724396437
1700516284190619000,0.373618896484375,1.9434604644060134,-0.11630641204416751,-0.3913660467177629
1700516284200628700,0.383628662109375,-1.1121002414017915,-0.21250132556036114,-0.10691741959322243
1700516284210638800,0.393638916015625,-1.1589116769373415,1.8273845001168547,-0.24486791002750397
1700516284220648700,0.403648681640625,0.7038403430283069,-0.8623103648021817,0.21889705447945743
1700516284230658800,0.413658935546875,0.8924772472679614,-0.8586687934294343,0.19780750469956546
1700516284240668700,0.423668701171875,-0.7853788085520267,0.3761116328321397,-0.5076241991734132
1700516284250679800,0.4336796875,-0.870668735563755,0.7479505567811429,0.11750110172145067
1700516284260689700,0.443689697265625,-0.8591612531214952,0.03871756092905998,0.299011040158011
1700516284270699800,0.45369970703125,2.005556562834978,-0.5374329523839056,0.029387532123737035
1700516284280709600,0.463709716796875,1.6622043131798505,-0.19282880297154187,-0.24967114559076725
1700516284290719700,0.4737197265625,-1.7747317912071943,0.2201322588302195,0.1537475963618606
1700516284300729900,0.483729736328125,-0.9680722942173481,1.8317660762019454,-0.2711380955819972
1700516284310739700,0.49373974609375,1.4259434879779815,-1.6445666574195026,0.562529363184981
1700516284320749800,0.503749755859375,0.763233027717471,-0.5014402863740921,-0.17632791442247106
1700516284330759700,0.513759765625,-1.1687480112969875,0.17489523300454018,-0.09903028307259082
1700516284340769800,0.523769775390625,-0.9869552738636731,0.6131047178313136,0.21270402679191902
1700516284350780700,0.53378076171875,-0.5279524457246065,-0.07542582786232233,0.2594105589145794
1700516284360790800,0.543790771484375,2.4005022216051817,-0.5135509954065084,-0.08766040073642507
1700516284370800600,0.553800537109375,-0.23894845685064792,-0.33051322634816166,-0.08877628955645486
1700516284380810800,0.563810791015625,-1.9648013585984705,0.7857261606849729,0.24239138211244715
1700516284390820900,0.57382080078125,0.03269464737772941,1.253032560658455,-0.2505158527866006
1700516284400830700,0.583830810546875,1.879463500791788,-2.1178442407570777,0.7581155385732651
1700516284410840800,0.5938408203125,-0.26233985383212566,0.2829319754838943,-0.4193867840003222
1700516284420850700,0.6038505859375,-1.4966618688017128,0.33749022575393317,-0.10781363778058439
1700516284430861800,0.61386181640625,-0.6366723481625318,0.4833411505818367,0.24943408543188123
1700516284440871700,0.62387158203125,0.6426812331885099,-0.5246748853586614,0.14962858020309358
1700516284450881800,0.6338818359375,2.5210744744002818,-0.2512668172843754,-0.3241595099398866
1700516284460891600,0.6438916015625,-0.7642442505866288,-0.20951120383366942,-0.21483647224334998
1700516284470901800,0.65390185546875,-1.6285393594652413,1.1700120398834346,0.03347819897085428
1700516284480911600,0.66391162109375,0.16635434528291224,0.4971316293947398,-0.34769203242510555
1700516284490921700,0.673921630859375,1.9169792847156524,-1.7051986746452747,0.5175567969817668
1700516284500931800,0.683931884765625,-0.3084352500528097,0.3298787278369069,-0.573448085953854
1700516284510941700,0.693941650390625,-1.3404945710122584,0.27634719026610255,-0.13189811332644893
1700516284520952600,0.70395263671875,-0.8110884193480015,0.4272882778398692,0.25527249099547045
1700516284530962700,0.713962646484375,0.7206354104846715,-0.39023587364405393,-0.05166046473560854
1700516284540972800,0.723972900390625,2.4712960057526825,-0.20289850769564508,-0.19326027145767583
1700516284550982700,0.733982666015625,-1.2145692667514085,-0.4392385356135666,-0.004741184911411255
1700516284560992800,0.74399267578125,-1.6000567768245935,1.6354313109360634,-0.10491028102189302
1700516284571002600,0.754002685546875,0.5056932676434517,-0.054176119084656235,0.03716514385528862
1700516284581012700,0.7640126953125,1.5854256094038486,-1.4964282061763108,0.5383029036188498
1700516284591022800,0.77402294921875,-0.5864724392324686,0.3075122899889946,-0.5076595262151211
1700516284601033700,0.78403369140625,-1.2523778961420058,0.5159679934203625,0.036584384825266894
1700516284611043600,0.794043701171875,-0.6477151357024907,0.2685134279005229,0.4209955343712121
1700516284621053700,0.8040537109375,1.1698363910555838,-0.5307634114921093,-0.08000314571522175
1700516284631063800,0.814063720703125,1.9509259779810904,-0.2568552849411964,-0.0706905795013532
1700516284641073700,0.82407373046875,-1.3127151682049034,-0.3526483396582305,-0.02261175437849015
1700516284651083800,0.834083740234375,-1.298597795525193,1.8313127794764934,-0.08596437394088134
1700516284661093600,0.84409375,0.6811205616980791,-0.7090370348885655,-0.04518398046419024
1700516284671103700,0.854103759765625,1.4952993482768535,-1.190324760071933,0.5045030714781955
1700516284681114600,0.864114501953125,-0.8270902906000613,0.19885113200098276,-0.5684135623853653
1700516284691124700,0.874124755859375,-1.036754785299301,0.5736287397503852,0.0062629145859740675
1700516284701134600,0.884134521484375,-0.7092401562452316,0.03534808449596166,0.3569943695059046
1700516284711144700,0.894144775390625,1.5244348418682814,-0.4066187070377171,-0.2383521349253133
1700516284721154800,0.90415478515625,1.9579566072702406,-0.33571737086251374,-0.10924631919851525
1700516284731164700,0.91416455078125,-1.7531126645952462,-0.21169147048220038,-0.04199751418149098
1700516284741174800,0.9241748046875,-1.226362580397725,1.9091576511792838,-0.20676665436588226
1700516284751185700,0.934185546875,0.9548293662846088,-1.105027234275639,0.1524208047375083
1700516284761195800,0.94419580078125,1.3865432054817677,-0.7910309890948235,0.2720323227416724
1700516284771205600,0.95420556640625,-1.1068003814280032,0.20635230141133068,-0.5201071390517056
1700516284781215700,0.9642158203125,-1.2393582555711269,0.7096293016932904,0.06426935081481933
1700516284791225600,0.9742255859375,-0.6717430770218372,0.039150253257900475,0.29729042691048235
1700516284801235700,0.984235595703125,2.0326801320821044,-0.26463380998820063,-0.17885120408870278
1700516284811245600,0.99424560546875,1.4525351423054933,-0.40021475827954706,0.01256751288920641
1700516284821255700,1.004255615234375,-1.8856079948961733,0.10114332970380782,-0.08300846501104533
1700516284831266600,1.0142666015625,-1.1875544185757636,1.9671334548078476,-0.19001186412097884
1700516284841276700,1.024276611328125,1.2443652700781822,-1.4299904252812266,0.3061977733243257
1700516284851286500,1.03428662109375,1.1926257304906844,-0.6164503749974072,0.22465645825639366
1700516284861296600,1.044296630859375,-1.0910837568581104,0.19033552485108374,-0.44689409186802803
1700516284871306800,1.054306640625,-1.0917378368526696,0.777900581625849,0.129799990269728
1700516284881316600,1.064316650390625,-0.6127542969584465,-0.16481442236453295,0.2781272055506706
1700516284891326700,1.07432666015625,2.298659219199419,-0.3775017720162868,-0.21007899378426373
1700516284901337600,1.084337646484375,1.1664280439168213,-0.41526904648318885,0.008208440896868705
1700516284911347700,1.09434765625,-1.878236004823446,0.14937727232314646,-0.054028673437982795
1700516284921357600,1.104357666015625,-0.987751977199316,1.787092529477924,-0.2952364900553599
1700516284931367700,1.11436767578125,1.3422656723380089,-1.6758111059889196,0.4296871922077611
1700516284941377500,1.12437744140625,0.909571005409956,-0.3727206021543592,0.002011449420265853
1700516284951387600,1.1343876953125,-1.1569669726103544,0.03190780784897506,-0.34759017948582766
1700516284961397800,1.144397705078125,-0.9273410553783178,0.8023137228704988,0.10423649167986586
1700516284971408600,1.15440869140625,-0.462553214097023,-0.3249159908629954,0.23863215744309127
1700516284981418500,1.16441845703125,2.5118355214118955,-0.18715967129394412,-0.2795619875941425
1700516284991428600,1.1744287109375,0.5183943437844515,-0.5079068520396948,0.024293460387736557
1700516285001438700,1.184438720703125,-1.9125246433943508,0.5751083107836544,-0.0917067717840895
1700516285011448600,1.194448486328125,-0.6685089174062013,1.573725819259882,-0.27154523334447295
1700516285021459200,1.204459228515625,1.7346213146150111,-1.9243492289617656,0.5437495881848037
1700516285031470300,1.21447021484375,0.48356502246558664,0.000666062693297863,-0.19412797593660652
1700516285041480200,1.224480224609375,-1.473166426923871,0.2251873502627015,-0.24561739495424553
1700516285051490300,1.234490234375,-0.9332903191715478,0.6257281986914575,0.13372337425854056
1700516285061500200,1.244500244140625,0.1354904204636812,-0.22246961573660373,0.22634006396178155
1700516285071510000,1.254510009765625,2.6507266902297735,-0.10958061092048883,-0.3470481815636158
1700516285081520000,1.26452001953125,-0.6359405267566443,-0.5497387455970049,0.05679532513972371
1700516285091530000,1.274530029296875,-1.886390085184574,0.9978278194032609,-0.0811180116219446
1700516285101541400,1.284541259765625,0.10923311265707016,1.2118436411798,-0.27754876634189857
1700516285111551200,1.29455126953125,2.175739526495337,-2.1667544021375478,0.5337229919500649
1700516285121561300,1.304561279296875,-0.5263543628782034,0.30336028487607836,-0.33592166126295925
1700516285131571200,1.3145712890625,-1.7668197029083965,0.43606312044784423,-0.13969631118830292
1700516285141581300,1.324581298828125,-0.38119185870587824,0.20273747191503644,0.15680205202903597
1700516285151591400,1.33459130859375,0.9180530025511979,-0.1007934933528304,0.11441818714477121
1700516285161602300,1.344602294921875,2.2313076844602824,-0.24314342432245611,-0.31851138451769945
1700516285171612200,1.354612060546875,-1.643353482237458,-0.44456586811617016,0.07020681457240134
1700516285181622300,1.364622314453125,-1.4708084656208753,1.2636726126164197,-0.009249474382400513
1700516285191632400,1.37463232421875,1.0467021788179873,0.7050685696490109,-0.2532381721562706
1700516285201642200,1.384642333984375,2.028054225847125,-2.2832143973082304,0.5782008699715138
1700516285211652400,1.39465234375,-1.488008022224903,0.6347181453548372,-0.3713121601285413
1700516285221663200,1.404663330078125,-1.5537322480231524,0.46479573232680554,-0.05061415228676051
1700516285231673300,1.41467333984375,0.2993061871796846,-0.01753799477815628,0.19118589460272342
1700516285241683200,1.42468310546875,1.2029939797699452,-0.20299714576452968,0.18778277162835
1700516285251693300,1.434693359375,1.3408669114559888,-0.18463965129703283,-0.31497173914946613
1700516285261703200,1.444703125,-1.949729461672902,-0.29277488571479915,0.08959849265953525
1700516285271713300,1.45471337890625,-0.7341004567354917,1.2290338454335927,0.009498736435733734
1700516285281724200,1.46472412109375,1.3110364213377237,0.3182268684878945,-0.22878612367333842
1700516285291734300,1.474734375,1.5407009170144796,-1.9530071681693195,0.581837180647254
1700516285301744000,1.484744140625,-1.9028361930727957,0.7200006197124719,-0.41482554049938913
1700516285311754200,1.494754150390625,-1.074310316711664,0.3995581210017204,0.021090390030108392
1700516285321764400,1.504764404296875,0.5762707786917686,-0.27393808329775926,0.2726213929423131
1700516285331774200,1.514774169921875,1.011581181076169,0.4009994058512151,-0.041846689267642796
1700516285341785000,1.52478515625,1.1337713904619215,-0.5379438245154917,-0.19212856401400638
1700516285351795200,1.534795166015625,-2.041439192599058,-0.3141077427312732,0.0789517004335299
1700516285361805300,1.544805419921875,-0.3638526013702154,1.5655496731974183,-0.11444529434740543
1700516285371815200,1.554815185546875,1.4057862506121397,0.017140666023641823,-0.0968476052712649
1700516285381825300,1.5648251953125,1.0622007767230273,-2.0220735440023243,0.4542488020123914
1700516285391835100,1.574835205078125,-2.0168150389522315,0.8951626869596541,-0.41439693982377646
1700516285401846300,1.58484619140625,-0.7215069326221942,0.35163857809379695,-0.052890061329491436
1700516285411856100,1.594856201171875,0.5241659129232168,-0.33603637368381023,0.37243257899321613
1700516285421866200,1.6048662109375,1.0673644430965183,0.38488735222294923,-0.18888044893825426
1700516285431876000,1.6148759765625,0.936708603182435,-0.6701958475798369,-0.04759367195442318
1700516285441886200,1.62488623046875,-1.9464795199662446,-0.13714680936858056,-0.02830675114970654
1700516285451896000,1.63489599609375,-0.21645137836039066,1.648271357156336,-0.041414033471420406
1700516285461907200,1.6449072265625,1.5130851803362368,-0.41619872854873535,-0.06445796872209757
1700516285471917000,1.6549169921875,0.9947954659700393,-1.8542815671317279,0.5055177284134552
1700516285481927200,1.66492724609375,-2.0708079104244708,0.985636884741485,-0.5105959084605798
1700516285491937300,1.674937255859375,-0.6466226642906665,0.3852104466974735,-0.04393723180610686
1700516285501947100,1.684947021484375,0.4861906947940588,-0.3703733814410865,0.3356331266451627
1700516285511958000,1.6949580078125,1.5064029260933398,0.21638503512591123,-0.18329152462370693
1700516285521968000,1.704968017578125,0.5327431871324777,-0.6241567115910351,-0.12475567595958709
1700516285531978200,1.714978271484375,-2.1597335635900494,0.10403729757964611,-0.007235248483158647
1700516285541988000,1.724988037109375,-0.0676560706436634,1.7444044574826956,-0.12460841297600418
1700516285551998200,1.734998291015625,1.8219395325839518,-1.0129451629057526,0.06846137741087004
1700516285562008000,1.745008056640625,0.6050760174155235,-1.2964705742381513,0.25777550505865365
1700516285572019200,1.755019287109375,-2.388048982745409,1.0075127625934779,-0.410855175563693
1700516285582029000,1.765029052734375,-0.41373920656740665,0.3240978063479066,-0.017081885041110217
1700516285592039200,1.7750390625,0.6551420708328485,-0.25614260662719607,0.28959581728726624
1700516285602049000,1.785049072265625,1.7808651793956756,0.16545286639854312,-0.1438168617170304
1700516285612059100,1.79505908203125,-0.19539865345954893,-0.6608148557722568,-0.1268405194096267
1700516285622070000,1.805070068359375,-2.0135785412490366,0.32957755293324587,0.08625356614580378
1700516285632080100,1.815080078125,0.4282160602092743,1.796000496946275,-0.2596234344802797
1700516285642090000,1.825090087890625,1.950766403505206,-1.7041873056456445,0.3446617978837341
1700516285652100000,1.83510009765625,0.0523760839253664,-0.6872193169645965,0.008181315427925438
1700516285662110200,1.845110107421875,-2.3375638271331787,0.7920593092292547,-0.19825426208637653
1700516285672121300,1.855121337890625,-0.05577274062633514,0.2705798589110374,-0.025371757143735883
1700516285682131200,1.865131103515625,0.6930225964158773,-0.22204437606185673,0.31373025118838993
1700516285692141300,1.875141357421875,1.8314643167763947,-0.08219999817237257,-0.17211314627164973
1700516285702151400,1.8851513671875,-0.8841448877304792,-0.40108956835269927,-0.15013691331772133
1700516285712161300,1.895161376953125,-1.6944225752174853,0.4425875537805259,0.16981738175097852
1700516285722172200,1.905172119140625,0.6678092447042465,1.5372661202602087,-0.36210911870375273
1700516285732182300,1.915182373046875,1.9029729711949823,-2.0002607945144177,0.5435144642546773
1700516285742192400,1.9251923828125,-0.5047621242731809,-0.06436477401331067,-0.2261331432128325
1700516285752202200,1.9352021484375,-2.186288977560401,0.5549265234984457,-0.1226150837343186
1700516285762212400,1.94521240234375,0.19847382312119005,0.23873189149051904,-0.0288073941482231
1700516285772223200,1.95522314453125,0.7593126394033431,-0.17941884790882467,0.318375008254312
1700516285782233300,1.9652333984375,1.7425129446476697,0.04662555757462978,-0.3241446046316996
1700516285792243200,1.9752431640625,-1.3000503324210644,-0.47902021864280103,-0.026050953313242642
1700516285802253300,1.98525341796875,-1.3706401184290646,0.7174383680090308,0.04724244736395776
1700516285812263200,1.99526318359375,0.8715811742335557,1.3166975158393381,-0.3340650736108422
1700516285822274300,2.0052744140625,1.8466379205107688,-2.0842790941551326,0.5216289783241227
1700516285832284200,2.0152841796875,-0.8700520649701357,0.21160700706914065,-0.2769436583219096
1700516285842294300,2.025294189453125,-1.925870447179675,0.4445378110654652,-0.15768281691893934
1700516285852304100,2.03530419921875,0.374073551133275,0.15800810335054993,0.025359810977615416
1700516285862314200,2.045314208984375,0.7690987048804759,-0.08473696930408477,0.26911099193487314
1700516285872325000,2.0553251953125,1.7127894220352171,-0.005158990198373794,-0.40419407370667904
1700516285882335200,2.065335205078125,-1.4719406845211982,-0.5986589899800717,0.09710760791432112
1700516285892345000,2.075344970703125,-1.2131868724822998,0.961947673857212,-0.04930471365600824
1700516285902355200,2.085355224609375,0.9658616324305533,1.1095073022991417,-0.28973507962748407
1700516285912365300,2.095365234375,1.7728659973353147,-2.259437508140504,0.5643962165027856
1700516285922376200,2.105376220703125,-1.1289023231208324,0.4179591623499989,-0.33257545610759404
1700516285932386000,2.115385986328125,-1.7475281424611806,0.4454099177248776,-0.13099405889250337
1700516285942396200,2.125396240234375,0.4266992259055376,0.054260582497715946,0.12264365224167705
1700516285952406300,2.13540625,0.7894166857659817,-0.004103489796072245,0.17494318206580356
1700516285962416000,2.145416015625,1.6869254974603651,-0.16716843814477322,-0.31882874337118117
1700516285972427000,2.155427001953125,-1.7129209394603966,-0.48145621361806984,0.05645655817203223
1700516285982437000,2.16543701171875,-1.0878817459464072,1.1643895238265394,-0.011227642587572336
1700516285992447200,2.175447265625,1.1701952874958514,0.8058221693828701,-0.27829160233214495
1700516286002457000,2.18545703125,1.7449036391764878,-2.3562863555207847,0.6234928408548236
1700516286012467200,2.19546728515625,-1.5145686968922614,0.7422808405816554,-0.43580794011037793
1700516286022482200,2.205482177734375,-1.5255471870243549,0.4512589360140264,-0.03804415517952293
1700516286032492300,2.2154921875,0.5170049352526664,-0.12262334010601043,0.19928239955771712
1700516286042502100,2.225502197265625,0.9650228435188531,0.14391308863312005,0.0866408301640302
1700516286052512300,2.23551220703125,1.517784736329317,-0.37231063311398027,-0.24175723066106436
1700516286062523100,2.245523193359375,-2.0679647959530354,-0.26738193965256213,0.024357867393456398
1700516286072533200,2.255533203125,-0.8123340354949236,1.4402024610854685,0.019507413421291857
1700516286082543000,2.265543212890625,1.4871645571380854,0.23265797840431332,-0.2519020829806104
1700516286092553200,2.27555322265625,1.5275924291163683,-2.2633780624598265,0.6436667370945215
1700516286102563000,2.28556298828125,-1.9389391875892876,0.9997079340614378,-0.5138068698637187
1700516286112574200,2.29557421875,-1.1929893031060694,0.4281391955807805,0.0022972623580135403
1700516286122584000,2.305583984375,0.6508750610381364,-0.15769757609665394,0.19511517860936
1700516286132594200,2.31559423828125,1.4594599731326103,-0.21198986890688537,0.10686424636757001
1700516286142604000,2.32560400390625,0.7733475944966077,-0.22363968242928384,-0.3213314834397286
1700516286152615200,2.335615234375,-2.1732553084641695,-0.07890314858406781,0.07799253654517233
1700516286162625000,2.345625,-0.3313531843036413,1.4197114617206155,0.009759433198533951
1700516286172635100,2.35563525390625,1.5753823542952536,-0.281091900575161,-0.1753745409540832
1700516286182645000,2.36564501953125,1.2068494861543178,-1.6787888066254555,0.5242695924934
1700516286192655000,2.375655029296875,-2.1964275097370147,0.8321464049458503,-0.476524894695729
1700516286202666200,2.385666259765625,-0.7574521062284708,0.3944941156104207,-0.01202156944423914
1700516286212676400,2.39567626953125,0.6729886931687593,-0.31730697716400025,0.31085769142676145
1700516286222686200,2.405686279296875,1.3857488402336835,0.25505451912954447,-0.11086255875611677
1700516286232696300,2.4156962890625,0.5251058241218328,-0.5749348539128899,-0.15932053765598683
1700516286242707200,2.425707275390625,-2.1544617606669663,-0.0516166438601911,0.05228643288053572
1700516286252717300,2.43571728515625,0.0007207154899835586,1.720259027263522,-0.10969466575421392
1700516286262727200,2.44572705078125,1.6457845087766647,-0.7768009498208761,0.008605952314473688
1700516286272737300,2.4557373046875,0.7685656209170818,-1.4697370369970797,0.36306115873157974
1700516286282748200,2.465748046875,-2.2876024031341076,0.8599107563145458,-0.3967774042420089
1700516286292758300,2.47575830078125,-0.34134909313917156,0.37870837132707236,-0.08650551334656774
1700516286302768000,2.48576806640625,0.6419137559473514,-0.29013007029443977,0.3966054452085867
1700516286312778200,2.4957783203125,1.4178572121560573,0.13636281938403844,-0.21854330913834272
1700516286322789000,2.5057890625,0.19052315637767314,-0.5422894525043666,-0.08245484971627592
1700516286332799200,2.51579931640625,-1.9660767853617667,0.06336801806092261,0.0142926379150711
1700516286342809000,2.52580908203125,0.1902636286586523,1.7367276392444968,-0.12851303746541962
1700516286352819200,2.535819091796875,1.570739496925473,-1.0869143622189759,0.10630604622922837
1700516286362829300,2.545829345703125,0.47728959545791144,-1.1662529796108603,0.2778841540424153
1700516286372840200,2.555840087890625,-2.229070134666562,0.8197206386148929,-0.3874507729701698
1700516286382850000,2.56585009765625,-0.11454349402487277,0.4102880432002246,-0.06175018933443352
1700516286392860200,2.575860107421875,0.4678583347678184,-0.3395119408398867,0.3998083694357425
1700516286402870300,2.585870361328125,1.5348323172420262,0.20632585179582236,-0.2562450806209817
1700516286412881200,2.595881103515625,-0.046393502384424204,-0.5978939969569445,-0.07311218062508851
1700516286422891300,2.605891357421875,-1.9330776020795106,0.19453268427997827,0.04516969621051103
1700516286432901000,2.615901123046875,0.33039982910156246,1.7375236119277775,-0.2045464575657621
1700516286442911200,2.6259111328125,1.7208178301900625,-1.431707458332181,0.23093961191279813
1700516286452922000,2.635922119140625,0.12709843969345092,-0.8010153536230326,0.1283106650274247
1700516286462932200,2.64593212890625,-2.2719378010123967,0.7200446049846708,-0.335720220406726
1700516286472942000,2.655942138671875,0.1401005446076393,0.35987390699759125,-0.07695979596395044
1700516286482952200,2.6659521484375,0.49359483357071876,-0.2531286656334996,0.3733416931947693
1700516286492963000,2.675963134765625,1.6310358524560928,0.16526552713289855,-0.32203619764298197
1700516286502973200,2.68597314453125,-0.47867198972702024,-0.6772443047866225,-0.010768902502022682
1700516286512983000,2.695983154296875,-1.775875700545311,0.4396576378084719,0.02136748993843794
1700516286522993200,2.7059931640625,0.5999468378335238,1.7091724005818365,-0.25511377503611143
1700516286533004300,2.71600439453125,1.759049653428793,-1.9327851950041948,0.38146943353824314
1700516286543014400,2.726014404296875,-0.3024789719969034,-0.3561167464211583,-0.041288562194537366
1700516286553024300,2.736024169921875,-2.132979412177205,0.6669178488224744,-0.2845189158817753
1700516286563034400,2.746034423828125,0.29914018296301365,0.2845715593844652,0.00402629637401551
1700516286573045200,2.756045166015625,0.5718389337241649,-0.2027189133450389,0.2971836786003783
1700516286583055400,2.766055419921875,1.6946943778961896,-0.06279854760989546,-0.2589810449235141
1700516286593065200,2.776065185546875,-1.0937912622511385,-0.29265257450938226,-0.12533895574025808
1700516286603075300,2.786075439453125,-1.4171838429391383,0.45217955799028275,0.13682515793247146
1700516286613086200,2.796086181640625,0.728221335569024,1.412475519117713,-0.3734651003787294
1700516286623096300,2.806096435546875,1.7360037088841198,-1.9242188805803655,0.5416625162450597
1700516286633106200,2.816106201171875,-0.6627157209575176,0.05390504705831408,-0.23785189378559587
1700516286643117300,2.826117431640625,-1.90197051615417,0.38525735457912086,-0.1238325514989905
1700516286653127200,2.836127197265625,0.482324082493782,0.309225523647666,-0.0525874251211062
1700516286663137300,2.84613720703125,0.5368675735861063,-0.10852642569243907,0.3476180904060602
1700516286673147100,2.856147216796875,1.5837813493281603,0.1030988476857543,-0.3979875106841326
1700516286683158300,2.866158203125,-1.2992863623112438,-0.6229191326200961,0.11073120572771876
1700516286693168000,2.876168212890625,-1.2361936540603637,0.8116593511037528,-0.049867626502085476
1700516286703178200,2.88617822265625,0.8847826011121273,1.2732418204724787,-0.25842081722486765
1700516286713188000,2.89618798828125,1.6118939296126364,-2.18078804205656,0.47704099099170416
1700516286723199200,2.90619921875,-0.9763871180981397,0.26193945633769034,-0.2513928000179119
1700516286733209000,2.916208984375,-1.7251912229686974,0.4144187132641673,-0.1537927141452208
1700516286743219200,2.92621923828125,0.5456792410731315,0.1404873519681394,0.043800672879628834
1700516286753229000,2.93622900390625,0.6084305885404347,-0.03323591464757919,0.25674203382506966
1700516286763240200,2.946240234375,1.5470044010728596,-0.006216390296816826,-0.3642172334315255
1700516286773250000,2.95625,-1.3857248748362063,-0.5568202282905579,0.08446958707217127
1700516286783260200,2.96626025390625,-1.0394956084400415,0.9189284702114761,0.0029019867855124173
1700516286793271300,2.976271240234375,0.9129097944438457,1.0660846324190496,-0.3230430365979671
1700516286803281400,2.986281494140625,1.6917045484304427,-2.2676783900022506,0.5891907217478379
1700516286813291000,2.996291015625,-1.0281915396153927,0.4615833461515605,-0.3309007643610239
1700516286823301000,3.006301025390625,-1.6890075644314289,0.47294396746903655,-0.12187705178335308
1700516286833312300,3.016312255859375,0.43052141454219817,-0.041808512681722636,0.11602456289548427
1700516286843322400,3.026322265625,0.7953332163333893,0.11024652748331427,0.20611211771359667
1700516286853332200,3.036332275390625,1.6339368345946073,-0.13800430298075078,-0.36896187067534775
1700516286863343400,3.04634326171875,-1.766561928755045,-0.3876213072314858,0.044997956372797486
1700516286873353200,3.056353271484375,-1.0321323861956595,1.0664619412988423,0.008692388488911091
1700516286883363300,3.06636328125,1.1345254236996174,0.7957407742209732,-0.3456483977682888
1700516286893373200,3.076373291015625,1.7324112373501062,-2.254012852743268,0.6142872056141495
1700516286903384300,3.08638427734375,-1.4683295082867145,0.7036418978467583,-0.41812633561044926
1700516286913394200,3.096394287109375,-1.5879413916170597,0.38733591441884635,-0.04948832659460604
1700516286923404300,3.106404296875,0.6380366222530603,-0.1327434598430991,0.14075285277022048
1700516286933414100,3.1164140625,0.983926865953207,0.16184592794775962,0.12707980805821717
1700516286943425300,3.12642529296875,1.3467016089588404,-0.2745779886364937,-0.29537268365565683
1700516286953435100,3.13643505859375,-1.9400287363916635,-0.35986440851688384,0.05245702194077894
1700516286963445200,3.1464453125,-0.7076946803689003,1.2351583196632563,0.00834375771433115
1700516286973456100,3.1564560546875,1.2916186041623354,0.49646410539671776,-0.31506434933636335
1700516286983466200,3.16646630859375,1.57585523250401,-2.2234933574475346,0.639092195720598
1700516286993476000,3.17647607421875,-1.7362077070236206,0.8673981894604861,-0.473842779472284
1700516287003487200,3.1864873046875,-1.325763450348377,0.38064723043516274,-0.040099717736151064
1700516287013497000,3.1964970703125,0.641041649287939,-0.27251754897534847,0.22540068248612805
1700516287023504000,3.20650390625,1.089997130665183,0.27397885369956493,0.027582053604349493
1700516287033513700,3.216513671875,1.1442787559509278,-0.4131288195841014,-0.23885760022941976
1700516287043524900,3.22652490234375,-2.0954373247683047,-0.24000746438428758,0.04644552483260631
1700516287053534700,3.23653466796875,-0.502201333874464,1.3824866235673428,0.010248568422347306
1700516287063544800,3.246544921875,1.442938461920619,0.1447451555430889,-0.26626082666814327
1700516287073555700,3.2565556640625,1.4667916311949492,-2.1466958028405903,0.6145397190704941
1700516287083565800,3.26656591796875,-2.0283926640212533,0.9927727279707789,-0.4879049513660371
1700516287093575700,3.27657568359375,-1.1150509079009294,0.3733936060450971,-0.008785108273662627
1700516287103586600,3.286586669921875,0.7225549803704023,-0.36826267289742826,0.2566104798672721
1700516287113596700,3.2965966796875,1.2712316496938467,0.3374957787118852,-0.05900978631880134
1700516287123606800,3.306606689453125,0.8390782500356435,-0.5303538077779114,-0.19183902474921197
1700516287133616600,3.31661669921875,-2.2242460755109787,-0.10049129553586245,0.0351410906817764
1700516287143627500,3.32662744140625,-0.2725730785548687,1.569541665443033,0.0016985658125020563
1700516287153637600,3.3366376953125,1.6060224072307347,-0.31926760971248147,-0.18410116050615905
1700516287163647700,3.346647705078125,1.2595470571190117,-1.8745163997784255,0.5039741157006472
1700516287173658600,3.35665869140625,-2.2944968388229605,1.0958747905269264,-0.4731725520605221
1700516287183668700,3.366668701171875,-0.8550625856310129,0.3517342935532331,-0.01856101768296212
1700516287193678600,3.3766787109375,0.8060176919549703,-0.3402184816740453,0.28202371979886665
1700516287203689500,3.386689453125,1.5519336741685867,0.1950499861523509,-0.05384476823844015
1700516287213699600,3.396699462890625,0.37164427815973755,-0.48148120192885396,-0.1922782198840752
1700516287223709700,3.406709716796875,-2.1743273216098546,-0.042404725009202955,0.06210687555130571
1700516287233719600,3.416719482421875,0.006623217532038688,1.6029823088824748,-0.07328647774606943
1700516287243730700,3.426730712890625,1.7027736394554376,-0.6910141792029142,-0.05484324122387915
1700516287253740800,3.43674072265625,0.9459136539012193,-1.5062792997136711,0.4070294067304581
1700516287263751000,3.4467509765625,-2.4329011009067294,0.9564372398726642,-0.435299186870642
1700516287273761800,3.45676171875,-0.5564905579447746,0.3638454409770667,-0.05921917301947251
1700516287283771600,3.466771728515625,0.8150088076621294,-0.329733912538737,0.2825467207596637
1700516287293781800,3.47678173828125,1.5740245099455117,0.1412326173774898,-0.07304653151035309
1700516287303792600,3.486792724609375,-0.07514847222566604,-0.4301902828916907,-0.2058325883861631
1700516287313802800,3.496802734375,-1.9146277531534432,-0.05683364785611629,0.08836728863045573
1700516287323812600,3.5068125,0.19567805492281912,1.5913301572725176,-0.1316118985299021
1700516287333823700,3.51682373046875,1.604235523813963,-0.7940526750035584,0.014103307621739804
1700516287343833600,3.52683349609375,0.6996504901230335,-1.2472360032089054,0.3590468450563028
1700516287353843700,3.53684375,-2.330299389088154,0.8328074992030858,-0.4095249498732388
1700516287363854600,3.5468544921875,-0.45919981201589105,0.3885007204145193,-0.09324885012693702
1700516287373864700,3.55686474609375,0.7280489016115665,-0.38978140787482257,0.42050705673452465
1700516287383874600,3.56687451171875,1.538288595175743,0.46421939374357457,-0.24934388639777896
1700516287393885700,3.5768857421875,0.08666706058382988,-0.7918355834759772,0.024470424389839172
1700516287403895600,3.5868955078125,-1.8361761477291583,0.03267126650214195,-0.05140588718634098
1700516287413905700,3.59690576171875,0.0063315411090850825,1.6570190194964407,-0.0655149486954324
1700516287423916500,3.60691650390625,1.4977613544762134,-0.8340972467526793,-0.01652070749439299
1700516287433926700,3.6169267578125,0.8813596409261226,-1.3354742586322128,0.38964795422088355
1700516287443936500,3.6269365234375,-2.1349311307668684,0.8593202430754899,-0.45180740020964294
1700516287453948000,3.636947998046875,-0.7032441307008266,0.35369229575321076,-0.08122625776939094
1700516287463957800,3.646957763671875,0.6281973652839661,-0.32112975032255053,0.4537123205155134
1700516287473967900,3.6569677734375,1.8354145157068966,0.3356676865018904,-0.32607305194362995
1700516287483978800,3.666978759765625,0.21542378887832164,-0.661486909814924,0.019823402301594614
1700516287493988900,3.67698876953125,-1.9757582214206455,-0.04500643194019794,-0.03658873220682144
1700516287503998700,3.686998779296875,-0.20821721850037572,1.6863306003071368,-0.11113423357065766
1700516287514009600,3.697009521484375,1.5235791018217801,-0.6536920181550085,-0.06001624168129637
1700516287524019700,3.707019775390625,1.1057242766290902,-1.474822377437353,0.4375959925709292
1700516287534029800,3.71702978515625,-2.1106524295568465,0.8863117103755473,-0.46435518548507243
1700516287544040700,3.727040771484375,-0.8597907831966877,0.35828429971858855,-0.06254296541363001
1700516287554050600,3.737050537109375,0.6357318524420261,-0.4625875547580421,0.4363907814996317
1700516287564060700,3.747060791015625,1.6338970871061085,0.7789489216350018,-0.28652461141468955
1700516287574071600,3.757071533203125,0.6067980189025401,-0.974920552676916,0.02848104827068746
1700516287584081700,3.76708154296875,-2.159457084736228,-0.03663227908760309,0.021649192956648765
1700516287594091800,3.777091796875,-0.18533669365048408,1.7862363510400057,-0.08671630655303597
1700516287604102700,3.7871025390625,1.6545429847717283,-0.5801657403036952,-0.05806256859656423
1700516287614112500,3.797112548828125,0.9472212293684482,-1.944334324631095,0.543962500283122
1700516287624122600,3.80712255859375,-1.9156869068175553,1.0850424308672546,-0.4005830801352858
1700516287634133500,3.817133544921875,-1.214460545679927,0.23653189722821116,-0.023736155298538505
1700516287644143600,3.8271435546875,0.29402327834069725,-0.1601905619561672,0.4202613018125295
1700516287654154800,3.83715478515625,1.5978782637417315,0.3282986190386116,-0.4526552857432514
1700516287664164900,3.847164794921875,1.0976894387334584,-0.842647779085487,-0.08948085762923583
1700516287674174700,3.8571748046875,-2.0197569376230238,0.08897504526525735,-0.13224749301970004
1700516287684185900,3.867185791015625,-0.8196043187588453,1.7758790615461766,-0.05684267141278833
1700516287694195700,3.87719580078125,1.2705682173490525,-0.46535029746964574,-0.20643643603082745
1700516287704205800,3.887205810546875,1.847857233172655,-1.8044174660272896,0.27775135797560213
1700516287714216700,3.897216796875,-1.6397680249661206,1.0198498277276753,-0.23433186643328516
1700516287724226800,3.907226806640625,-1.3949451231241226,0.3546216855578124,-0.04284019381701946
1700516287734236700,3.917236572265625,0.13952420602440832,-0.09684913964122534,0.2563952662140131
1700516287744247600,3.92724755859375,2.134385771843791,0.014847878911346197,-0.03890080854147673
1700516287754257700,3.937257568359375,1.315060270026326,-0.6117145786471665,-0.14638603635160252
1700516287764267800,3.947267822265625,-2.4857722748726605,-0.2002881790667772,-0.006383125165849924
1700516287774278700,3.957278564453125,-0.6010480770736932,1.626660121589899,0.1072445691883564
1700516287784288800,3.967288818359375,2.0064280849725007,-0.7612108742401004,-0.2101989303695038
1700516287794299600,3.977299560546875,1.2793991740584372,-1.7796296462513506,0.21247016323711723
1700516287804309500,3.9873095703125,-2.3172242189377545,0.8972641892835498,-0.1596618253743276
1700516287814319600,3.997319580078125,-0.72261518612504,0.24060791449546812,-0.001043261975236237
1700516287824330800,4.007330810546875,0.3782394386410713,-0.11148206062763928,-0.006933817851170897
1700516287834340600,4.017340576171875,1.657253997296095,0.17721461586281656,0.18507055352758614
1700516287844350500,4.0273505859375,0.60911097202003,-0.5919206216357648,-0.44173459021300077
1700516287854361900,4.03736181640625,-2.1002660600990057,-0.03301832637414336,0.19894085611104964
1700516287864371700,4.047371826171875,0.01565700333714485,1.9351340962179004,-0.19108765839263794
1700516287874381800,4.0573818359375,1.4238415472626684,-0.8530259652368724,0.012044475395791232
1700516287884392700,4.067392822265625,0.4104910184264183,-1.393241241815686,0.1396171084722504
1700516287894402800,4.07740283203125,-2.1872493470251557,1.25732631232962,-0.11115019832476973
1700516287904413700,4.08741357421875,-0.21730185770988464,0.318843246820569,0.0886458863761276
1700516287914423800,4.097423828125,0.06705635118484497,-0.026969547729194163,0.05251878033168614
1700516287924433700,4.10743359375,1.451595815628767,0.3645167643673718,0.3300737024197355
1700516287934444500,4.117444580078125,0.12241758840084076,-0.5083220087118446,-0.3416131143702194
1700516287944454700,4.12745458984375,-1.7710533949553966,0.24896906173601746,0.36314682772103696
1700516287954464800,4.13746484375,0.3696177407681942,1.892274467048049,-0.29559951468147333
1700516287964475600,4.1474755859375,1.2845979117453097,-1.2479293923005461,0.17224227081034332
1700516287974485800,4.15748583984375,-0.0037210663497447964,-1.1776216381043194,0.06108312199413776
1700516287984496600,4.16749658203125,-2.023504891979694,0.9066519030928611,-0.26211221908871085
1700516287994506500,4.177506591796875,0.32240473869442937,0.2508407008267939,-0.12974091702625154
1700516288004516600,4.1875166015625,0.018284429231286047,-0.20650120836272834,0.05832045234777033
1700516288014527700,4.19752783203125,1.6498586263477801,0.04893003512471914,0.09856474792007357
1700516288024537900,4.207537841796875,0.18965455684959887,-0.8253494382821023,-0.3284385389659554
1700516288034547700,4.217547607421875,-1.3114888412803412,0.15204466490149496,0.27615393271632493
1700516288044558800,4.227558837890625,0.666034636247158,1.6803747606426476,-0.2621444773904979
1700516288054568700,4.237568603515625,1.2990917165219784,-1.7606090117000042,0.24716164698787033
1700516288064579800,4.247579833984375,-0.5110813904225826,-0.8917081625916063,0.08864015075508505
1700516288074590000,4.25758984375,-1.657680698275566,1.1004609492734074,-0.2658813258312642
1700516288084600000,4.26760009765625,0.3246013719558716,-0.0571861145555973,-0.01299991295710206
1700516288094611000,4.27761083984375,-0.030055531045794486,0.04734232754185796,-0.021403876426070927
1700516288104621000,4.28762109375,1.6761410685956477,0.1069023316219449,0.03227693342231214
1700516288114632000,4.2976318359375,-0.6509884582847356,-0.4430789905592799,-0.4226926936779171
1700516288124641800,4.307641845703125,-1.3165870412021874,0.5837254786118865,0.21496201658546923
1700516288134652000,4.31765185546875,0.556101850888133,1.7001723709158598,-0.43134690558090805
1700516288144662800,4.327662841796875,1.2092542092084884,-1.9540932098403572,0.4004665045509115
1700516288154673000,4.3376728515625,-0.8502034551620483,-0.15840265562608838,-0.1963955555424094
1700516288164683800,4.347683837890625,-1.56770524379611,1.081818354254216,-0.017056494871526957
1700516288174694000,4.35769384765625,0.40190497638881206,-0.0836805921189487,-0.13290690677650271
1700516288184703700,4.367703857421875,0.055288171979784966,0.31804128278791904,0.23205796668455003
1700516288194715000,4.37771484375,1.5932248849779367,-0.13276041097790003,0.020594496271945536
1700516288204724700,4.387724853515625,-1.154558157902956,-0.49443391474336384,-0.18548501607999204
1700516288214736000,4.39773583984375,-0.6958569430589675,0.8843721206150948,0.16478486747648566
1700516288224745700,4.407745849609375,0.9963269133210182,1.278157357303798,-0.3781718898301944
1700516288234755800,4.417755859375,1.2813660902172326,-2.3614896232523024,0.5726631461212411
1700516288244767000,4.42776708984375,-1.4090087197899817,0.3121186147406697,-0.267037071737647
1700516288254776800,4.43777685546875,-0.9529758473724126,0.7355570852845906,-0.08631978151611984
1700516288264788000,4.4477880859375,0.7522802565485238,-0.29289427431076764,-0.08998981179837137
1700516288274797800,4.4577978515625,0.30436463961303234,-0.033820144276320935,0.22800796064138412
1700516288284808000,4.467807861328125,1.36266665533185,-0.23291297607868908,-0.17479571815282105
1700516288294818800,4.47781884765625,-1.5164280610233545,-0.34399931538701056,-0.12591109307240694
1700516288304829000,4.487828857421875,-0.3406868298381567,0.9518803072206675,0.03500076889563351
1700516288314839800,4.49783984375,1.0067015923410654,0.8719020767509936,-0.32373240710161627
1700516288324850000,4.507849853515625,1.1069675546884536,-2.351880521777272,0.5263288631107658
1700516288334859800,4.51785986328125,-1.7551175746768712,0.6799826437093317,-0.27263967751767487
1700516288344871000,4.527870849609375,-0.6077537121921778,0.536057864638418,-0.005585727710463106
1700516288354880800,4.537880859375,0.6376712960720062,-0.43672596827074883,-0.02387092412672937
1700516288364891600,4.5478916015625,0.3925958807736635,0.3919748262658715,0.22000629436299204
1700516288374901800,4.55790185546875,0.9964210213452577,-0.4734440259456634,-0.24765282803829758
1700516288384913000,4.567912841796875,-1.6705203061044216,-0.2847923625282943,0.03523180117253214
1700516288394923000,4.577923095703125,0.04671148229241371,1.3440563551470637,-0.07302746148370205
1700516288404932900,4.587932861328125,1.0884335346102714,0.48006081373691556,-0.26260106205157935
1700516288414944000,4.597944091796875,0.8518366093218326,-2.3348155513383446,0.5044194848479703
1700516288424953900,4.607953857421875,-2.0291841066598892,1.1092039354383945,-0.3636386663585901
1700516288434965000,4.617965087890625,-0.23844167637228963,0.47386400492340325,0.000994454397447407
1700516288444974800,4.627974853515625,0.498551579195261,-0.37700726649761196,0.027317009459994733
1700516288454985000,4.63798486328125,0.6213374163866042,0.46866029880046844,0.24503764057122168
1700516288464995800,4.647995849609375,0.6623813744366168,-0.5236762297101318,-0.24544731735065578
1700516288475006000,4.658005859375,-1.5592910511940716,-0.10460691416114568,0.10385887227281927
1700516288485016800,4.668016845703125,0.22579145363569258,1.4975290070250629,-0.0948985535627231
1700516288495027000,4.67802685546875,1.0019523519873619,0.12593436435014008,-0.1738069993764162
1700516288505037800,4.688037841796875,0.7172960369288921,-2.141335152590275,0.4781698488911614
1700516288515047700,4.698047607421875,-1.8251175780981779,1.1659015358246863,-0.38907377106212077
1700516288525057800,4.708057861328125,-0.22424247062802313,0.4002553094856441,0.009210311415791511
1700516288535068700,4.718068603515625,0.4087941513806581,-0.45037060887217517,0.06382485845033078
1700516288545078800,4.728078857421875,1.019121513453126,0.40594957560449835,0.0607235679667443
1700516288555090000,4.73808984375,0.5103928236365318,-0.6602059300936758,-0.3201122803756967
1700516288565100000,4.74810009765625,-1.7020494168341158,-0.21175795984715223,0.11014927765391766
1700516288575111000,4.75811083984375,0.36867958313524724,1.4717372709035872,-0.13384093622360377
1700516288585121000,4.76812109375,1.2528098578184843,-0.13537073960676788,-0.11818933971393852
1700516288595131000,4.778130859375,0.4880974051982164,-1.9359790226094424,0.43363026727773246
1700516288605141800,4.788141845703125,-2.1883634457468983,1.1898080427214504,-0.31527287752050903
1700516288615151900,4.79815185546875,0.1921715081065893,0.2614148479416966,0.014597484346851706
1700516288625162800,4.808162841796875,0.4378793760895729,-0.4367613318450749,0.1559867901233956
1700516288635172900,4.8181728515625,0.8871697885096073,0.7402825063712895,-0.01143277323823422
1700516288645183700,4.828183837890625,0.3498147236675024,-0.9463711884103715,-0.17280352142229674
1700516288655193900,4.83819384765625,-1.7120406494945286,0.0556765867754817,0.0932993016725406
1700516288665203700,4.84820361328125,0.47319560414254663,1.752080837329477,-0.08483096773047
1700516288675214800,4.85821484375,1.2463228338867425,-0.5757213281154632,-0.0066139747796580195
1700516288685224700,4.868224609375,0.21431962702870366,-1.8837910086020826,0.2950664672506973
1700516288695235800,4.87823583984375,-2.1371283485502004,1.3759322334878146,-0.2623996577279642
1700516288705246000,4.888245849609375,0.36808453985154627,0.06667436612993478,-0.0008771481607109308
1700516288715256800,4.8982568359375,0.14833411994576454,-0.18181100374236703,0.14405362961497156
1700516288725267000,4.908266845703125,0.9483727374911308,0.21995967874228953,0.15869816797394304
1700516288735277800,4.91827783203125,-0.06281622939705848,-0.7193876023806631,-0.3475780141239986
1700516288745288000,4.928287841796875,-1.2904039676755665,0.05482420772984624,0.1287428093669936
1700516288755297800,4.9382978515625,0.5408791473150253,1.614231432649493,-0.19846501876022665
1700516288765309000,4.948308837890625,1.183437630906701,-0.8740998790562152,0.11683785203974693
1700516288775318800,4.95831884765625,0.07350362762808799,-1.4418185179799794,0.14174118795413523
1700516288785330000,4.968329833984375,-1.9175012627631425,1.1807207731634377,-0.0655902241550386
1700516288795339800,4.97833984375,0.4964075529038906,0.09955474533811211,-0.09362254227753727
1700516288805350700,4.9883505859375,0.1673719978928566,-0.0999678561836481,0.18555139584708957
1700516288815360800,4.99836083984375,1.1005202782452106,0.4747463407158851,-0.024147147252224384
1700516288825371600,5.00837158203125,-0.3156155169457197,-0.8611924666881561,-0.19529734850954264
1700516288835381800,5.0183818359375,-1.1413830345094202,0.3471137941457331,0.06028817222416401
1700516288845393000,5.028392822265625,0.7023696859538555,1.765667171872407,-0.304039791572839
1700516288855403000,5.038403076171875,1.1238222433775662,-1.2364940983116626,0.11462134503405541
1700516288865412900,5.048412841796875,-0.3718301561206579,-1.066378646929562,-0.03386756361462176
1700516288875424000,5.058424072265625,-1.661125285771489,1.2392607865460217,-0.17514464118834583
1700516288885433900,5.068433837890625,0.557834373769164,-0.19220438746288418,-0.1725406692350283
1700516288895445000,5.078445068359375,-0.28970190801024437,0.16364947023838758,0.17066402517557144
1700516288905454800,5.088454833984375,1.4194126249045134,0.6997220940545201,-0.16024437450263648
1700516288915465700,5.0984658203125,-0.08780921635627746,-1.936429104464501,-0.10780468728914856
1700516288925475800,5.108475830078125,-1.639894281694293,1.242532209432125,0.15634422525893896
1700516288935486700,5.11848681640625,0.9497861114203929,1.9036743974626062,-0.3569020150473341
1700516288945496800,5.128496826171875,1.5027256988853215,-2.7761434604465958,0.42184762115590274
1700516288955507700,5.1385078125,-1.027832643175125,-0.19228578213602304,-0.1257171779355034
1700516288965517800,5.148517822265625,-1.4407219549149275,1.8637448303952813,-0.2557810433058068
1700516288975527700,5.158527587890625,0.31277707864940163,-2.9155905095815657,0.39624654876831916
1700516288985539000,5.1685390625,-0.8293740176230668,4.081076888734102,-0.45566221247427163
1700516288995549000,5.178548828125,3.959118150016665,-2.803413744688034,0.27910036143176253
1700516289005559800,5.188559814453125,-2.507469142895937,-0.9364711411647498,-0.35708581064902245
1700516289015570000,5.19856982421875,-2.373137829339504,4.588422892020643,0.6101866018949076
1700516289025580300,5.208580322265625,4.025290119582414,-2.4091088680393993,-0.3848925763873383
1700516289035590100,5.218590087890625,0.7003191831648349,-4.199228051862121,0.671020754096657
1700516289045601000,5.22860107421875,-3.4258991620659827,3.9128614257544276,-0.6444589103855193
1700516289055611100,5.238611083984375,-0.5063642987728119,0.004722936868667602,0.19644429005496203
1700516289065622000,5.2486220703125,1.4180220473289489,0.07685366870835424,-0.2213642848432064
1700516289075632000,5.258632080078125,3.3922996748030183,-5.603766932761669,-0.16445179959721862
1700516289085643300,5.268643310546875,-3.879721957218647,5.601388513192534,0.011868242046050727
1700516289095653400,5.2786533203125,-0.49794601451754567,0.5841707381613552,-0.13204780572913585
1700516289105664300,5.288664306640625,3.7325340846985577,-7.356542328226566,0.2206231110870838
1700516289115674400,5.29867431640625,-2.0532032801508904,0.8085451646059751,-0.04189630056302994
1700516289125685200,5.308685302734375,-2.1287544879585503,5.636890034684538,-0.4628731667663902
1700516289135695000,5.318695068359375,3.0666543467521667,-4.8135640650540585,0.3743095883788541
1700516289145705200,5.328705322265625,0.4474865778684616,-4.769890343022346,-0.18228402808159588
1700516289155716000,5.338716064453125,-1.0772919628709554,7.971082924079894,-0.23007859290298074
1700516289165726200,5.348726318359375,0.6601368103802204,-3.4990082374185323,0.10791969197094439
1700516289175737000,5.358737060546875,-0.6569803921759129,-4.392281603500247,-0.1211650310564786
1700516289185747200,5.368747314453125,-0.2979915974497795,2.929342556080222,-0.0016836422380059957
1700516289195758000,5.378758056640625,0.7676824083417654,2.2064194730497895,-0.23796773871760815
1700516289205768200,5.388768310546875,0.0987573113501072,-6.996997068661451,0.4428535112403333
1700516289215779300,5.398779296875,-1.936894530019164,2.9391163465976713,-0.302089972679317
1700516289225789200,5.4087890625,1.8413216939240693,2.953935145545006,0.29985994860492643
1700516289235800300,5.41880029296875,0.631701574012637,-6.351542863628268,-0.12943521207794545
1700516289245810200,5.42881005859375,-2.0961925270497797,0.21028116529285906,0.32391430300716306
1700516289255821300,5.4388212890625,-0.02521685884296894,4.9089983694612975,-0.4136407876942306
1700516289265831200,5.4488310546875,2.752706470757723,-3.6585207539826627,0.21243034268338232
1700516289275842300,5.45884228515625,-1.6240391254365443,-4.686660271149873,0.09264858267884701
1700516289285852200,5.46885205078125,-1.4668909999161959,7.113417462474107,-0.19121468230579047
1700516289295863000,5.478863037109375,2.4835826558738945,-3.873647313480079,0.2636977712471038
1700516289305873200,5.488873046875,-0.8313754205733537,-4.477839241537452,-0.0009076894294470548
1700516289315884000,5.498884033203125,-1.8507862723618744,3.107219873635471,-0.13805380467828363
1700516289325894100,5.50889404296875,1.5753829388171434,2.4851287162721154,-0.20235428128372876
1700516289335905000,5.518905029296875,1.5356231753587721,-7.927355426034331,0.35195736171938474
1700516289345915100,5.5289150390625,-3.0850954278498888,2.7399709078252314,-0.4051682525010779
1700516289355926300,5.53892626953125,0.9482815520763397,3.1293738377764817,0.27031013859156516
1700516289365936400,5.548936279296875,1.8908166694551705,-7.487527253964543,-0.3736147379824891
1700516289375947300,5.558947265625,-1.8891344154566525,-1.1669102744758129,0.2115134105015546
1700516289385957000,5.56895703125,-0.6828139216125011,5.322434209167957,-0.7449144039556383
1700516289395968300,5.57896826171875,4.051971205759048,-3.532444058552384,0.530294734534435
1700516289405978000,5.58897802734375,-0.3973012819856405,-6.693774000298976,-0.4692328379914164
1700516289415989200,5.5989892578125,-2.626721545264125,7.611659245067834,0.3826659498464316
1700516289425999000,5.6089990234375,3.1633757683604955,-5.114412805500626,0.050132067858241494
1700516289436010200,5.61901025390625,-0.11451368340849875,-3.8312119010716676,-0.10543744670115411
1700516289446020000,5.62902001953125,-3.0025264502346514,3.288598477309942,0.2618340962670743
1700516289456031000,5.639031005859375,2.0292267767578362,1.5018306497417389,0.3663835811525583
1700516289466041000,5.649041015625,1.9456816475868224,-8.682968626397848,-0.4082139038072899
1700516289476052200,5.65905224609375,-4.649565342986583,4.916120184165239,0.6299051921151578
1700516289486062300,5.669062255859375,3.941609965854883,-3.265321646618843,0.16125110385976732
1700516289496073200,5.6790732421875,-0.6035995151221751,-6.26213088825047,-0.6483534336060285
1700516289506083300,5.689083251953125,-4.958541275787353,1.968098792708665,0.20600177094060926
1700516289516094200,5.69909423828125,5.161358681070804,-2.983366407212615,0.29386980481203645
1700516289526104300,5.709104248046875,0.27639000649452206,-5.338116931468248,-0.7578792455993593
1700516289536115200,5.719115234375,-1.7850298978596926,-1.1621388222903013,1.2651219346418976
1700516289546125000,5.729125,2.8617952065080403,-5.336128972521424,-2.09948367754966
1700516289556136200,5.73913623046875,-0.8322995496809482,0.04742883678153157,1.8531817891962825
1700516289566146000,5.74914599609375,0.7901870856165886,-2.706422566227615,-0.5747307096429168
1700516289576157200,5.7591572265625,1.1512620389670134,-8.17031019591689,-1.5208967308700083
1700516289586167000,5.7691669921875,-2.316104274997115,3.3500662147074936,1.6505360872179269
1700516289596178200,5.77917822265625,0.7100929736822843,-9.916710795652866,-0.7897515437435358
1700516289606188300,5.789188232421875,-2.6068536462336778,-4.246401306447386,-1.116251588927582
1700516289616199200,5.79919921875,2.4245845234602688,2.381053570900112,2.2451294351942837
1700516289626209300,5.809209228515625,4.773564063099027,-8.723557241895794,-2.489055242066085
1700516289636220200,5.81922021484375,-2.905624995884299,2.317772062078863,0.7647855178564786
1700516289646230300,5.829230224609375,3.4992478913933036,-5.43287494404912,0.9701604986682534
1700516289656241200,5.8392412109375,-4.265027680984139,-5.489350864508748,-1.4743848628029226
1700516289666251300,5.849251220703125,1.0451794992953538,2.1147110572978853,2.604612589308619
1700516289676262100,5.85926220703125,3.0639293057024477,-9.352648341149091,-2.0216504962846638
1700516289686272300,5.869272216796875,-4.387247700986266,-0.15056348643302916,0.7580318058125675
1700516289696283100,5.879283203125,5.125828518006205,-3.42976460532248,0.8958812104925513
1700516289706293000,5.88929296875,-2.5572183854490516,-6.52524581810832,-1.8424466063007712
1700516289716304400,5.899304443359375,0.8205038979470729,1.0780756605945527,2.1721303960874674
1700516289726314200,5.909314208984375,2.4622885234326124,-11.419334203207493,-1.46828216201365
1700516289736325400,5.919325439453125,-5.2705695818960665,-2.7051509388566015,-0.35350228960644453
1700516289746335200,5.929335205078125,2.2748253391474482,-6.463817828199267,1.3986673585176468
1700516289756346000,5.93934619140625,0.31470249375402926,-5.780818613147735,-1.5430572708822785
1700516289766356200,5.949356201171875,3.11834595554471,-0.26047610578686,1.258192719900608
1700516289776367000,5.9593671875,5.788382910922169,-8.463837215173244,-1.3870299660854042
1700516289786377200,5.969377197265625,-1.0536281786888837,-0.44327290569618344,0.003307517112791538
1700516289796388000,5.97938818359375,-0.24139935713410376,-7.246085811254382,1.5345318729907274
1700516289806398200,5.989398193359375,1.4255167869985104,-0.33323154539614913,-2.1060943278610704
1700516289816409000,5.9994091796875,-0.600162526410818,-3.2833748974427577,2.2916351657815275
1700516289826419200,6.009419189453125,3.3181068958669897,-5.062288650509715,-1.844625119383633
1700516289836430000,6.01943017578125,-2.5143536417126655,-3.6700159614652392,1.227644875293225
1700516289846441200,6.029441162109375,1.4055571180313824,-8.633876970970631,-0.4323679557243362
1700516289856451300,6.039451416015625,-4.344604491046071,-1.998692668414861,-0.17336243394669143
1700516289866462200,6.049462158203125,4.186487812754511,-7.414388952517509,1.005597284360975
1700516289876472300,6.059472412109375,-1.6773299861192703,-4.80054383996129,-1.6263165688492356
1700516289886483200,6.069483154296875,3.4869226628273724,-4.296530195967853,2.0538493229694663
1700516289896493300,6.079493408203125,3.2229379643976688,-3.2234587734013793,-0.8819475238166748
1700516289906504200,6.089504150390625,0.4909919575959444,-2.570266083070636,1.1689444106519222
1700516289916514000,6.09951416015625,2.5257950731813907,-7.999747293028235,-0.6566307019554078
1700516289926525200,6.109525146484375,-3.8002842633664606,-3.0558436144024133,-0.2588360469622537
1700516289936535000,6.11953515625,-0.5895739123791456,-7.05942108387053,1.6063414100520312
1700516289946546200,6.129546142578125,1.337293144622445,-2.801270887440443,-1.9816487407639622
1700516289956556000,6.13955615234375,2.997125467973947,-2.7280034066557883,0.5642598767720163
1700516289966567200,6.149567138671875,4.114572331100702,-5.476208474341035,0.5912912011584267
1700516289976577300,6.159577392578125,1.4213555756658314,-1.6042711796492337,0.8739915963761508
1700516289986588200,6.169588134765625,0.7586655736714601,-5.063403918275236,-0.12968414533771574
1700516289996599300,6.179599365234375,-3.501914480254054,-3.742261405725777,-1.2786106540292501
1700516290006609200,6.189609130859375,-0.28338381090462206,-7.130914540719986,0.889598476961255
1700516290016620000,6.1996201171875,-2.1061966191917656,-3.4255902422472833,-0.9558794598594307
1700516290026630400,6.20963037109375,1.20322720400393,-7.729305965805053,0.9053837828531861
1700516290036641300,6.219641357421875,5.3178112255424255,-1.1574199770748614,-0.885553293223679
1700516290046651400,6.2296513671875,3.11004691375494,-0.29197613655254245,1.2185562905609606
1700516290056662300,6.239662353515625,4.378302177986503,-6.0853580248057835,-1.2755024588808417
1700516290066672400,6.24967236328125,-4.908991355198621,-2.1866468510873616,1.1020804402340203
1700516290076683300,6.259683349609375,-1.441823194155097,-6.789309426993131,0.9795109492070972
1700516290086693400,6.269693359375,-1.5283242505222558,-1.126858834594488,-1.5879701793201266
1700516290096704300,6.279704345703125,3.5727404131054876,-6.459916144585609,1.9109787291266023
1700516290106715100,6.289715087890625,1.5621037705272436,-3.786490131291747,-0.7310330319888889
1700516290116725200,6.299725341796875,0.7663157961636782,-4.801373861044645,1.090197110216692
1700516290126736400,6.309736328125,-0.5287760370671749,-2.614199917343259,-0.7174043196089566
1700516290136746500,6.31974658203125,0.21133739634752272,-2.899773054985702,1.450934575241059
1700516290146757400,6.32975732421875,3.566090892088413,-4.267383304199576,0.14732751845279707
1700516290156767500,6.339767578125,-3.1053362518459555,-4.854833356292546,1.4300032847627997
1700516290166778400,6.3497783203125,0.844070066973567,-3.6608600105851887,0.29523747643604875
1700516290176788200,6.359788330078125,-1.8593541942209004,-1.1057385974153875,-0.21013996672388166
1700516290186799400,6.36979931640625,2.4549691403299567,-5.615321761476993,-0.016068433682247994
1700516290196809200,6.379809326171875,-4.499588716530799,-2.0281571016997098,-2.4704256526589394
1700516290206820400,6.3898203125,0.7637485760241747,-4.093021593549848,0.9226916952025145
1700516290216831200,6.399831298828125,0.3422732222467661,-1.5413821772769092,-2.5581249788999556
1700516290226841000,6.409841064453125,3.004703209751844,-4.245950347809493,0.5633453557429835
1700516290236852500,6.4198525390625,-1.2182897485792636,-3.478182014749944,-1.9674821221150456
1700516290246862300,6.4298623046875,-0.8940648087203502,-3.360552245147526,0.8615047475077211
1700516290256873500,6.43987353515625,1.8956448202639817,-0.9885092253074049,0.3041244559152983
1700516290266883300,6.44988330078125,3.0513463029831644,-4.2445939647644755,1.4114147580184042
1700516290276894200,6.459894287109375,4.180924917930365,-4.525032954388856,-1.6826561495780943
1700516290286904300,6.469904296875,-1.4341221182584762,-2.850770539146662,0.4003924894666299
1700516290296915200,6.479915283203125,1.618073495030403,-1.763387390372157,1.627889078862965
1700516290306926300,6.48992626953125,1.6331787097036838,-0.35261414512768385,-0.7139255375824868
1700516290316936200,6.499936279296875,-3.5161499263554807,-6.511091620549559,1.0672956156440079
1700516290326947300,6.509947265625,2.710146847447753,-2.660046891760826,-0.6659604019671678
1700516290336957200,6.519957275390625,-3.3575486794173717,-0.7579398897454143,1.0214651539698243
1700516290346968300,6.52996826171875,1.6708599133223294,-0.4297537911705672,-1.0080151591576636
1700516290356978400,6.539978515625,-1.3418442320555448,-7.134883444350957,-0.3683028587773442
1700516290366989300,6.5499892578125,-2.621702255797386,-2.313743391084671,-0.6230288766048848
1700516290377000400,6.56000048828125,-2.284042664825916,-1.8927754023075103,0.42596433575972914
1700516290387010300,6.57001025390625,0.34979484992325305,-2.072153479814529,-0.45911403342857954
1700516290397021200,6.580021240234375,4.160279604786634,-5.033665782615542,0.1355875241626054
1700516290407031300,6.59003125,-1.0059346996217966,-2.9346050066530704,-0.5457291446294635
1700516290417042200,6.600042236328125,1.168952009436488,-0.33664500710144635,1.6412148627735674
1700516290427052300,6.61005224609375,0.38975627343356606,-2.69452316185832,-0.2542823291806504
1700516290437063200,6.620063232421875,3.3264310720980164,-4.597391503635048,-0.7675805554024875
1700516290447074300,6.63007421875,-1.5439689788997173,-2.540893273591995,-0.10063824799219145
1700516290457084400,6.64008447265625,2.3014000423401595,-0.38810982140079137,0.8063469239093363
1700516290467095300,6.65009521484375,0.8769757267534732,-0.22495558733344076,-0.9277360460452735
1700516290477105400,6.66010546875,2.296394781398773,-5.945476091384887,0.05584153154622763
1700516290487116300,6.6701162109375,0.3085813805252313,-4.36280884077847,-0.46376500103957946
1700516290497126400,6.68012646484375,-0.20746727691590786,0.44456469907239077,0.4988993697196245
1700516290507137300,6.69013720703125,5.325118918207288,-0.5576360747180878,-0.2025086863941513
1700516290517148200,6.700148193359375,-6.607214491742849,-5.878292314428091,1.0594573232337832
1700516290527158300,6.710158203125,6.845702929866314,-4.322371616449952,-0.917339447454363
1700516290537169200,6.720169189453125,-2.0444167471051213,0.10898936702907085,0.9177190944217145
1700516290547179300,6.73017919921875,2.91299055621624,-2.119384748197347,0.40384062062650916
1700516290557190400,6.7401904296875,-3.3392548978358505,-3.9472164075598117,0.08458638185225427
1700516290567200500,6.750200439453125,-1.0635580365508794,-4.3465468572854995,0.4252082201628014
1700516290577211400,6.76021142578125,3.770339206957817,2.5878490860342978,0.06286313727870584
1700516290587222300,6.77022216796875,1.1092214710950852,-4.122961389261484,0.30087935478053984
1700516290597232400,6.780232421875,-1.4420371291667222,-5.850509989011288,-1.1990931729391217
1700516290607243300,6.7902431640625,-2.862101495978236,-1.975455439081788,2.0140037809237836
1700516290617253400,6.80025341796875,2.4735996065199375,0.5425234073907137,0.037249607268348334
1700516290627264300,6.81026416015625,2.935616814044118,-4.181439881715178,-1.3030826858542859
1700516290637275100,6.820275146484375,-3.045328650128841,-5.971361058747768,0.19476634690538047
1700516290647285200,6.83028515625,0.5311638089865446,2.231898197699338,0.5737204366218298
1700516290657296400,6.84029638671875,0.40262861448824405,-5.30125931919217,0.20608747646268455
1700516290667306500,6.850306396484375,-2.584206930139661,-3.8729301051214335,-1.3035909276373683
1700516290677317400,6.8603173828125,-2.3181612075269222,-3.9141149329468607,1.4779904860794544
1700516290687327500,6.870327392578125,0.7338298231005668,2.435888007763028,-0.31331235456988216
1700516290697338400,6.88033837890625,4.017014458668232,-6.168737149760127,0.44614809580631554
1700516290707349200,6.890349365234375,-3.4747213529020544,-3.439561192193627,-1.0951876119803636
1700516290717359400,6.900359375,-0.45396308040618893,2.792348160794377,1.0823873863138258
1700516290727370200,6.910370361328125,1.803113836082816,-4.906683078256249,1.1884512943502514
1700516290737380400,6.92038037109375,2.2733348083287477,-3.485519225770235,-2.2855611065648493
1700516290747391200,6.93039111328125,-2.025593973213434,-1.9616228746928273,0.31425686887837945
1700516290757402400,6.94040234375,2.6609721899122,0.7839199880458414,0.25419874255042524
1700516290767412500,6.95041259765625,4.392117352849245,-5.57588231601417,-0.06409114470370113
1700516290777423400,6.96042333984375,2.2904285664707422,-3.7448712959632275,-2.500715284721553
1700516290787433500,6.97043359375,-2.2971587515085936,-1.782821720290929,1.3685447535850106
1700516290797444400,6.9804443359375,-1.7877531853437423,-1.2539467528939245,0.706382136465609
1700516290807455200,6.990455322265625,-0.4145832561761141,-3.7448026146411895,0.4579512732595205
1700516290817465300,7.00046533203125,-1.580430285334587,-4.2492368221342565,-0.013146226092614233
1700516290827476200,7.010476318359375,0.11542203042507171,2.050316911059618,0.13274831868130713
1700516290837486300,7.020486328125,0.8518535604566335,-5.095903919863701,0.5548974070018157
1700516290847497200,7.030497314453125,-1.103557453984022,-3.126453566415608,-1.5693854519680142
1700516290857508400,7.04050830078125,0.28645430439114566,-0.3476936398603022,0.2134684535594657
1700516290867518500,7.0505185546875,2.488828155311942,-3.140132839938998,-0.058649264177028086
1700516290877529300,7.060529296875,0.6124404087036848,-2.658998844012618,-1.2544137858837843
1700516290887539500,7.07053955078125,-2.5433558643132446,-3.1561896562486886,-0.18602268488695844
1700516290897550300,7.08055029296875,2.138307913723588,1.5927970149546862,-0.2720271351099014
1700516290907561200,7.090561279296875,4.707848020607233,-5.67715307148993,1.2131735746093093
1700516290917571300,7.1005712890625,-0.3368336615413427,-3.7300720784991976,-0.9671100250564515
1700516290927582200,7.110582275390625,-1.523487916406989,-1.0942430976718664,1.075310141403973
1700516290937593300,7.12059326171875,1.9858143360108136,-1.7184889488510786,-0.010186663900967686
1700516290947603200,7.130603271484375,4.250625646144152,-2.890544915652275,0.5642509993458167
1700516290957614300,7.1406142578125,-2.0540233643621204,-4.708736786140501,0.024260453167278317
1700516290967624400,7.15062451171875,-2.7949615581631657,1.8544579466119409,-0.4060650917429477
1700516290977635300,7.16063525390625,-0.8394301322132348,-3.1203648941516873,0.34798385497853157
1700516290987646500,7.170646484375,-1.9765549247562884,-3.970396499878168,-2.16975241490975
1700516290997656300,7.18065625,-0.7382055539667606,-1.5342859354056417,-0.018865882381051777
1700516291007667200,7.190667236328125,1.4495213474422692,-3.3664567930161953,0.9466548276573419
1700516291017677300,7.20067724609375,-0.23544015646874902,-2.7442633443221447,-2.2547142790108916
1700516291027688200,7.210688232421875,-1.9964771843224762,-3.8779286440610883,-0.04666545119360089
1700516291037699300,7.22069921875,3.2333243338555095,0.5354647210508585,0.8185606549248099
1700516291047709200,7.230709228515625,4.554780442398786,-4.453797856214642,0.3878603401517495
1700516291057720000,7.240719970703125,11.244362251704931,-5.701377412164211,-0.26641115839164703
1700516291067731200,7.250731201171875,-20.981628334355353,0.2123465733900666,2.8609327444598076
1700516291077741000,7.260740966796875,1.2838579070329665,0.38090719654560085,1.6880948335006831
1700516291087752400,7.27075244140625,0.6443383527457713,-1.813472879142314,-1.8515907206125557
1700516291097762300,7.28076220703125,4.309347299703956,-3.898863295540213,1.4331941897585987
1700516291107773200,7.290773193359375,6.855460938292741,0.7087725387334823,0.3658896966883912
1700516291117784300,7.300784423828125,2.5745553046971557,-5.502147802239656,-0.7949144063994288
1700516291127794200,7.310794189453125,-3.485356728684902,-3.494091823804378,-0.944827758360654
1700516291137805300,7.320805419921875,-5.777009868514537,1.8252910349689424,0.07806373861785977
1700516291147815200,7.330815185546875,2.45298585755825,-3.5981177232071757,-0.32355767158921805
1700516291157826300,7.340826416015625,0.26867840920388697,-2.1051495943568646,-1.6210115943089127
1700516291167837200,7.350837158203125,0.27278642904460426,-4.075833142861724,0.6906608357205987
1700516291177847000,7.360846923828125,1.562518781068921,-0.583908287832886,0.08735986515358089
1700516291187858400,7.3708583984375,2.456854223424196,-2.5326193662434813,-0.9658084409385919
1700516291197869300,7.380869384765625,-0.6766863786429166,-4.709181899559497,-0.4091309090543538
1700516291207879400,7.39087939453125,2.4284809463769195,2.420962825831771,0.9078907972380519
1700516291217890300,7.400890380859375,5.208536027309298,-3.5447350925877688,1.54008483094275
1700516291227901200,7.410901123046875,0.5488941114664078,-4.326232091270387,-0.6245562323026359
1700516291237911300,7.420911376953125,-0.5159329221069813,0.5544976305618882,2.029255126069486
1700516291247922200,7.430922119140625,0.16587503733336925,-2.325403726001084,1.7308488103389739
1700516291257932300,7.440932373046875,-1.8506307895392178,-2.378639495495707,-1.4250513614438474
1700516291267943200,7.450943115234375,-5.427122079610824,-4.531062882202863,0.2412111776182428
1700516291277954300,7.460954345703125,-1.7867238422960041,0.7219190205544233,-0.4679554749993607
1700516291287964400,7.47096435546875,2.5068694234371183,-3.162923932939768,-0.0746748998971656
1700516291297975300,7.480975341796875,-1.4653075301170349,-4.435624778403342,-1.0624532901793717
1700516291307986200,7.490986083984375,1.049254201388359,0.28472309668436646,-0.3256878154857084
1700516291317996300,7.500996337890625,-0.16414134540855885,-4.044286496475339,1.4398704526521264
1700516291328007200,7.511007080078125,-1.119714223536849,-2.3640382848218082,-0.6636065323174
1700516291338017300,7.521017333984375,0.7155623450040817,-3.1875235366672277,1.2476491140544415
1700516291348028200,7.531028076171875,2.858805961564183,-0.3833763631381094,1.3584963839098811
1700516291358039000,7.5410390625,3.4752643737375735,-2.6291633854582903,0.04944430478978902
1700516291368049200,7.551049072265625,-2.8056542170912024,-4.667461649683117,0.38997945119757205
1700516291378060300,7.561060302734375,0.6954243968605994,2.8495506419628858,1.5929565894305706
1700516291388071400,7.571071533203125,3.5715509110599752,-3.9205163244217633,1.0007058590576052
1700516291398081300,7.581081298828125,2.2145617168426512,-2.4422427836172282,-1.9837154640354215
1700516291408092200,7.591092041015625,0.5547679719358682,-0.5685290785238146,0.3758814408054575
1700516291418103300,7.601103271484375,4.01875224224627,-1.0847354107446967,-1.5500022677145897
1700516291428113200,7.611113037109375,2.986633300054073,-3.1386624751254915,-1.414780288928747
1700516291438124300,7.621124267578125,1.1631734260350466,-4.21651762483716,-0.23276286355089396
1700516291448135200,7.63113525390625,1.6414163766950367,1.8467231145761906,-0.5027039496343583
1700516291458145000,7.64114501953125,0.01856441521644592,-3.423697560368478,1.1374237754896281
1700516291468156400,7.651156494140625,-2.1171821235865353,-3.340027635774016,1.1384962270267307
1700516291478167300,7.661167236328125,-1.99992060277462,-0.17867358249947426,1.3610259023874998
1700516291488177400,7.671177490234375,0.6643599810332059,-0.7251128481596708,0.8161043478138744
1700516291498188300,7.681188232421875,-0.9841349557459353,-3.5862744329392906,-0.43547370318733153
1700516291508198100,7.6911982421875,-5.999590543410181,-3.266598826947808,0.41837903172988444
1700516291518209300,7.701209228515625,0.5475333445072174,1.4575100081086159,-0.659946402374655
1700516291528220200,7.71122021484375,3.018320816215873,-5.48337880436182,-0.9990046080976724
1700516291538230300,7.721230224609375,-2.1399574344962833,-2.0358380115911365,-1.119374616318941
1700516291548241200,7.7312412109375,1.1699421895176172,0.30719708655998107,-0.579558495125547
1700516291558252300,7.741252197265625,1.7545383134841919,-5.354875174045563,1.583402871404588
1700516291568262400,7.751262451171875,-0.3369055577337742,-1.1650547097370028,0.35628717108462005
1700516291578273300,7.761273193359375,-1.5730045192480087,-1.7347034399405121,1.9764121552847325
1700516291588284200,7.7712841796875,-2.8833529583215713,-1.5239016117744146,1.5698374335192142
1700516291598294300,7.781294189453125,-0.7446177590966224,-2.831728277285397,0.6840550807800143
1700516291608305200,7.79130517578125,-1.4440297642886637,-2.4586720865011213,0.3928134325144812
1700516291618316300,7.80131640625,4.46793919429183,1.5109855777084826,-0.12013981619458645
1700516291628326100,7.811326171875,3.0621757400333878,-5.279430349221825,0.3660250865710899
1700516291638337000,7.8213369140625,-2.8297739283472296,-3.203367879270017,-1.443834095586091
1700516291648348400,7.831348388671875,1.4128747475683687,-0.4543006417974829,-0.8652103240273893
1700516291658358300,7.841358154296875,4.117780771753192,-0.6243311913751065,-0.7047457674354315
1700516291668369400,7.851369384765625,3.273269975274801,-1.8916247709676621,-0.5409064006481319
1700516291678380300,7.86138037109375,-2.622569101759791,-6.07658084411025,0.2875994193056598
1700516291688390100,7.87139013671875,0.2382429389297962,3.122947311860323,0.3645435062438249
1700516291698401300,7.8814013671875,0.3225292418569326,-2.0166259461209175,1.621056748624891
1700516291708412200,7.891412109375,-0.24927929672896862,-2.7803499722257254,-0.1964237952562049
1700516291718422300,7.90142236328125,-0.9059235888183116,-0.31914661368131636,0.04546966553777456
1700516291728433200,7.91143310546875,1.445120482134819,-1.3415921569906175,-0.23351686025597154
1700516291738444300,7.9214443359375,-0.5152560457587242,-1.835270431061089,0.4967405842505395
1700516291748454400,7.931454345703125,-2.1738889301925894,-3.9716871242105958,-0.07296729226168244
1700516291758465300,7.94146533203125,0.21441373505294323,1.0023021883383392,-1.354160692793131
1700516291768476200,7.95147607421875,2.5885195326417683,-3.6532790539368984,0.26602336465045806
1700516291778486300,7.961486328125,-1.060599186745286,-4.179343786218762,0.3197814775187522
1700516291788497200,7.9714970703125,-0.5315811576157808,1.4730799176841973,0.6056595529245212
1700516291798508300,7.98150830078125,1.1461755294829605,-3.3416961535081264,2.4245383462309835
1700516291808518100,7.99151806640625,-3.1255414200067517,-2.7631024848267436,-0.4247043257612735
1700516291818529000,8.001529052734375,-0.46535658107995986,-1.0652471586816012,1.2973789212547242
1700516291828540400,8.01154052734375,1.2378075189977884,-0.8691951558798551,0.8234852518454193
1700516291838550300,8.02155029296875,0.5961667347729206,-2.361211829224229,-1.3250488723382352
1700516291848561400,8.0315615234375,-3.986713428428769,-5.176916900208592,0.7109280362669378
1700516291858572300,8.041572265625,0.7325152333706617,3.6709737005814906,-0.4504164938405156
1700516291868582100,8.05158203125,6.181537010100484,-4.398126822397113,-0.056851914165169
1700516291878593300,8.06159326171875,0.29066110843122006,-3.9956253414198755,-1.4561375507116316
1700516291888604200,8.071604248046874,-2.2728391337662934,0.2954898437619209,1.8351871366918087
1700516291898614300,8.0816142578125,-0.5014823719501496,-1.1754276351913808,0.4558428297381848
1700516291908625200,8.091625244140625,-1.5045254417836664,-2.6003750978693363,-1.3646952385500073
1700516291918636300,8.10163623046875,-3.620225802379846,-3.180576201747358,1.0246169690642506
1700516291928646400,8.111646484375,-0.10618307743668555,3.8291520459324118,-0.6776889067489653
1700516291938657300,8.1216572265625,3.0455116054803133,-5.315556140092015,0.56384252814278
1700516291948668200,8.131668212890625,-1.6729191839396953,-3.036203678908944,-1.2078375473435967
1700516291958679300,8.14167919921875,0.7625070515304804,2.5781641428440807,-0.1969685331247747
1700516291968689200,8.151689208984376,2.235168451541662,-4.869741879349947,0.5409085195399821
1700516291978700300,8.1617001953125,0.9275789557874202,-1.0586702645093202,-1.3724473139815032
1700516291988711200,8.171711181640624,1.1992460254132746,-2.561052264523506,-0.04783573708198964
1700516291998721000,8.181720947265624,2.961346298584342,0.5100647607259452,-0.07280278588235378
1700516292008732400,8.191732421875,4.217634646168351,-2.3602257407963276,0.2946063754582777
1700516292018743300,8.201743408203125,0.16072423044145107,-3.665861179873347,-0.6927229558821767
1700516292028753200,8.211753173828125,0.4076005576819181,1.5910573316805063,0.7859647186812013
1700516292038764000,8.221763916015625,-1.8293775736302136,-2.3128904275171456,1.2894853915259241
1700516292048775000,8.23177490234375,-1.1971633739203213,-1.5979915148578583,1.620980176257342
1700516292058785000,8.241784912109376,-2.75396143925488,-3.9014328537672758,0.2750052741378546
1700516292068796000,8.2517958984375,-0.18575111967027186,1.3267904553085565,-0.8223471146609633
1700516292078806800,8.261806884765624,2.1076649381786585,-2.4137942493766547,-0.6464439467228948
1700516292088817000,8.27181689453125,-2.978556376582384,-5.055208336859941,-1.1772739937104284
1700516292098827800,8.281827880859375,0.8740811743557453,3.944258434537053,-0.39645511348508294
1700516292108839000,8.2918388671875,2.2270774995446203,-4.424475315618515,0.8070286225631833
1700516292118849000,8.30184912109375,-1.561554319950938,-3.228166512700915,-2.3875061080403626
1700516292128860000,8.31185986328125,-0.12307049935162066,0.8715902343228459,1.1220756189059466
1700516292138871000,8.32187109375,2.704396321097016,-0.7827563510939478,-0.793599232147634
1700516292148882000,8.3318818359375,1.622794093811512,-2.718775851844251,-1.2257098155774175
1700516292158892000,8.34189208984375,-3.261367940557003,-3.3544214873075484,0.6119124393068254
1700516292168903000,8.35190283203125,3.3178836085051295,3.682803254584968,0.7215569092437625
1700516292178913800,8.361913818359374,2.464280574032664,-4.7709208551138635,1.1298837353736162
1700516292188924000,8.371923828125,-1.335167238509655,-1.6812947980970143,-0.3537411398636177
1700516292198935000,8.38193505859375,0.7734025395542383,-1.296679833074659,1.3822504767239092
1700516292208946000,8.39194580078125,1.6096072799801826,-0.3731590666368603,-0.3189216458190232
1700516292218956000,8.4019560546875,3.7901749572843313,-0.5546531133845448,-0.7495734087426215
1700516292228967000,8.411966796875,-0.666387102946639,-5.7892444961875675,0.07978782246410847
1700516292238977800,8.421977783203126,0.5289040473610163,4.044502769574523,-0.9430760923877358
1700516292248989000,8.431989013671876,0.8410977731645107,-3.043961453428864,1.3968983030185103
1700516292258998800,8.441998779296876,0.7820423576056956,-3.44391997192502,-0.6760008075315505
1700516292269010000,8.452010009765624,2.7548984278440476,0.34991789178103205,1.2537304797947406
1700516292279021000,8.46202099609375,4.287357586213946,1.3130936461284757,0.7671304004821926
1700516292289031000,8.472031005859375,-1.341371938368678,-4.622977195790409,2.3678091816626488
1700516292299042000,8.4820419921875,-13.337244046771525,-3.2724232953175902,0.4584124975631013
1700516292309053000,8.492052978515625,-4.586140041780472,2.878866460557282,0.5889176769601181
1700516292319063000,8.50206298828125,2.1496347789019343,-4.356805800971388,-0.6397562856525182
1700516292329074000,8.512073974609375,1.010363037458062,-2.1688632109850645,-1.6322040194526313
1700516292339084800,8.522084716796876,2.7258564577549693,-2.0161828785285354,-0.7875377401515841
1700516292349096000,8.532095947265624,-1.235541912153363,-1.3448204713873564,-0.33457927021067585
1700516292359105800,8.542105712890624,-1.4266367309391497,-1.684428712208569,0.4060889840751886
1700516292369117000,8.552116943359374,-1.4899340218514203,-2.111482304509729,0.8163591993577778
1700516292379128000,8.562128173828125,2.2397277222812173,2.0839599452033637,0.4188688976060599
1700516292389138000,8.572137939453125,6.94532065743804,-2.1304440484806895,1.4516158355034887
1700516292399149000,8.582149169921875,-1.314375794893503,-4.688129759180546,-0.2301701071113348
1700516292409160000,8.592159912109375,-2.263385661244392,3.0958418627917763,1.0076632769800722
1700516292419169800,8.602169677734375,1.0651415063500405,-2.0995257631257176,2.083699394571036
1700516292429181000,8.612180908203126,-0.04789513911902904,-2.7739327986598012,-1.220678105020523
1700516292439192000,8.622192138671876,-3.267339416182041,-0.3821482826478779,1.349197809688747
1700516292449203000,8.632202880859374,1.6265636754781008,0.3643170040115714,-0.4506103359121829
1700516292459213000,8.642213134765624,0.8378817337274551,-2.9751854388445613,-1.317534697315842
1700516292469224000,8.652223876953125,-1.8140221835881472,-2.570175482177734,-0.18766027775984256
1700516292479234800,8.66223486328125,1.8009511050909757,1.7099809404857456,-0.8302252276249229
1700516292489245000,8.672244873046875,1.3040227431833744,-3.014933511865139,1.137918938595429
1700516292499255800,8.682255859375,-2.550958740532398,-2.231220590698719,-0.06346782517358661
1700516292509267000,8.692266845703125,-2.879341384592652,-2.496603465488553,0.5974378506872803
1700516292519276800,8.70227685546875,0.18753391143381595,1.6975563431985676,1.2064273152194918
1700516292529288000,8.712287841796876,1.5803215642631052,-3.462101525303721,0.9515235296722501
1700516292539299000,8.722299072265624,-6.352306833738088,-4.19957496560365,-0.017369725539162755
1700516292549310000,8.73231005859375,-1.1273732138574122,4.871420041695237,-0.2796689916325733
1700516292559320000,8.742320068359374,1.8197674492418765,-6.135787066316604,-0.00300941094905138
1700516292569331000,8.7523310546875,-1.6589882737427948,-1.167546234291792,-1.433611538387835
1700516292579341800,8.762341796875,1.4202455685973168,0.325673823492974,0.17142251539267597
1700516292589352000,8.77235205078125,0.8196843982577323,-1.8471309647247194,-1.3399400058694182
1700516292599362800,8.78236279296875,1.410078979369998,-0.19351240132153033,-0.023524083450436592
1700516292609374000,8.7923740234375,-1.8088865742653608,-3.845537655805051,0.3977347414994612
1700516292619385000,8.802385009765626,2.497110245966911,3.67327876265347,-0.3215907188978046
1700516292629395000,8.81239501953125,4.999553085133433,-2.8032562160387635,1.6749824000798166
1700516292639406000,8.822406005859374,0.38991000269055365,-2.9476278620943424,-0.7403464384529739
1700516292649417000,8.8324169921875,-0.09320786052942276,0.7226337446950376,0.5307561415011063
1700516292659426800,8.8424267578125,3.3463960017621517,-0.20207535474449395,0.1781997544426471
1700516292669438000,8.85243798828125,2.608411981591582,-2.8802848029226062,-0.9446789975397288
1700516292679448800,8.86244873046875,-1.6521552128523587,-1.7211973310269415,0.5428427755381912
1700516292689460000,8.8724599609375,0.43919981103837485,2.6505887430638073,0.24938904071375725
1700516292699470000,8.882469970703125,-1.6207120268404482,-3.1473607453659174,0.7738206188358366
1700516292709481000,8.89248095703125,-2.8534944111526013,-2.776824428448081,-0.440639524985291
1700516292719491800,8.902491943359376,-0.8905056549340487,-0.22822905604615806,-0.10660411586035043
1700516292729502000,8.912501953125,1.3583020303815603,-0.2112500103250146,0.07959113084822893
1700516292739512800,8.922512939453124,1.8030945468604564,-3.4068627454236147,-0.7763106090206653
1700516292749524000,8.93252392578125,-4.562426573237777,-3.2205019694223997,-0.47865456366818393
1700516292759534800,8.942534912109375,-0.9390782549232244,4.257781947639584,-0.6490536908298731
1700516292769545000,8.952544921875,2.1793349206387997,-4.39218165025711,-0.1332240464342758
1700516292779556000,8.96255615234375,-3.260377760475874,-2.9644851811319586,-0.6882374079659581
1700516292789567000,8.97256689453125,1.4439280574798583,1.594269279464334,1.1891260518066584
1700516292799577000,8.9825771484375,3.2455420103937387,-2.87296717338562,0.6316213483832777
1700516292809588000,8.992587890625,2.3274404925256964,-0.11908289102017879,-0.05384812923930585
1700516292819598800,9.002598876953124,1.242384909915924,-4.427871387797594,-0.06840279735773801
1700516292829610000,9.01260986328125,2.821858332917094,4.918093530064821,-1.6770684125736355
1700516292839619800,9.022619873046875,4.523729470574856,-3.565115325054526,1.5131380795672535
1700516292849630700,9.032630615234375,-0.4689841239273548,-3.3912069111302494,-0.09930208575129508
1700516292859642000,9.04264208984375,0.7747586303383112,2.4154393862351773,-0.690186861533299
1700516292869653000,9.052653076171875,2.9607576850414272,-0.4729401680767536,-1.0310371383048593
1700516292879663000,9.0626630859375,-1.6213123308211563,-1.7842608131833373,1.2054616850577293
1700516292889674000,9.072674072265626,2.9220722728163,-3.5335286389186975,-0.6108163511658087
1700516292899684900,9.082684814453126,0.2578384507596493,3.317420959429443,-0.8766023633964359
1700516292909695000,9.092695068359374,4.006045320886373,-2.0748609852075575,-0.381251041547209
1700516292919705900,9.102705810546874,0.5935983455896378,-3.686676296626031,0.8830566541023552
1700516292929716700,9.112716796875,-0.5189619145393372,-0.7322264795571565,-0.015197203805670141
1700516292939728100,9.12272802734375,4.359320414140821,2.302097523085028,-1.2443699462532996
1700516292949738000,9.132738037109375,-4.061643289467692,-4.394423291704058,0.2758402271246537
1700516292959748900,9.142748779296875,-5.46482081888616,-3.101683866818249,-0.10529098743516951
1700516292969760000,9.152760009765625,-0.9750871414154767,3.644647126930952,-1.1846937684476375
1700516292979769900,9.162769775390625,-0.999579777637124,-3.2655385042399168,0.255410967884399
1700516292989781000,9.172781005859376,-1.879140844708681,-4.119011774852872,-0.08937310467213391
1700516292999791900,9.1827919921875,0.5001689512640237,1.202822714856267,-0.38722255370486525
1700516293009803000,9.192802978515624,0.5437959115445613,-1.7344361673064528,1.8989147818453609
1700516293019812900,9.202812744140624,-0.17763035705685615,-2.5571698701322076,-0.055607320931553836
1700516293029824300,9.21282421875,-1.5855524506539105,-1.221823183402419,0.5375711187455803
1700516293039835400,9.22283544921875,2.561018946775794,1.3741545562908053,-0.09512103720698505
1700516293049845500,9.232845458984375,3.741181501534581,-3.4407781667679544,0.06214348123464733
1700516293059856400,9.2428564453125,-1.4210779277682304,-2.586267077539861,-0.7946608700297773
1700516293069867300,9.2528671875,2.675737212845683,0.4236632192105055,0.36824630628451704
1700516293079878400,9.26287841796875,3.74955770021379,-1.5262589885555207,-0.532338478789106
1700516293089888300,9.27288818359375,-4.1958547760367395,-2.2601456564098594,1.0765968932788819
1700516293099899400,9.2828994140625,-2.304896652284264,-3.7629040885210037,-0.48155795695949344
1700516293109910300,9.29291015625,2.358153026175499,4.982124980470537,-1.3734851325966417
1700516293119921400,9.30292138671875,-0.28782793083190916,-2.5836805681779977,0.30646705525238066
1700516293129931500,9.312931640625,-5.282340099188685,-4.234824558161199,-0.029642968189530074
1700516293139942400,9.3229423828125,2.0744342842280865,1.9715376811161636,-0.253000582274422
1700516293149953300,9.332953369140625,1.714270600503683,-0.26568141934499145,-0.5344080150721594
1700516293159963400,9.34296337890625,-0.28428105200529097,-2.812007970032096,0.8577917183339595
1700516293169974300,9.352974365234376,0.06818097130060195,-2.607013220709562,0.04850296881906688
1700516293179985400,9.3629853515625,2.324088259488344,3.5782688211381433,-0.6445308065779507
1700516293189996300,9.372996337890624,1.1887065112203359,-4.133133823707699,1.62187917092368
1700516293200006100,9.383006103515624,-2.570785723030567,-1.7228993126392365,0.5774628380205482
1700516293210017500,9.393017578125,-0.7132581597149372,3.0888536113396285,-0.00864559020511806
1700516293220028400,9.4030283203125,-0.1873135466814041,-3.5822187278077005,0.7204037936858833
1700516293230038500,9.41303857421875,-3.9109804343134162,-1.31781760591045,-0.11892543543614446
1700516293240049400,9.42304931640625,-2.6660896790564057,-1.1523195851959287,0.25944837017431854
1700516293250060300,9.433060302734376,-0.24114684367775915,0.738966747597605,-0.9667191260427236
1700516293260071200,9.4430712890625,0.00750935271680355,-3.408132326968014,-0.05323898436501622
1700516293270081300,9.453081298828126,-3.896805193966627,-2.363737840570509,-0.8702443726718425
1700516293280092200,9.463092041015624,0.5915390749722719,3.515901796813309,0.5595521740050986
1700516293290103600,9.473103515625,2.356343346405029,-4.242510728749632,1.3487189401306212
1700516293300114400,9.483114501953125,0.5323796145170927,-2.228632035510242,-0.7683888030454515
1700516293310124300,9.493124267578125,1.435571732544899,-1.0973337571635842,1.2525509146213532
1700516293320135400,9.503135498046875,5.443010553616285,0.9349690660387278,-0.8842798392217606
1700516293330146300,9.513146240234375,2.712746216291189,-3.703536538273096,0.4337194799311459
1700516293340156400,9.523156494140625,0.5483125121861696,-4.84608686299622,-0.6023388475365936
1700516293350167300,9.533167236328126,1.8261808234155177,4.19376452575922,0.23493863668739795
1700516293360178400,9.543178466796874,1.7550339880466461,-0.07180982932224869,0.8341246462162584
1700516293370189300,9.553189208984374,-2.6639742943376303,-2.0248115906640884,0.25208390582092105
1700516293380199400,9.563199462890625,-1.6665438036888838,-0.24307620430514215,0.787861419147998
1700516293390210300,9.573210205078125,2.769506214389205,3.64648807862252,-0.5910563694892451
1700516293400221400,9.583221435546875,-1.0061597405493259,-3.1512381713211535,-0.6144274178024381
1700516293410231300,9.593231201171875,-4.120032350072265,-4.793144377359748,-0.8808800407156347
1700516293420242400,9.603242431640625,0.9474071073293685,5.035137024211883,-1.1244980237472801
1700516293430253300,9.61325341796875,5.348736525160074,-2.4072495039083064,0.5567580132419243
1700516293440264400,9.623264404296876,-4.974658297851682,-4.081094424390793,-0.9660941990774125
1700516293450274600,9.633274658203124,-2.9127842199891805,-1.1684462518714367,0.9813777659922838
1700516293460285400,9.643285400390624,0.12662380791902542,1.446261761124432,0.3949094549456611
1700516293470296300,9.65329638671875,0.9300392084211111,-3.53215355117321,0.32621483503449705
1700516293480307500,9.663307373046875,-1.567658482044935,-3.884785085827112,-0.03462992628924549
1700516293490317300,9.6733173828125,0.03241290782690048,3.1478625574082133,0.04892671065647155
1700516293500328200,9.683328125,0.3611246377110481,-4.175664220923185,0.3683723438169807
1700516293510339300,9.69333935546875,-1.0084288545250892,-2.361449437372386,-0.597979446750693
1700516293520349200,9.70334912109375,0.5657651667684316,1.0764381225205957,0.811469819881022
1700516293530360600,9.713360595703126,4.014886214467883,0.32003567147552964,-1.3575268082253633
1700516293540371500,9.723371337890624,-1.606980438607931,-3.43124782961756,0.8092330007396638
1700516293550382300,9.73338232421875,0.34593992806077,-2.174977309951186,-0.36258188731465485
1700516293560392400,9.743392333984374,3.1471979560196397,5.378953968769312,-0.4954424341987818
1700516293570403300,9.7534033203125,0.26495675833225246,-1.8248621420323847,0.04734649226032197
1700516293580414200,9.763414306640625,-2.8825281979352235,-4.474311067411303,-0.4380127201456576
1700516293590425300,9.77342529296875,-0.7055833873033523,3.4401942294001575,0.4739136527514085
1700516293600435200,9.783435302734375,2.913484477213025,0.9786360660687088,-0.7930260353695601
1700516293610446300,9.7934462890625,-2.214603217896819,-5.841354622653126,1.1563234140098095
1700516293620457500,9.80345751953125,-5.187030882465839,-1.8932829134382307,0.7741790768846869
1700516293630467300,9.81346728515625,2.542629888126254,3.5041631359636782,-0.5214308254035189
1700516293640478500,9.823478515625,-2.3614900616437193,-3.2218226966321466,0.7552852835834026
1700516293650489300,9.8334892578125,-2.2522914357781407,-4.347419256205857,-0.19318784554228186
1700516293660500200,9.843500244140625,0.014213234269618987,3.627537294436991,0.058452335099130864
1700516293670510300,9.85351025390625,0.2282388467878103,-2.866861257725954,0.9556297228820622
1700516293680521200,9.863521240234375,-1.847991673207283,-4.078865642425417,-1.0691375171836466
1700516293690532400,9.873532470703125,0.21189795283973215,3.0003309860169884,1.0951959414172916
1700516293700542500,9.88354248046875,1.8818623786270616,0.5285641478821635,0.4008003030825406
1700516293710553300,9.89355322265625,1.3164344809889792,-3.0203114055112,-0.5411292496185749
1700516293720564500,9.903564453125,0.013133037817478179,-4.636794124218821,-0.24202088656593113
1700516293730575400,9.913575439453124,0.5584118813961744,4.637702471235394,1.0201422348029912
1700516293740585200,9.923585205078124,3.2570863177150486,0.3423822355791926,0.035991789226979015
1700516293750596400,9.933596435546875,-4.49292867411971,-4.971549810442328,0.5172871131949126
1700516293760607200,9.943607177734375,-1.6164368337392807,1.5894509193971753,2.1675261171624065
1700516293770618400,9.953618408203125,3.5119267557024956,2.8374948779881,-0.6690875210117548
1700516293780628500,9.96362841796875,-1.117237604290247,-4.238630087924004,0.44940497871041296
1700516293790639400,9.973639404296875,-2.2566338488966227,-5.1584980309426784,0.12232373610492794
1700516293800650200,9.983650146484376,0.5941010344147681,5.394110621368885,-0.32024558789916335
1700516293810660400,9.993660400390626,2.89171045230031,-2.4329838107541204,-0.3869998873975128
1700516293820671200,10.003671142578124,-2.491875852444768,-5.80281767898798,-0.32541298059970136
1700516293830682400,10.013682373046874,1.821446780630946,2.4613877752006053,1.006961412321031
1700516293840693500,10.023693603515625,3.079775694131851,0.8716410877272486,-0.8391589140564203
1700516293850703400,10.033703369140625,-1.5671061088591813,-3.385857074534893,-0.08105543124713004
1700516293860714500,10.043714599609375,0.397149306294322,-3.4523151675656436,0.7296200964510441
1700516293870725400,10.053725341796875,3.2587223944842814,6.781157684719562,-0.11056523804366587
1700516293880735500,10.063735595703125,1.705793864059448,-2.1659996382474898,0.7232008039932698
1700516293890746400,10.073746337890626,-2.1252309900075197,-4.748623683109879,-0.10103950400315224
1700516293900757200,10.08375732421875,1.366654263663292,3.1131413726389408,0.7772329845625907
1700516293910768400,10.093768310546874,3.17869784065485,2.4745021083176133,-0.8012550806630402
1700516293920778200,10.1037783203125,-4.40396911868453,-5.340401243013143,-0.17076964097451416
1700516293930789400,10.113789306640625,-1.7013474060446023,-2.836744936403632,0.14710129021517931
1700516293940800500,10.123800537109375,3.0484090804874895,6.374589392694831,0.37591863101068884
1700516293950811400,10.133811279296875,-1.309386900565028,-3.122615011166036,1.377888774383068
1700516293960821500,10.143821533203125,-6.239168530336022,-6.049677639615536,-0.588196121219918
1700516293970832400,10.153832275390625,-1.0849538758009671,2.702320683866739,1.122911046816781
1700516293980843300,10.16384326171875,0.08077040376067161,-0.327349501620233,0.2492893797315657
1700516293990853400,10.173853271484376,0.35810850476026534,-4.529206148420274,-0.26406477792859073
1700516294000864300,10.1838642578125,1.730089516404271,-1.6939651868388055,-0.08585632872283458
1700516294010875400,10.19387548828125,1.8413292927086353,3.042466538695991,-0.8385986498251556
1700516294020886500,10.203886474609375,-2.369592704078555,-3.404920671445131,-0.23318360971361396
1700516294030899700,10.213899658203125,-2.4289006330937144,-4.124151475828886,-1.015937914980948
1700516294040910800,10.223910888671876,3.8615737215876575,4.415011613963544,1.168162174233049
1700516294050922000,10.233921875,5.3351101508677,3.215290664514899,-0.09813081348221749
1700516294060931800,10.243931884765624,-0.9562567687392234,-5.364212326711416,-0.11340400513354688
1700516294070943000,10.25394287109375,-0.01666004289984703,-1.6023194610595701,0.6001979995829985
1700516294080953900,10.263953857421875,2.3690695569872853,4.570989818921685,0.7240894233960657
1700516294090964700,10.27396484375,0.7360276254057884,-1.5124831227898596,0.6737794782202691
1700516294100974800,10.283974853515625,-2.1788392460763455,-5.299827240562439,0.45302455744706094
1700516294110985700,10.29398583984375,-1.6674492280960083,5.106155849286914,0.5657469004593789
1700516294120996900,10.303996826171876,1.979243140926957,-0.7671843956917523,-0.5281927572865038
1700516294131008000,10.314008056640626,-4.443362971439957,-5.456274524337053,-2.041221896586567
1700516294141017900,10.324017822265626,-2.9786078145086763,-0.5960264495193958,0.6187680042900144
1700516294151029000,10.334029052734374,3.3008804512560364,2.9412352384477853,-0.8756151059247553
1700516294161040000,10.344039794921875,-0.26722937943935393,-3.842372177511453,-0.29279249443672595
1700516294171049700,10.3540498046875,-3.4286826553046703,-4.22266299572438,0.6810261614128947
1700516294181060900,10.364060791015625,0.08394611118733883,5.085169175359606,0.5715314386775717
1700516294191071700,10.37407177734375,3.3977141010671854,-2.6294264203086493,1.1097611309297382
1700516294201083000,10.384082763671875,1.0452250920027495,-2.661732068368792,-0.1092294228626415
1700516294211093000,10.394093017578125,-0.3608931670427322,0.15072802934497595,0.5731209363587201
1700516294221103900,10.404103759765626,5.000494165375828,2.662950211986899,-0.13194832741003482
1700516294231114800,10.41411474609375,0.8748591729909181,-3.365921663226187,0.2726994448808953
1700516294241124900,10.424124755859374,-1.8569886341333388,-3.391602924710512,-1.309363665819913
1700516294251135700,10.4341357421875,-0.6775204913794994,5.068607332137227,-0.11063194660432636
1700516294261147000,10.44414697265625,2.754572849151492,-0.2083412832714617,-0.5898438153617084
1700516294271157800,10.45415771484375,-1.2196686357170343,-5.855011976605653,-1.0062091326490044
1700516294281168000,10.46416796875,0.026730770537257195,1.0031263642027974,0.8273457997310906
1700516294291179000,10.474178955078125,4.519818434610962,3.4775714816361663,-0.3679278514524922
1700516294301190000,10.48418994140625,-2.5272236446797844,-3.86231547986567,-0.19102478575687853
1700516294311200000,10.494199951171876,-2.1621453009068965,-4.801095920886099,-0.11802560051959007
1700516294321211000,10.5042109375,5.122807708880305,6.143056180536747,0.7031440313272178
1700516294331221800,10.5142216796875,1.2929752794682978,-1.0157966798793523,0.7498300869174301
1700516294341233000,10.52423291015625,-2.818557537806034,-6.141904672414064,-1.0381064921692014
1700516294351242800,10.53424267578125,-0.48216100088655944,3.544230942457914,0.8196303299829363
1700516294361253600,10.544253662109375,3.5223166322916746,0.3797023508004844,0.8725405207850039
1700516294371265000,10.55426513671875,-0.7618330977916717,-3.18143866379559,-1.4511495331659912
1700516294381275000,10.56427490234375,-0.3564467090278864,-2.042031751664728,0.4985699185695499
1700516294391286000,10.5742861328125,2.337846151205897,4.4460134859487415,-0.2469277651667595
1700516294401297000,10.584296875,-0.42179917890429497,-3.5200595010146496,-0.7970094059173017
1700516294411307800,10.594307861328126,-2.6078140156984326,-3.532571192063391,-1.2181262285806238
1700516294421318000,10.60431787109375,-2.3267302984297276,4.181467938765883,0.5269961313804611
1700516294431328800,10.614328857421874,3.5460657566696403,-1.5180397340036929,-0.021726094117760657
1700516294441340000,10.62433984375,-1.218410160088539,-4.33431164509058,-1.2230268601037562
1700516294451350000,10.63435009765625,-1.1864561019450426,-0.08066657806001604,0.8084479878418147
1700516294461361000,10.64436083984375,1.3292857792556285,1.5792308464169502,0.08676321443468332
1700516294471371800,10.654371826171875,-0.7223042204797268,-3.139265409454703,-0.118951958116889
1700516294481383000,10.6643828125,-0.5489134006887674,-3.1897526108935472,0.2119210779869929
1700516294491392800,10.674392822265625,1.1634510739326476,5.359231615689397,0.3774064949482679
1700516294501404000,10.68440380859375,2.276394195899367,-2.0927171060241756,-0.24161683580968527
1700516294511414800,10.694414794921874,-1.7314742487609385,-3.9093075326651334,-1.6804980947613715
1700516294521425000,10.7044248046875,0.31819793465435503,1.773738103994727,1.3522158423356712
1700516294531436000,10.71443603515625,4.435233440998196,3.252378578415513,-0.7556397230442613
1700516294541447000,10.724447021484375,-0.8476414957195519,-3.2664392524719235,-1.693298539623618
1700516294551457800,10.734457763671875,-2.8843068980455397,-4.542652782231569,-0.5095634966729209
1700516294561468000,10.744468017578125,2.006833743163943,6.442685608321428,0.21657946171946824
1700516294571478800,10.754478759765625,1.411098970067501,-0.3738894267380237,-0.5434871013237164
1700516294581490000,10.764489990234376,-2.8440356779336926,-6.6394111264705655,-1.0690069496065377
1700516294591499800,10.774499755859376,-0.6905769568294287,2.996781184580922,1.244363516512513
1700516294601510700,10.7845107421875,3.1026153024494647,2.27754511950016,0.5831452675711363
1700516294611522000,10.79452197265625,-4.10433735281229,-5.425221798947454,-0.9015417204722762
1700516294621533000,10.804532958984375,-2.8474066156715154,-1.7267524809360504,1.1526598500009626
1700516294631543000,10.81454296875,0.4674953466743231,3.7578847990542648,0.12787687672004103
1700516294641554000,10.824553955078125,-0.6609855361640453,-3.0562536565080283,-0.7014997712515294
1700516294651564800,10.834564697265625,-3.3125352332144975,-3.8873417845726013,-0.059309572982974346
1700516294661575000,10.844574951171875,-0.08734919762909411,4.463664585712552,0.41415852795802055
1700516294671585800,10.854585693359375,2.3733570250481364,-2.127450565753132,-0.2935317684967071
1700516294681596700,10.8645966796875,-1.6336065797269343,-3.258544115307927,-1.1783236488938331
1700516294691608000,10.874608154296874,0.6275906315624713,-0.06874868818596006,1.3102888178408145
1700516294701618000,10.884617919921874,4.470667157950997,4.09457379142791,-1.0838676149342208
1700516294711628800,10.89462890625,2.167679554158449,-3.5292379559874534,-1.084426344795525
1700516294721640000,10.904639892578125,-1.8371084601432084,-4.908208680388331,-0.9813261819355189
1700516294731649800,10.91464990234375,-0.23608956028819084,5.2493683884352444,0.24695384945608673
1700516294741661000,10.924660888671875,5.027959095406532,0.3793319100528955,0.03393164182677865
1700516294751671800,10.934671875,3.398969654086232,-3.7813968998059626,0.9784778798323124
1700516294761682700,10.9446826171875,-2.921635634964704,2.067716958671808,1.2082779115222393
1700516294771692800,10.95469287109375,-1.8837609057247637,0.7950978732075542,-0.7597320338591933
1700516294781704000,10.964703857421876,-5.418825375908613,-3.1170489014714953,-1.6779714988932013
1700516294791714800,10.97471484375,-4.081832091015577,-1.44999568695575,0.912357128997147
1700516294801725000,10.984724853515624,-0.44473406428992746,4.15987745372653,-0.05698566008005291
1700516294811735800,10.99473583984375,-2.8821850835859775,-4.429639274252951,-1.4613862650200724
1700516294821747000,11.004746826171875,-4.3934675984144205,-2.7644319798648356,-0.7024544416278601
1700516294831757800,11.0147578125,1.6507319020509719,3.4759821666181083,0.07550828198138625
1700516294841767700,11.024767578125,5.313052048316598,-1.3444450622037052,1.3414071558125316
1700516294851778800,11.03477880859375,3.9810166780918834,-5.261736871621013,-1.0912512954447418
1700516294861790000,11.0447900390625,-0.6931833399355412,3.008490911597013,1.922889531672746
1700516294871800000,11.054800048828126,2.7624212245643136,0.2528220108371228,0.08096362477783113
1700516294881811000,11.06481103515625,0.29606852043271065,-3.192272777020931,-0.3785121181026101
1700516294891821800,11.07482177734375,-0.939673882728815,-3.141255706489086,-0.1350514810571447
1700516294901832000,11.08483203125,3.0703935332804915,6.278482303592562,-0.7430090087257325
1700516294911842800,11.0948427734375,0.4416904588103294,0.2215459250204265,-1.0447406694866717
1700516294921853700,11.104853759765625,-4.437115016961098,-4.607380982729793,-1.7371134236916899
1700516294931864800,11.11486474609375,-3.1410183906018734,4.687628239399195,-0.7341157273698597
1700516294941874700,11.124874755859375,4.159130434751511,1.4507723704166708,-0.9233135534279048
1700516294951885800,11.1348857421875,-1.9121096328526734,-4.899665308448672,-0.7335276252835988
1700516294961897000,11.14489697265625,-3.2675603654563425,1.3828614482291042,1.6468001155599952
1700516294971906800,11.15490673828125,1.6523732395172117,0.6941868178896605,-0.1361445004582405
1700516294981918000,11.16491796875,-0.5390560235410928,-2.6691636796742677,-0.6392654333956539
1700516294991928800,11.1749287109375,-0.9483271447837353,-2.847662636259198,1.6685422840297222
1700516295001939000,11.18493896484375,0.7566361136704682,3.3354853161692617,-0.26364129181951285
1700516295011949800,11.19494970703125,1.052126541954279,-2.9985560852989552,1.2601377164885401
1700516295021961000,11.2049609375,-0.9690256494194268,-3.313522490686178,-0.9341412369124591
1700516295031968500,11.214968505859375,0.008100888869166373,3.4503514662772417,-0.16045465625245123
1700516295041978600,11.224978515625,3.714561790156364,-0.21470088143125174,-0.05720642669126391
1700516295051989500,11.234989501953125,0.22291969759166239,-3.644540743947029,-1.6576951651923357
1700516295062000600,11.245000732421875,-2.624652922296524,-1.1174642526529728,-0.440854044518806
1700516295072010500,11.255010498046875,1.7819839542925358,3.5469434162870046,-1.6782887481488287
1700516295082021400,11.265021484375,-1.9164473697960376,-1.028126511555165,-1.0881966571144759
1700516295092032500,11.275032470703126,-3.6991432717502115,-4.4128158574849365,-0.5269436340082436
1700516295102043400,11.28504345703125,3.6308494877249,6.12055910204649,1.228041765656322
1700516295112053500,11.295053466796874,2.334454170680046,-0.1956380151733756,0.8878778637137263
1700516295122064600,11.305064697265625,0.8208943585693835,-5.233833550173044,-0.0024335838224738833
1700516295132075500,11.315075439453125,0.7901946844011545,3.06017609064877,0.6745270086519419
1700516295142085600,11.325085693359375,3.165685214346647,0.7252756375059485,0.3845359815020114
1700516295152096500,11.335096435546875,-1.3892571406155825,-4.180433919543027,-0.47923510350249704
1700516295162107400,11.345107421875,-1.8138158473610877,1.0204495471864938,1.1783573319677263
1700516295172117500,11.355117431640625,3.161373196366429,2.726123584258556,-0.9917590208835899
1700516295182128400,11.36512841796875,-0.7078893261581659,-2.6905565963149067,-2.2230489746809003
1700516295192139300,11.37513916015625,-3.5650305693805215,-2.968932515929639,-1.005937622231245
1700516295202150700,11.385150634765624,0.14577975928783415,4.820750469426811,-1.162298835157603
1700516295212160500,11.395160400390624,0.0002408230185508728,-1.2450364473380147,0.6567601004887372
1700516295222171600,11.405171630859375,-4.878787355592847,-3.2718770596116777,-0.12997520070616156
1700516295232182500,11.4151826171875,-2.0419939038723705,4.317752139955759,0.6618371845573187
1700516295242192400,11.4251923828125,5.465798139485717,-1.632749378375709,2.1863155733063815
1700516295252203500,11.43520361328125,2.2555115668684245,-3.4047038138240575,0.563970063512586
1700516295262214400,11.44521435546875,1.4657839154571295,1.5501460600994525,1.5416004962027072
1700516295272224500,11.455224609375,1.0963654966533183,-0.8081907982103526,-1.1233592289756982
1700516295282235400,11.4652353515625,-3.8506343944221735,-2.0376295711830257,-0.8481900695130229
1700516295292246500,11.47524658203125,-4.154253768625855,-1.3492536315292118,-0.20989143532291055
1700516295302257700,11.485257568359375,1.7267407904982566,5.217254171293973,-0.88012425391227
1700516295312267500,11.495267578125,0.31346856804490086,-2.19834737188369,-1.0992737122502176
1700516295322278400,11.5052783203125,-2.487618195000291,-4.422504307806491,-1.2038887366525828
1700516295332289500,11.51528955078125,-0.5093091200530528,4.925429864302277,-0.03967935516592115
1700516295342299400,11.52529931640625,1.0068366168975829,-0.28470760685428975,0.6935280617199838
1700516295352310500,11.535310546875,-3.1331431271821257,-4.817446459445357,-1.1922191224511711
1700516295362321400,11.5453212890625,0.04494681070744991,3.9548528937876224,2.543817636606097
1700516295372331300,11.555331298828126,4.06580742340982,0.28245690531805157,0.9552624239396303
1700516295382342700,11.5653427734375,0.42513738341629503,-3.185840990407765,-0.6672207042265683
1700516295392353500,11.575353515625,0.04446282658278942,-2.011066704558581,0.13813925447203218
1700516295402363600,11.58536376953125,3.1446921106785535,4.501337021502852,0.11352573181707411
1700516295412374500,11.59537451171875,-1.9506033218979835,-1.6530271733812987,-2.0564570212498308
1700516295422385400,11.605385498046875,-2.871405915418267,-2.674088568855822,-1.090018611844629
1700516295432396300,11.615396240234375,1.0722165593028068,5.9226575258553025,0.7383790108375251
1700516295442406400,11.625406494140625,2.8877579152822492,-0.3808789933644235,0.8338832386758178
1700516295452417300,11.635417236328125,-1.1624217308849096,-4.591110231408477,-1.1235182919949291
1700516295462428700,11.6454287109375,-1.4715654214680194,4.120395630426705,1.6780942484900354
1700516295472438500,11.6554384765625,2.039798439654708,-0.03907090441137552,0.8230299823585897
1700516295482449400,11.665449462890624,-2.2236422643989324,-2.5950112327486274,0.06683708241097629
1700516295492460500,11.67546044921875,-1.4370581717103719,0.37943463977500796,0.6710383628185838
1700516295502470400,11.685470458984375,2.452249944499135,2.0278458437934517,-0.35741526179909705
1700516295512481500,11.6954814453125,-0.1443529413551092,-3.4924145382419227,-0.576894061689265
1700516295522492400,11.705492431640625,-0.24392566074132918,-1.6700673016399143,-0.28479579659439624
1700516295532502500,11.71550244140625,0.8672609729468822,3.2676258319079876,0.2566012736475095
1700516295542513400,11.725513427734375,0.7951350634127855,-1.084385136002302,0.5172891590215265
1700516295552524500,11.735524658203126,-0.5531500153452158,-4.458630098676681,-0.7130999004133045
1700516295562535400,11.745535400390626,1.3631407025843858,4.597755660772323,1.2627084437593816
1700516295572545500,11.755545654296874,2.758389192569256,0.4212479747623205,0.502944042000547
1700516295582556400,11.765556396484374,-1.8665397218108175,-4.1861335924893615,-0.5815371747873723
1700516295592567600,11.775567626953125,-0.4970686471611261,0.6857764246799052,1.0376569948360324
1700516295602577400,11.785577392578125,6.0516363724678754,4.622129931311309,-0.5969705254364759
1700516295612588300,11.79558837890625,-0.38194413837790486,-2.387649023642391,-0.25717421469725665
1700516295622599400,11.805599365234375,-3.428625372159481,-3.0926527113616467,-0.578253659604676
1700516295632609300,11.815609375,2.1960288658082483,4.273677435907722,-0.7393077430550009
1700516295642620700,11.82562060546875,2.5720956365853547,0.06879932239465415,0.011621098884567617
1700516295652631600,11.835631591796876,1.3648387386739254,-3.352697147732973,0.38558812090344724
1700516295662641400,11.845641357421876,-1.5928724182784557,3.3234377355009315,-0.7896176151655614
1700516295672652500,11.855652587890624,2.2562714453250168,0.10520013081394135,1.0241464289430529
1700516295682663400,11.865663330078124,-2.486379008594155,-3.682857030598819,-0.10534173124171793
1700516295692673500,11.875673583984375,-1.1507564275324345,3.073065675099194,0.8142657342098653
1700516295702684400,11.885684326171875,1.8018349021881819,0.44292146191000936,0.22192491440065204
1700516295712695600,11.895695556640625,-4.9216690504640335,-3.2729908660724756,-1.912832832560688
1700516295722705400,11.905705322265625,-3.0558471215337515,0.21111279381141065,0.24315577234737573
1700516295732716500,11.915716552734375,4.3185722241669895,2.1595251815363765,-0.08255980792809277
1700516295742727400,11.9257275390625,2.3771125781893727,-2.5656284863978622,-1.0321421769373118
1700516295752737500,11.935737548828126,-0.8695242417037486,-0.9803276724174618,0.48950581069141624
1700516295762748400,11.94574853515625,-1.9195961892157791,1.7828592758223414,-1.106258237375319
1700516295772759600,11.955759521484374,-0.47082478335797784,-0.2137809901073575,0.8014249573372304
1700516295782770400,11.9657705078125,-2.8207559246331453,-1.9717808422222733,-0.0794539508672431
1700516295792780300,11.9757802734375,0.8587298759669065,4.5563411158442495,0.5627283928884192
1700516295802791700,11.985791748046875,4.009358975479007,-0.6873195624686778,0.19040964953321962
1700516295812802600,11.995802490234375,-1.5218331349372862,-3.7561587059140202,-0.8883526416186243
1700516295822812700,12.005812744140625,-2.6141367889791725,2.288122043094039,1.43767718039155
1700516295832823600,12.015823486328125,2.6950088995486494,1.394585496031493,-0.8894160330664366
1700516295842834400,12.02583447265625,-1.7718202876746654,-2.4182446529142556,-1.6623868301399052
1700516295852844500,12.035844482421876,-1.6873972066253422,0.4909223994910717,1.4778629141770303
1700516295862855400,12.04585546875,0.7030991692721843,1.7050950681403279,-1.1306621724002062
1700516295872866300,12.0558662109375,0.3738596161216497,-0.7263212010361254,0.10083411762416362
1700516295882876400,12.06587646484375,-1.6823241411447525,-3.458599654662609,0.03352276876494288
1700516295892887600,12.075887451171875,1.0676111113339661,4.590512850037217,0.03488569114860147
1700516295902898400,12.0858984375,2.757062912401557,-0.21872736046835778,0.3561303000224754
1700516295912908500,12.095908447265625,-1.2728724026381968,-3.563190494471788,-0.5327311679011211
1700516295922919400,12.10591943359375,-1.8059376613318918,3.3042136873319743,0.6752754889316857
1700516295932930600,12.1159306640625,3.231853676781058,1.5654825993105768,0.3779726774636656
1700516295942940400,12.1259404296875,-1.2956336850225925,-2.809816012945771,-0.5472882837049663
1700516295952951600,12.13595166015625,-1.9642080688804386,1.378442608873546,0.3988507764499634
1700516295962962400,12.14596240234375,2.5025872160732745,1.5905492360278963,-0.3693055330138653
1700516295972972300,12.15597216796875,-2.943406152746081,-0.9079959381129592,-0.23013025002498178
1700516295982983700,12.165983642578125,-4.604402843701839,-2.284466735456884,0.7837010845981538
1700516295992994600,12.17599462890625,1.8699965842664241,3.630420156396925,-1.0505114349078386
1700516296003004700,12.186004638671875,2.4519991846084594,-0.9087921299919486,0.514197915007919
1700516296013015600,12.196015625,-1.0520394481927156,-3.591352466855943,0.499396542119421
1700516296023026400,12.2060263671875,0.4826736265838146,3.723504975068569,-1.0757743979148566
1700516296033036500,12.21603662109375,3.849141525515914,-0.4518203692890703,0.627940906304866
1700516296043047700,12.226047607421876,1.3969167154580353,-3.0528485242396592,0.30202286225985736
1700516296053058600,12.23605859375,0.046316345494985575,3.6868396704941984,-0.3485407947415486
1700516296063068700,12.246068603515624,2.9257120906233784,2.4751214092597364,-0.5957581539720297
1700516296073079600,12.25607958984375,-3.0321190399438143,-3.666486326034367,-1.1009595464453101
1700516296083090400,12.26609033203125,-1.1608867764025925,1.351204181075096,-0.3318602570429444
1700516296093100500,12.2761005859375,4.631904598611593,4.415743727630376,-0.9397881567582488
1700516296103111400,12.286111328125,-0.17832243097424505,-2.5992317730531096,-0.6818352858386934
1700516296113122600,12.29612255859375,0.13545008845329284,-2.9555206611707803,0.916321210322529
1700516296123132400,12.30613232421875,0.07012216849625111,4.774383855049312,-0.5658932501275092
1700516296133143600,12.3161435546875,-3.2876427840203046,-1.224084552463144,-0.4650289200281724
1700516296143154700,12.32615478515625,-5.2155742553830144,-3.471028343603015,0.9496090012878179
1700516296153164500,12.33616455078125,-4.500415230482816,5.0675943557024,0.8681181742981076
1700516296163175700,12.34617578125,1.1217746631979941,-1.2978732806429265,1.3550465357169508
1700516296173186600,12.3561865234375,-1.2339064199060201,-4.358067199209332,-2.409932897773385
1700516296183196700,12.36619677734375,2.778401468506455,2.8327006294488903,0.8425842123299837
1700516296193207600,12.37620751953125,4.726818094015121,0.22204905223697421,-0.12826635096166283
1700516296203217400,12.386217529296875,-1.2481073792159556,-3.068777914777398,-2.7199191766604778
1700516296213228500,12.396228515625,-0.9505097495198249,0.7115604158863424,0.39833866220936176
1700516296223239700,12.40623974609375,1.9008184235095977,4.178525455573201,-0.5275981158616021
1700516296233249800,12.416249755859376,0.0831669435083866,-0.925870982825756,-0.8381867080233991
1700516296243260700,12.4262607421875,-0.6577279956728219,-1.3888275170266628,-1.0864553664050995
1700516296253271600,12.436271484375,3.7730572337448596,4.284686028917133,0.4020502300783992
1700516296263281700,12.44628173828125,5.6753685261607165,1.6275350047282873,0.62313116793558
1700516296273292500,12.45629248046875,-2.935691048324108,-2.3097329863995313,1.0438329069919883
1700516296283303400,12.466303466796875,-7.107900744879245,2.5288351715296504,-0.6168203042883426
1700516296293313500,12.4763134765625,-3.88676603051126,1.2156776663847266,-0.0424043596830219
1700516296303324400,12.486324462890625,-8.341430732688307,-3.2650720557719466,-0.819683959866315
1700516296313335600,12.49633544921875,-2.708532982510328,3.572352290570736,0.986497739354521
1700516296323345700,12.506345703125,2.2275316730529067,-0.8133085796155035,0.1899850309129804
1700516296333356500,12.5163564453125,4.601313060992956,-3.1377544203698635,-0.8773091964915394
1700516296343367700,12.52636767578125,3.928659883388877,0.7271925770431756,0.46273741155751047
1700516296353377500,12.53637744140625,3.0257711322218177,0.9723696991503238,0.6084213823206722
1700516296363388400,12.546388427734374,-1.6831103230863809,-1.9523975118383765,-0.21043266606014221
1700516296373398500,12.5563984375,0.49186932495236396,-1.6372817611083388,-0.0022421163709834217
1700516296383409400,12.566409423828125,3.245584095969796,4.862911448808014,-0.21003855217602102
1700516296393420500,12.576420654296875,3.2401018651664257,0.38043504898920655,-1.4420019117228686
1700516296403430400,12.586430419921875,-1.1327817949026822,-2.4376737221360205,-1.3745095072083173
