time,seconds_elapsed,z,y,x
1700516283830260000,0.013260009765625,-0.9469146728515625,-0.2162322998046875,0.025665283203125
1700516283840270000,0.02327001953125,-1.171142578125,-0.1173553466796875,0.04248046875
1700516283850280000,0.033280029296875,-0.991943359375,0.0458221435546875,0.00274658203125
1700516283860290000,0.0432900390625,-0.8212738037109375,-0.2932891845703125,0.06640625
1700516283870300200,0.053300048828125,-0.96722412109375,-0.21868896484375,0.0475616455078125
1700516283880310000,0.06331005859375,-1.1739044189453125,-0.0638275146484375,-0.0045166015625
1700516283890320100,0.073320068359375,-1.009735107421875,-0.1060028076171875,0.0455322265625
1700516283900330000,0.083330078125,-0.9937744140625,-0.1491241455078125,0.0640869140625
1700516283910340000,0.093340087890625,-0.798736572265625,-0.145477294921875,0.0205078125
1700516283920351000,0.10335107421875,-0.9758453369140625,-0.1959075927734375,0.023101806640625
1700516283930361000,0.113361083984375,-1.1771392822265625,-0.10003662109375,0.0463409423828125
1700516283940371000,0.123370849609375,-0.9837493896484375,0.047515869140625,0.0022430419921875
1700516283950381000,0.133381103515625,-0.817047119140625,-0.30035400390625,0.08294677734375
1700516283960391200,0.14339111328125,-1.0082550048828125,-0.1811065673828125,0.03045654296875
1700516283970401000,0.153401123046875,-1.184539794921875,-0.0778045654296875,0.0152587890625
1700516283980411100,0.1634111328125,-0.985809326171875,-0.081817626953125,0.0348358154296875
1700516283990421000,0.1734208984375,-0.99639892578125,-0.1530914306640625,0.0758819580078125
1700516284000431000,0.18343115234375,-0.8105621337890625,-0.149658203125,0.01129150390625
1700516284010441000,0.19344091796875,-0.9669647216796875,-0.189239501953125,0.0117340087890625
1700516284020446700,0.20344677734375,-1.1703643798828125,-0.0793609619140625,0.0637664794921875
1700516284030456800,0.213456787109375,-1.009765625,0.04400634765625,-0.006378173828125
1700516284040467700,0.2234677734375,-0.874847412109375,-0.301025390625,0.076568603515625
1700516284050477800,0.233477783203125,-0.9174957275390625,-0.1959381103515625,0.01971435546875
1700516284060487700,0.24348779296875,-1.1175384521484375,-0.0987396240234375,0.0108489990234375
1700516284070497800,0.253497802734375,-1.0570831298828125,-0.0756072998046875,0.033172607421875
1700516284080507600,0.263507568359375,-1.033294677734375,-0.1431427001953125,0.0580291748046875
1700516284090517800,0.273517822265625,-0.7747650146484375,-0.149169921875,0.0091705322265625
1700516284100527900,0.28352783203125,-0.9258270263671875,-0.1934814453125,0.006500244140625
1700516284110537700,0.293537841796875,-1.1552276611328125,-0.0855865478515625,0.0433349609375
1700516284120547800,0.3035478515625,-1.016937255859375,0.045684814453125,-0.0036468505859375
1700516284130557700,0.3135576171875,-0.8702850341796875,-0.3509521484375,0.0864410400390625
1700516284140567800,0.32356787109375,-0.9616851806640625,-0.146270751953125,0.0009765625
1700516284150578700,0.33357861328125,-1.0765228271484375,-0.1068267822265625,-0.019256591796875
1700516284160588800,0.3435888671875,-1.0778656005859375,-0.06634521484375,0.0464019775390625
1700516284170598700,0.3535986328125,-1.0319061279296875,-0.1660919189453125,0.0435028076171875
1700516284180608800,0.36360888671875,-0.760009765625,-0.1593780517578125,0.00341796875
1700516284190619000,0.373618896484375,-0.9638671875,-0.158843994140625,-0.0004730224609375
1700516284200628700,0.383628662109375,-1.1330718994140625,-0.0446929931640625,0.0234527587890625
1700516284210638800,0.393638916015625,-1.04534912109375,-0.013397216796875,-0.0074005126953125
1700516284220648700,0.403648681640625,-0.8490142822265625,-0.3074188232421875,0.1043853759765625
1700516284230658800,0.413658935546875,-1.003204345703125,-0.086944580078125,-0.0296630859375
1700516284240668700,0.423668701171875,-1.081756591796875,-0.100189208984375,0.0300140380859375
1700516284250679800,0.4336796875,-1.0910491943359375,-0.0459442138671875,0.04595947265625
1700516284260689700,0.443689697265625,-0.9678955078125,-0.1946563720703125,0.064483642578125
1700516284270699800,0.45369970703125,-0.701263427734375,-0.13787841796875,-0.0013427734375
1700516284280709600,0.463709716796875,-1.0420379638671875,-0.1630706787109375,0.029998779296875
1700516284290719700,0.4737197265625,-1.171783447265625,0.01519775390625,0.0368499755859375
1700516284300729900,0.483729736328125,-0.9614410400390625,-0.0919189453125,0.011749267578125
1700516284310739700,0.49373974609375,-0.8187103271484375,-0.314666748046875,0.0960693359375
1700516284320749800,0.503749755859375,-1.0479583740234375,-0.096038818359375,-0.0246124267578125
1700516284330759700,0.513759765625,-1.097747802734375,-0.0936737060546875,0.0546112060546875
1700516284340769800,0.523769775390625,-1.0915374755859375,-0.1012115478515625,0.0531158447265625
1700516284350780700,0.53378076171875,-0.8908843994140625,-0.1735382080078125,0.05023193359375
1700516284360790800,0.543790771484375,-0.7993621826171875,-0.176666259765625,0.00592041015625
1700516284370800600,0.553800537109375,-1.1826629638671875,-0.130340576171875,0.0444793701171875
1700516284380810800,0.563810791015625,-1.108184814453125,0.0484466552734375,0.026519775390625
1700516284390820900,0.57382080078125,-0.860107421875,-0.208282470703125,0.046539306640625
1700516284400830700,0.583830810546875,-0.8695526123046875,-0.2589263916015625,0.066650390625
1700516284410840800,0.5938408203125,-1.1346893310546875,-0.06280517578125,-0.030975341796875
1700516284420850700,0.6038505859375,-1.09906005859375,-0.0741424560546875,0.0444488525390625
1700516284430861800,0.61386181640625,-1.0222015380859375,-0.1220703125,0.0439910888671875
1700516284440871700,0.62387158203125,-0.7745819091796875,-0.1889801025390625,0.0235748291015625
1700516284450881800,0.6338818359375,-0.877716064453125,-0.1437225341796875,-0.015350341796875
1700516284460891600,0.6438916015625,-1.16253662109375,-0.1151885986328125,0.0240325927734375
1700516284470901800,0.65390185546875,-1.09710693359375,0.049346923828125,0.0032806396484375
1700516284480911600,0.66391162109375,-0.8448028564453125,-0.2574920654296875,0.0420684814453125
1700516284490921700,0.673921630859375,-0.8750152587890625,-0.184967041015625,0.025909423828125
1700516284500931800,0.683931884765625,-1.124725341796875,-0.110076904296875,-0.028167724609375
1700516284510941700,0.693941650390625,-1.0995635986328125,-0.048828125,0.02978515625
1700516284520952600,0.70395263671875,-1.0342559814453125,-0.144683837890625,0.0434417724609375
1700516284530962700,0.713962646484375,-0.761962890625,-0.1527557373046875,-0.002197265625
1700516284540972800,0.723972900390625,-0.908447265625,-0.172576904296875,0.0242919921875
1700516284550982700,0.733982666015625,-1.1980438232421875,-0.0863037109375,0.0139923095703125
1700516284560992800,0.74399267578125,-1.05767822265625,0.04644775390625,0.0037078857421875
1700516284571002600,0.754002685546875,-0.848114013671875,-0.302947998046875,0.0811920166015625
1700516284581012700,0.7640126953125,-0.9142608642578125,-0.1462249755859375,0.00970458984375
1700516284591022800,0.77402294921875,-1.1295013427734375,-0.1166229248046875,-0.0032806396484375
1700516284601033700,0.78403369140625,-1.0854949951171875,-0.044281005859375,0.0484161376953125
1700516284611043600,0.794043701171875,-1.0057525634765625,-0.1583709716796875,0.0462188720703125
1700516284621053700,0.8040537109375,-0.7543182373046875,-0.153839111328125,0.0023956298828125
1700516284631063800,0.814063720703125,-0.966156005859375,-0.177215576171875,0.0258026123046875
1700516284641073700,0.82407373046875,-1.1693267822265625,-0.057403564453125,0.022613525390625
1700516284651083800,0.834083740234375,-1.0338592529296875,0.0058746337890625,-0.01446533203125
1700516284661093600,0.84409375,-0.8399810791015625,-0.317291259765625,0.0894012451171875
1700516284671103700,0.854103759765625,-0.9459991455078125,-0.123504638671875,-0.0045166015625
1700516284681114600,0.864114501953125,-1.1194915771484375,-0.1231689453125,-0.0028228759765625
1700516284691124700,0.874124755859375,-1.077789306640625,-0.0594635009765625,0.047149658203125
1700516284701134600,0.884134521484375,-0.9995880126953125,-0.1670989990234375,0.035888671875
1700516284711144700,0.894144775390625,-0.7142791748046875,-0.14501953125,-0.011993408203125
1700516284721154800,0.90415478515625,-1.010650634765625,-0.1834869384765625,0.0296630859375
1700516284731164700,0.91416455078125,-1.1839752197265625,-0.0264434814453125,0.0128326416015625
1700516284741174800,0.9241748046875,-1.01251220703125,-0.027374267578125,-0.00787353515625
1700516284751185700,0.934185546875,-0.820404052734375,-0.315185546875,0.08935546875
1700516284761195800,0.94419580078125,-0.9766693115234375,-0.09808349609375,-0.01959228515625
1700516284771205600,0.95420556640625,-1.1423187255859375,-0.103057861328125,0.0082855224609375
1700516284781215700,0.9642158203125,-1.086639404296875,-0.073822021484375,0.0533294677734375
1700516284791225600,0.9742255859375,-0.9600067138671875,-0.148406982421875,0.0277099609375
1700516284801235700,0.984235595703125,-0.7127532958984375,-0.1476593017578125,0.0092926025390625
1700516284811245600,0.99424560546875,-1.060943603515625,-0.17120361328125,0.0252838134765625
1700516284821255700,1.004255615234375,-1.1809539794921875,0.0093841552734375,0.0205078125
1700516284831266600,1.0142666015625,-0.997406005859375,-0.061859130859375,-0.0040740966796875
1700516284841276700,1.024276611328125,-0.8052978515625,-0.31005859375,0.0994873046875
1700516284851286500,1.03428662109375,-1.0069732666015625,-0.09307861328125,-0.0193328857421875
1700516284861296600,1.044296630859375,-1.113037109375,-0.09393310546875,0.0153961181640625
1700516284871306800,1.054306640625,-1.09271240234375,-0.07470703125,0.0598602294921875
1700516284881316600,1.064316650390625,-0.9263763427734375,-0.1865386962890625,0.025177001953125
1700516284891326700,1.07432666015625,-0.7208099365234375,-0.139129638671875,0.008087158203125
1700516284901337600,1.084337646484375,-1.0799560546875,-0.1782989501953125,0.0257110595703125
1700516284911347700,1.09434765625,-1.166900634765625,0.0217437744140625,0.017364501953125
1700516284921357600,1.104357666015625,-0.97662353515625,-0.1095428466796875,0.0020751953125
1700516284931367700,1.11436767578125,-0.816070556640625,-0.2895050048828125,0.0870513916015625
1700516284941377500,1.12437744140625,-1.0355377197265625,-0.1022186279296875,-0.0231781005859375
1700516284951387600,1.1343876953125,-1.1009521484375,-0.0849456787109375,0.0173187255859375
1700516284961397800,1.144397705078125,-1.0831451416015625,-0.094879150390625,0.059295654296875
1700516284971408600,1.15440869140625,-0.8901214599609375,-0.177154541015625,0.0164337158203125
1700516284981418500,1.16441845703125,-0.74951171875,-0.143035888671875,0.0092620849609375
1700516284991428600,1.1744287109375,-1.12860107421875,-0.1635894775390625,0.0218658447265625
1700516285001438700,1.184438720703125,-1.1457977294921875,0.0496826171875,0.0141754150390625
1700516285011448600,1.194448486328125,-0.9325103759765625,-0.156707763671875,0.0201263427734375
1700516285021459200,1.204459228515625,-0.809356689453125,-0.26983642578125,0.0714569091796875
1700516285031470300,1.21447021484375,-1.0931854248046875,-0.08428955078125,-0.0196685791015625
1700516285041480200,1.224480224609375,-1.1148834228515625,-0.068450927734375,0.0177154541015625
1700516285051490300,1.234490234375,-1.0554656982421875,-0.1237640380859375,0.064178466796875
1700516285061500200,1.244500244140625,-0.8207244873046875,-0.1374664306640625,0.008880615234375
1700516285071510000,1.254510009765625,-0.82568359375,-0.1719970703125,0.0105438232421875
1700516285081520000,1.26452001953125,-1.1992950439453125,-0.134613037109375,0.0265960693359375
1700516285091530000,1.274530029296875,-1.0952606201171875,0.0644989013671875,0.0073089599609375
1700516285101541400,1.284541259765625,-0.846221923828125,-0.217132568359375,0.0386810302734375
1700516285111551200,1.29455126953125,-0.849334716796875,-0.2514190673828125,0.04461669921875
1700516285121561300,1.304561279296875,-1.1813812255859375,-0.0652618408203125,-0.00616455078125
1700516285131571200,1.3145712890625,-1.096221923828125,-0.071380615234375,0.0156402587890625
1700516285141581300,1.324581298828125,-0.981414794921875,-0.155426025390625,0.064117431640625
1700516285151591400,1.33459130859375,-0.7754974365234375,-0.119171142578125,-0.001556396484375
1700516285161602300,1.344602294921875,-0.9383392333984375,-0.1917877197265625,0.0194244384765625
1700516285171612200,1.354612060546875,-1.228179931640625,-0.107147216796875,0.0298309326171875
1700516285181622300,1.364622314453125,-1.0125579833984375,0.059234619140625,0.0079345703125
1700516285191632400,1.37463232421875,-0.7857208251953125,-0.2762451171875,0.0523529052734375
1700516285201642200,1.384642333984375,-0.9342803955078125,-0.2164459228515625,0.034942626953125
1700516285211652400,1.39465234375,-1.227874755859375,-0.05804443359375,0.003631591796875
1700516285221663200,1.404663330078125,-1.0341644287109375,-0.087493896484375,0.0218048095703125
1700516285231673300,1.41467333984375,-0.9347991943359375,-0.1544647216796875,0.0634002685546875
1700516285241683200,1.42468310546875,-0.79437255859375,-0.131988525390625,0.00750732421875
1700516285251693300,1.434693359375,-1.0418548583984375,-0.1689300537109375,0.016357421875
1700516285261703200,1.444703125,-1.1764373779296875,-0.1068878173828125,0.03839111328125
1700516285271713300,1.45471337890625,-0.9543304443359375,0.0358123779296875,-0.0003204345703125
1700516285281724200,1.46472412109375,-0.796478271484375,-0.2884368896484375,0.0697174072265625
1700516285291734300,1.474734375,-1.00439453125,-0.1764068603515625,0.0208587646484375
1700516285301744000,1.484744140625,-1.2161712646484375,-0.071044921875,0.0139007568359375
1700516285311754200,1.494754150390625,-0.9815216064453125,-0.093048095703125,0.020660400390625
1700516285321764400,1.504764404296875,-0.9373321533203125,-0.15057373046875,0.064788818359375
1700516285331774200,1.514774169921875,-0.8165130615234375,-0.1002349853515625,-0.0100555419921875
1700516285341785000,1.52478515625,-1.066619873046875,-0.2151947021484375,0.03778076171875
1700516285351795200,1.534795166015625,-1.1535186767578125,-0.069305419921875,0.0180206298828125
1700516285361805300,1.544805419921875,-0.926025390625,0.0382537841796875,0.006011962890625
1700516285371815200,1.554815185546875,-0.817901611328125,-0.324188232421875,0.063873291015625
1700516285381825300,1.5648251953125,-1.0500335693359375,-0.155181884765625,0.0155181884765625
1700516285391835100,1.574835205078125,-1.192230224609375,-0.0656585693359375,0.0032806396484375
1700516285401846300,1.58484619140625,-0.9591827392578125,-0.1153106689453125,0.0327911376953125
1700516285411856100,1.594856201171875,-0.9524078369140625,-0.133331298828125,0.0505828857421875
1700516285421866200,1.6048662109375,-0.815460205078125,-0.1215057373046875,-0.0030364990234375
1700516285431876000,1.6148759765625,-1.0826873779296875,-0.20355224609375,0.0312652587890625
1700516285441886200,1.62488623046875,-1.1333160400390625,-0.053619384765625,0.0231170654296875
1700516285451896000,1.63489599609375,-0.9128265380859375,0.017822265625,-0.0023956298828125
1700516285461907200,1.6449072265625,-0.80938720703125,-0.3524322509765625,0.0800628662109375
1700516285471917000,1.6549169921875,-1.0735931396484375,-0.1222076416015625,0.0060272216796875
1700516285481927200,1.66492724609375,-1.173797607421875,-0.063323974609375,-0.0030517578125
1700516285491937300,1.674937255859375,-0.96368408203125,-0.1299285888671875,0.041748046875
1700516285501947100,1.684947021484375,-0.9278106689453125,-0.1303863525390625,0.04071044921875
1700516285511958000,1.6949580078125,-0.80462646484375,-0.1387786865234375,-0.0014190673828125
1700516285521968000,1.704968017578125,-1.1403045654296875,-0.174468994140625,0.0213165283203125
1700516285531978200,1.714978271484375,-1.1262664794921875,-0.0310211181640625,0.031280517578125
1700516285541988000,1.724988037109375,-0.883880615234375,-0.01922607421875,-0.012237548828125
1700516285551998200,1.734998291015625,-0.80474853515625,-0.3637847900390625,0.0915985107421875
1700516285562008000,1.745008056640625,-1.1307220458984375,-0.0658416748046875,-0.0211181640625
1700516285572019200,1.755019287109375,-1.1672515869140625,-0.07574462890625,0.024627685546875
1700516285582029000,1.765029052734375,-0.93939208984375,-0.1437835693359375,0.0360870361328125
1700516285592039200,1.7750390625,-0.8901519775390625,-0.1157989501953125,0.04339599609375
1700516285602049000,1.785049072265625,-0.8360443115234375,-0.1600494384765625,0.001068115234375
1700516285612059100,1.79505908203125,-1.1884002685546875,-0.1606903076171875,0.0267791748046875
1700516285622070000,1.805070068359375,-1.075836181640625,0.002197265625,0.032928466796875
1700516285632080100,1.815080078125,-0.84442138671875,-0.0813140869140625,-0.0057830810546875
1700516285642090000,1.825090087890625,-0.8294677734375,-0.3632049560546875,0.0968017578125
1700516285652100000,1.83510009765625,-1.1757965087890625,-0.0356903076171875,-0.024078369140625
1700516285662110200,1.845110107421875,-1.12481689453125,-0.0873565673828125,0.034423828125
1700516285672121300,1.855121337890625,-0.9283599853515625,-0.1486663818359375,0.0430145263671875
1700516285682131200,1.865131103515625,-0.86102294921875,-0.141082763671875,0.0452423095703125
1700516285692141300,1.875141357421875,-0.8885040283203125,-0.1620330810546875,-0.0031585693359375
1700516285702151400,1.8851513671875,-1.2076263427734375,-0.142822265625,0.0343170166015625
1700516285712161300,1.895161376953125,-1.0388031005859375,0.0146942138671875,0.02783203125
1700516285722172200,1.905172119140625,-0.8331756591796875,-0.142059326171875,0.0081329345703125
1700516285732182300,1.915182373046875,-0.8623504638671875,-0.3211669921875,0.0833892822265625
1700516285742192400,1.9251923828125,-1.20770263671875,-0.0319061279296875,-0.0229339599609375
1700516285752202200,1.9352021484375,-1.08831787109375,-0.0914459228515625,0.02886962890625
1700516285762212400,1.94521240234375,-0.9250335693359375,-0.1560211181640625,0.05322265625
1700516285772223200,1.95522314453125,-0.8423614501953125,-0.120697021484375,0.026397705078125
1700516285782233300,1.9652333984375,-0.9316253662109375,-0.16876220703125,0.0012054443359375
1700516285792243200,1.9752431640625,-1.2083740234375,-0.1419219970703125,0.0357818603515625
1700516285802253300,1.98525341796875,-1.00445556640625,0.0395355224609375,0.0140228271484375
1700516285812263200,1.99526318359375,-0.8274993896484375,-0.1862030029296875,0.024658203125
1700516285822274300,2.0052744140625,-0.8887176513671875,-0.285003662109375,0.0622711181640625
1700516285832284200,2.0152841796875,-1.2176055908203125,-0.043243408203125,-0.0146484375
1700516285842294300,2.025294189453125,-1.05517578125,-0.0886383056640625,0.0157623291015625
1700516285852304100,2.03530419921875,-0.92529296875,-0.1661224365234375,0.0670318603515625
1700516285862314200,2.045314208984375,-0.8354034423828125,-0.1043853759765625,0.003692626953125
1700516285872325000,2.0553251953125,-0.95013427734375,-0.19140625,0.0151824951171875
1700516285882335200,2.065335205078125,-1.206390380859375,-0.13153076171875,0.0297393798828125
1700516285892345000,2.075344970703125,-0.9903411865234375,0.0491180419921875,0.0117950439453125
1700516285902355200,2.085355224609375,-0.8226318359375,-0.223358154296875,0.033447265625
1700516285912365300,2.095365234375,-0.9142913818359375,-0.2686920166015625,0.0565338134765625
1700516285922376200,2.105376220703125,-1.2227630615234375,-0.0421295166015625,-0.01220703125
1700516285932386000,2.115385986328125,-1.0359039306640625,-0.088897705078125,0.01751708984375
1700516285942396200,2.125396240234375,-0.93475341796875,-0.1666412353515625,0.070037841796875
1700516285952406300,2.13540625,-0.8234405517578125,-0.10638427734375,-0.0020599365234375
1700516285962416000,2.145416015625,-0.974029541015625,-0.199066162109375,0.0218658447265625
1700516285972427000,2.155427001953125,-1.209228515625,-0.11102294921875,0.0265960693359375
1700516285982437000,2.16543701171875,-0.9736328125,0.05316162109375,0.0105133056640625
1700516285992447200,2.175447265625,-0.8057098388671875,-0.2666168212890625,0.04437255859375
1700516286002457000,2.18545703125,-0.946380615234375,-0.2350616455078125,0.046600341796875
1700516286012467200,2.19546728515625,-1.233123779296875,-0.0391387939453125,-0.0108489990234375
1700516286022482200,2.205482177734375,-1.0121307373046875,-0.0948638916015625,0.0255889892578125
1700516286032492300,2.2154921875,-0.9366912841796875,-0.157012939453125,0.063323974609375
1700516286042502100,2.225502197265625,-0.8040771484375,-0.1121368408203125,0.0000762939453125
1700516286052512300,2.23551220703125,-1.02471923828125,-0.199920654296875,0.0224151611328125
1700516286062523100,2.245523193359375,-1.2020111083984375,-0.0826263427734375,0.0297698974609375
1700516286072533200,2.255533203125,-0.942352294921875,0.0481719970703125,0.001800537109375
1700516286082543000,2.265543212890625,-0.7902069091796875,-0.322052001953125,0.0622711181640625
1700516286092553200,2.27555322265625,-1.0038604736328125,-0.17767333984375,0.025726318359375
1700516286102563000,2.28556298828125,-1.2279815673828125,-0.0500030517578125,-0.00384521484375
1700516286112574200,2.29557421875,-0.9818115234375,-0.106903076171875,0.0293121337890625
1700516286122584000,2.305583984375,-0.919342041015625,-0.148681640625,0.053558349609375
1700516286132594200,2.31559423828125,-0.7982025146484375,-0.1391143798828125,0.0020751953125
1700516286142604000,2.32560400390625,-1.1090087890625,-0.1567230224609375,0.0106964111328125
1700516286152615200,2.335615234375,-1.1513671875,-0.0827484130859375,0.04339599609375
1700516286162625000,2.345625,-0.9140625,0.0108642578125,-0.0128021240234375
1700516286172635100,2.35563525390625,-0.7972869873046875,-0.326995849609375,0.0825042724609375
1700516286182645000,2.36564501953125,-1.0592498779296875,-0.124664306640625,0.0016632080078125
1700516286192655000,2.375655029296875,-1.2017669677734375,-0.08697509765625,0.0136566162109375
1700516286202666200,2.385666259765625,-0.9563140869140625,-0.1040802001953125,0.02215576171875
1700516286212676400,2.39567626953125,-0.9207000732421875,-0.1389312744140625,0.0581817626953125
1700516286222686200,2.405686279296875,-0.8155670166015625,-0.128143310546875,-0.0130767822265625
1700516286232696300,2.4156962890625,-1.1333160400390625,-0.19232177734375,0.034423828125
1700516286242707200,2.425707275390625,-1.122100830078125,-0.04205322265625,0.0224761962890625
1700516286252717300,2.43571728515625,-0.890380859375,-0.00775146484375,0.0008392333984375
1700516286262727200,2.44572705078125,-0.81414794921875,-0.354095458984375,0.0787811279296875
1700516286272737300,2.4557373046875,-1.104644775390625,-0.09368896484375,-0.0030975341796875
1700516286282748200,2.465748046875,-1.1692047119140625,-0.0899505615234375,0.0113677978515625
1700516286292758300,2.47575830078125,-0.93096923828125,-0.1167144775390625,0.0348663330078125
1700516286302768000,2.48576806640625,-0.92138671875,-0.1380157470703125,0.04840087890625
1700516286312778200,2.4957783203125,-0.83380126953125,-0.1385345458984375,-0.007720947265625
1700516286322789000,2.5057890625,-1.1507110595703125,-0.1771240234375,0.030487060546875
1700516286332799200,2.51579931640625,-1.0898590087890625,-0.0312957763671875,0.027740478515625
1700516286342809000,2.52580908203125,-0.8873748779296875,-0.03179931640625,-0.00531005859375
1700516286352819200,2.535819091796875,-0.829803466796875,-0.356781005859375,0.0890045166015625
1700516286362829300,2.545829345703125,-1.12957763671875,-0.0723876953125,-0.0144805908203125
1700516286372840200,2.555840087890625,-1.137725830078125,-0.0909271240234375,0.018768310546875
1700516286382850000,2.56585009765625,-0.9320068359375,-0.12957763671875,0.0408477783203125
1700516286392860200,2.575860107421875,-0.9217987060546875,-0.1306304931640625,0.043426513671875
1700516286402870300,2.585870361328125,-0.838775634765625,-0.14605712890625,-0.0061187744140625
1700516286412881200,2.595881103515625,-1.169403076171875,-0.171722412109375,0.0315704345703125
1700516286422891300,2.605891357421875,-1.0755157470703125,-0.013031005859375,0.0274658203125
1700516286432901000,2.615901123046875,-0.86895751953125,-0.0640716552734375,-0.0026702880859375
1700516286442911200,2.6259111328125,-0.8357086181640625,-0.352813720703125,0.0877838134765625
1700516286452922000,2.635922119140625,-1.1652374267578125,-0.05511474609375,-0.017913818359375
1700516286462932200,2.64593212890625,-1.11236572265625,-0.0929718017578125,0.0191802978515625
1700516286472942000,2.655942138671875,-0.919464111328125,-0.147247314453125,0.04779052734375
1700516286482952200,2.6659521484375,-0.9071197509765625,-0.1143035888671875,0.0310211181640625
1700516286492963000,2.675963134765625,-0.8612823486328125,-0.1687164306640625,0.0023193359375
1700516286502973200,2.68597314453125,-1.193145751953125,-0.1586151123046875,0.0294647216796875
1700516286512983000,2.695983154296875,-1.043609619140625,0.0148773193359375,0.0261077880859375
1700516286522993200,2.7059931640625,-0.84918212890625,-0.1152191162109375,0.0028228759765625
1700516286533004300,2.71600439453125,-0.8597259521484375,-0.3481597900390625,0.0895843505859375
1700516286543014400,2.726014404296875,-1.191314697265625,-0.0327301025390625,-0.026153564453125
1700516286553024300,2.736024169921875,-1.080535888671875,-0.09259033203125,0.024688720703125
1700516286563034400,2.746034423828125,-0.923858642578125,-0.14556884765625,0.05047607421875
1700516286573045200,2.756045166015625,-0.8670196533203125,-0.148529052734375,0.035491943359375
1700516286583055400,2.766055419921875,-0.916595458984375,-0.152862548828125,-0.004364013671875
1700516286593065200,2.776065185546875,-1.199249267578125,-0.14349365234375,0.033721923828125
1700516286603075300,2.786075439453125,-1.0145111083984375,0.01416015625,0.0254058837890625
1700516286613086200,2.796086181640625,-0.8446044921875,-0.157501220703125,0.009368896484375
1700516286623096300,2.806096435546875,-0.880035400390625,-0.296875,0.079254150390625
1700516286633106200,2.816106201171875,-1.2063751220703125,-0.04852294921875,-0.0229949951171875
1700516286643117300,2.826117431640625,-1.0463409423828125,-0.09326171875,0.026580810546875
1700516286653127200,2.836127197265625,-0.923004150390625,-0.161407470703125,0.0579376220703125
1700516286663137300,2.84613720703125,-0.8733673095703125,-0.10125732421875,0.016265869140625
1700516286673147100,2.856147216796875,-0.9363250732421875,-0.1823272705078125,0.0110321044921875
1700516286683158300,2.866158203125,-1.2020721435546875,-0.14288330078125,0.032806396484375
1700516286693168000,2.876168212890625,-0.990081787109375,0.040252685546875,0.014373779296875
1700516286703178200,2.88617822265625,-0.84161376953125,-0.1974945068359375,0.0233612060546875
1700516286713188000,2.89618798828125,-0.910888671875,-0.288543701171875,0.06512451171875
1700516286723199200,2.90619921875,-1.2137298583984375,-0.042755126953125,-0.0158538818359375
1700516286733209000,2.916208984375,-1.027862548828125,-0.0945892333984375,0.0185394287109375
1700516286743219200,2.92621923828125,-0.927001953125,-0.165252685546875,0.066558837890625
1700516286753229000,2.93622900390625,-0.856658935546875,-0.102386474609375,0.0029754638671875
1700516286763240200,2.946240234375,-0.9554290771484375,-0.191619873046875,0.018524169921875
1700516286773250000,2.95625,-1.187469482421875,-0.1309967041015625,0.0281829833984375
1700516286783260200,2.96626025390625,-0.9806060791015625,0.0426177978515625,0.0144805908203125
1700516286793271300,2.976271240234375,-0.8380279541015625,-0.2269134521484375,0.0281524658203125
1700516286803281400,2.986281494140625,-0.9090728759765625,-0.26885986328125,0.0640716552734375
1700516286813291000,2.996291015625,-1.2132568359375,-0.0376434326171875,-0.020050048828125
1700516286823301000,3.006301025390625,-1.034332275390625,-0.0933685302734375,0.0217132568359375
1700516286833312300,3.016312255859375,-0.93402099609375,-0.1670379638671875,0.0659637451171875
1700516286843322400,3.026322265625,-0.8202667236328125,-0.104583740234375,0.0003509521484375
1700516286853332200,3.036332275390625,-0.9876556396484375,-0.1917572021484375,0.01507568359375
1700516286863343400,3.04634326171875,-1.2016754150390625,-0.112945556640625,0.0281219482421875
1700516286873353200,3.056353271484375,-0.972137451171875,0.04144287109375,0.010711669921875
1700516286883363300,3.06636328125,-0.8124542236328125,-0.2568817138671875,0.03424072265625
1700516286893373200,3.076373291015625,-0.9418182373046875,-0.2329864501953125,0.051544189453125
1700516286903384300,3.08638427734375,-1.234405517578125,-0.0445404052734375,-0.0139007568359375
1700516286913394200,3.096394287109375,-1.0117340087890625,-0.0977020263671875,0.0205841064453125
1700516286923404300,3.106404296875,-0.9207916259765625,-0.16412353515625,0.065460205078125
1700516286933414100,3.1164140625,-0.8164215087890625,-0.1038665771484375,-0.002960205078125
1700516286943425300,3.12642529296875,-1.0292205810546875,-0.20025634765625,0.0206451416015625
1700516286953435100,3.13643505859375,-1.18231201171875,-0.1008758544921875,0.0288848876953125
1700516286963445200,3.1464453125,-0.9457550048828125,0.0407257080078125,0.0041351318359375
1700516286973456100,3.1564560546875,-0.807586669921875,-0.2879791259765625,0.0478973388671875
1700516286983466200,3.16646630859375,-0.9781341552734375,-0.2016448974609375,0.0393829345703125
1700516286993476000,3.17647607421875,-1.23052978515625,-0.049224853515625,-0.00982666015625
1700516287003487200,3.1864873046875,-0.9937286376953125,-0.10498046875,0.02105712890625
1700516287013497000,3.1964970703125,-0.9262237548828125,-0.154205322265625,0.06195068359375
1700516287023504000,3.20650390625,-0.8109283447265625,-0.1072998046875,-0.005340576171875
1700516287033513700,3.216513671875,-1.0629730224609375,-0.1995697021484375,0.0228271484375
1700516287043524900,3.22652490234375,-1.1707763671875,-0.0863494873046875,0.030731201171875
1700516287053534700,3.23653466796875,-0.927276611328125,0.03533935546875,-0.001495361328125
1700516287063544800,3.246544921875,-0.7999725341796875,-0.3200836181640625,0.06036376953125
1700516287073555700,3.2565556640625,-1.01373291015625,-0.1655426025390625,0.023681640625
1700516287083565800,3.26656591796875,-1.2290191650390625,-0.057281494140625,-0.001434326171875
1700516287093575700,3.27657568359375,-0.9732666015625,-0.1150970458984375,0.024200439453125
1700516287103586600,3.286586669921875,-0.921417236328125,-0.1412353515625,0.0533447265625
1700516287113596700,3.2965966796875,-0.80926513671875,-0.1159515380859375,-0.006011962890625
1700516287123606800,3.306606689453125,-1.105682373046875,-0.19281005859375,0.0225067138671875
1700516287133616600,3.31661669921875,-1.153656005859375,-0.0639495849609375,0.0323638916015625
1700516287143627500,3.32662744140625,-0.906158447265625,0.0145721435546875,-0.0059051513671875
1700516287153637600,3.3366376953125,-0.79290771484375,-0.3435516357421875,0.0688934326171875
1700516287163647700,3.346647705078125,-1.0583648681640625,-0.1235504150390625,0.0089569091796875
1700516287173658600,3.35665869140625,-1.2178802490234375,-0.0641021728515625,0.0033416748046875
1700516287183668700,3.366668701171875,-0.95306396484375,-0.123779296875,0.028778076171875
1700516287193678600,3.3766787109375,-0.9025421142578125,-0.1352081298828125,0.049957275390625
1700516287203689500,3.386689453125,-0.8189544677734375,-0.126220703125,-0.0042572021484375
1700516287213699600,3.396699462890625,-1.1447906494140625,-0.1772308349609375,0.0206146240234375
1700516287223709700,3.406709716796875,-1.1214141845703125,-0.0551300048828125,0.0341339111328125
1700516287233719600,3.416719482421875,-0.8883209228515625,-0.011810302734375,-0.011444091796875
1700516287243730700,3.426730712890625,-0.7967987060546875,-0.3488616943359375,0.0794219970703125
1700516287253740800,3.43674072265625,-1.10150146484375,-0.0950927734375,-0.0028839111328125
1700516287263751000,3.4467509765625,-1.194671630859375,-0.079803466796875,0.009307861328125
1700516287273761800,3.45676171875,-0.93536376953125,-0.128997802734375,0.0272216796875
1700516287283771600,3.466771728515625,-0.897064208984375,-0.1349029541015625,0.0504608154296875
1700516287293781800,3.47678173828125,-0.849090576171875,-0.126373291015625,-0.00970458984375
1700516287303792600,3.486792724609375,-1.163238525390625,-0.17401123046875,0.0263214111328125
1700516287313802800,3.496802734375,-1.0836181640625,-0.049591064453125,0.027313232421875
1700516287323812600,3.5068125,-0.8892669677734375,-0.027252197265625,-0.0089874267578125
1700516287333823700,3.51682373046875,-0.8160247802734375,-0.3331298828125,0.0784759521484375
1700516287343833600,3.52683349609375,-1.1136016845703125,-0.0888824462890625,-0.0023956298828125
1700516287353843700,3.53684375,-1.1744537353515625,-0.088409423828125,0.0069122314453125
1700516287363854600,3.5468544921875,-0.942596435546875,-0.12744140625,0.032989501953125
1700516287373864700,3.55686474609375,-0.9026641845703125,-0.1120452880859375,0.0447540283203125
1700516287383874600,3.56687451171875,-0.8417816162109375,-0.1374969482421875,-0.005584716796875
1700516287393885700,3.5768857421875,-1.145355224609375,-0.1921539306640625,0.0356597900390625
1700516287403895600,3.5868955078125,-1.0921173095703125,-0.03125,0.012847900390625
1700516287413905700,3.59690576171875,-0.9080963134765625,-0.025054931640625,0.003021240234375
1700516287423916500,3.60691650390625,-0.812896728515625,-0.3417205810546875,0.0675506591796875
1700516287433926700,3.6169267578125,-1.0871124267578125,-0.09112548828125,0.004180908203125
1700516287443936500,3.6269365234375,-1.176361083984375,-0.084747314453125,-0.0044403076171875
1700516287453948000,3.636947998046875,-0.97308349609375,-0.1247711181640625,0.04449462890625
1700516287463957800,3.646957763671875,-0.884979248046875,-0.12469482421875,0.0375213623046875
1700516287473967900,3.6569677734375,-0.8192138671875,-0.12493896484375,-0.00970458984375
1700516287483978800,3.666978759765625,-1.1451873779296875,-0.185577392578125,0.0348663330078125
1700516287493988900,3.67698876953125,-1.115509033203125,-0.0416259765625,0.015411376953125
1700516287503998700,3.686998779296875,-0.91937255859375,-0.006195068359375,-0.0076904296875
1700516287514009600,3.697009521484375,-0.79766845703125,-0.3415679931640625,0.074859619140625
1700516287524019700,3.707019775390625,-1.06939697265625,-0.1012725830078125,0.00274658203125
1700516287534029800,3.71702978515625,-1.190948486328125,-0.081329345703125,0.00213623046875
1700516287544040700,3.727040771484375,-0.9825897216796875,-0.1232452392578125,0.032684326171875
1700516287554050600,3.737050537109375,-0.896636962890625,-0.1076202392578125,0.04876708984375
1700516287564060700,3.747060791015625,-0.8002471923828125,-0.117431640625,-0.0149078369140625
1700516287574071600,3.757071533203125,-1.12884521484375,-0.2228546142578125,0.0522308349609375
1700516287584081700,3.76708154296875,-1.1342010498046875,-0.03045654296875,0.0091705322265625
1700516287594091800,3.777091796875,-0.9012603759765625,0.016082763671875,0.0096282958984375
1700516287604102700,3.7871025390625,-0.809661865234375,-0.375335693359375,0.0742645263671875
1700516287614112500,3.797112548828125,-1.0588531494140625,-0.1146392822265625,0.01861572265625
1700516287624122600,3.80712255859375,-1.1970672607421875,-0.069488525390625,0.002044677734375
1700516287634133500,3.817133544921875,-1.0252838134765625,-0.1116180419921875,0.0482177734375
1700516287644143600,3.8271435546875,-0.914276123046875,-0.117767333984375,0.025482177734375
1700516287654154800,3.83715478515625,-0.7826385498046875,-0.137939453125,-0.016937255859375
1700516287664164900,3.847164794921875,-1.0720977783203125,-0.1880950927734375,0.027496337890625
1700516287674174700,3.8571748046875,-1.17327880859375,-0.0355072021484375,0.01361083984375
1700516287684185900,3.867185791015625,-0.9710845947265625,0.0291595458984375,-0.0012054443359375
1700516287694195700,3.87719580078125,-0.7770843505859375,-0.36419677734375,0.058074951171875
1700516287704205800,3.887205810546875,-0.9763336181640625,-0.102569580078125,0.0074005126953125
1700516287714216700,3.897216796875,-1.2060546875,-0.0736846923828125,0.0276947021484375
1700516287724226800,3.907226806640625,-1.04534912109375,-0.096923828125,0.0194854736328125
1700516287734236700,3.917236572265625,-0.9017486572265625,-0.1451416015625,0.058624267578125
1700516287744247600,3.92724755859375,-0.7203826904296875,-0.1407318115234375,0.006500244140625
1700516287754257700,3.937257568359375,-1.104400634765625,-0.191375732421875,0.0233001708984375
1700516287764267800,3.947267822265625,-1.194366455078125,-0.055816650390625,0.043121337890625
1700516287774278700,3.957278564453125,-0.9056549072265625,-0.00048828125,0.00396728515625
1700516287784288800,3.967288818359375,-0.751678466796875,-0.382843017578125,0.0647430419921875
1700516287794299600,3.977299560546875,-1.0765228271484375,-0.1105804443359375,0.0077972412109375
1700516287804309500,3.9873095703125,-1.1937713623046875,-0.081878662109375,0.0498046875
1700516287814319600,3.997319580078125,-0.9800262451171875,-0.1190948486328125,0.00396728515625
1700516287824330800,4.007330810546875,-0.9195404052734375,-0.1279296875,0.07000732421875
1700516287834340600,4.017340576171875,-0.788726806640625,-0.138427734375,0.00384521484375
1700516287844350500,4.0273505859375,-1.140594482421875,-0.1880950927734375,0.0232391357421875
1700516287854361900,4.03736181640625,-1.1065521240234375,-0.0289306640625,0.0500946044921875
1700516287864371700,4.047371826171875,-0.908172607421875,0.00921630859375,-0.00555419921875
1700516287874381800,4.0573818359375,-0.8365478515625,-0.37994384765625,0.0860443115234375
1700516287884392700,4.067392822265625,-1.1322174072265625,-0.0608367919921875,0.001190185546875
1700516287894402800,4.07740283203125,-1.128570556640625,-0.06500244140625,0.0643157958984375
1700516287904413700,4.08741357421875,-0.9715576171875,-0.12249755859375,0.0167694091796875
1700516287914423800,4.097423828125,-0.9468841552734375,-0.10980224609375,0.0829925537109375
1700516287924433700,4.10743359375,-0.8290252685546875,-0.1379547119140625,0.022552490234375
1700516287934444500,4.117444580078125,-1.154937744140625,-0.1629791259765625,0.0370025634765625
1700516287944454700,4.12745458984375,-1.0570526123046875,-0.0046844482421875,0.0592193603515625
1700516287954464800,4.13746484375,-0.8920135498046875,-0.0352935791015625,-0.0094146728515625
1700516287964475600,4.1474755859375,-0.873443603515625,-0.380462646484375,0.101593017578125
1700516287974485800,4.15748583984375,-1.155731201171875,-0.0687713623046875,-0.0145721435546875
1700516287984496600,4.16749658203125,-1.075653076171875,-0.0877532958984375,0.0427093505859375
1700516287994506500,4.177506591796875,-0.947052001953125,-0.1479339599609375,0.0205841064453125
1700516288004516600,4.1875166015625,-0.9427490234375,-0.118377685546875,0.060516357421875
1700516288014527700,4.19752783203125,-0.816680908203125,-0.189117431640625,0.0163421630859375
1700516288024537900,4.207537841796875,-1.1253814697265625,-0.1764678955078125,0.0323638916015625
1700516288034547700,4.217547607421875,-1.015625,-0.0178375244140625,0.0561370849609375
1700516288044558800,4.227558837890625,-0.87054443359375,-0.075958251953125,-0.0020751953125
1700516288054568700,4.237568603515625,-0.9094085693359375,-0.4000701904296875,0.10162353515625
1700516288064579800,4.247579833984375,-1.1661529541015625,-0.02899169921875,-0.0060272216796875
1700516288074590000,4.25758984375,-1.0380096435546875,-0.095001220703125,0.0442657470703125
1700516288084600000,4.26760009765625,-0.9662933349609375,-0.167999267578125,0.0269775390625
1700516288094611000,4.27761083984375,-0.914794921875,-0.100128173828125,0.0605316162109375
1700516288104621000,4.28762109375,-0.87420654296875,-0.1788787841796875,0.0006256103515625
1700516288114632000,4.2976318359375,-1.1741790771484375,-0.1399383544921875,0.0377960205078125
1700516288124641800,4.307641845703125,-1.01214599609375,0.0236663818359375,0.0294189453125
1700516288134652000,4.31765185546875,-0.8855438232421875,-0.117523193359375,0.020599365234375
1700516288144662800,4.327662841796875,-0.925048828125,-0.35052490234375,0.07421875
1700516288154673000,4.3376728515625,-1.1913909912109375,-0.00384521484375,0.0102691650390625
1700516288164683800,4.347683837890625,-1.0161590576171875,-0.0883941650390625,0.0399169921875
1700516288174694000,4.35769384765625,-0.969085693359375,-0.1637420654296875,0.037322998046875
1700516288184703700,4.367703857421875,-0.8905487060546875,-0.0872802734375,0.072265625
1700516288194715000,4.37771484375,-0.9285736083984375,-0.2117919921875,0.0097808837890625
1700516288204724700,4.387724853515625,-1.1597442626953125,-0.1270904541015625,0.0547637939453125
1700516288214736000,4.39773583984375,-0.953155517578125,0.041229248046875,0.01983642578125
1700516288224745700,4.407745849609375,-0.853790283203125,-0.203155517578125,0.037933349609375
1700516288234755800,4.417755859375,-0.965423583984375,-0.308685302734375,0.072906494140625
1700516288244767000,4.42776708984375,-1.1964874267578125,-0.0129547119140625,0.0056610107421875
1700516288254776800,4.43777685546875,-0.950958251953125,-0.116668701171875,0.0285797119140625
1700516288264788000,4.4477880859375,-0.96453857421875,-0.1662445068359375,0.04254150390625
1700516288274797800,4.4577978515625,-0.857574462890625,-0.133514404296875,0.053131103515625
1700516288284808000,4.467807861328125,-0.996856689453125,-0.1890106201171875,0.0047760009765625
1700516288294818800,4.47781884765625,-1.1339111328125,-0.129730224609375,0.048828125
1700516288304829000,4.487828857421875,-0.9397735595703125,0.0303497314453125,0.0107879638671875
1700516288314839800,4.49783984375,-0.8555450439453125,-0.2504730224609375,0.0532379150390625
1700516288324850000,4.507849853515625,-1.0115203857421875,-0.254364013671875,0.0468292236328125
1700516288334859800,4.51785986328125,-1.1885833740234375,-0.0223236083984375,0.0236053466796875
1700516288344871000,4.527870849609375,-0.93524169921875,-0.13299560546875,0.0217742919921875
1700516288354880800,4.537880859375,-0.9791412353515625,-0.1510009765625,0.0556640625
1700516288364891600,4.5478916015625,-0.8623809814453125,-0.1097259521484375,0.0352325439453125
1700516288374901800,4.55790185546875,-1.044219970703125,-0.2115478515625,0.013946533203125
1700516288384913000,4.567912841796875,-1.10650634765625,-0.09796142578125,0.0514068603515625
1700516288394923000,4.577923095703125,-0.9154510498046875,0.0381317138671875,-0.001678466796875
1700516288404932900,4.587932861328125,-0.859344482421875,-0.3003997802734375,0.0729522705078125
1700516288414944000,4.597944091796875,-1.057830810546875,-0.198272705078125,0.0214691162109375
1700516288424953900,4.607953857421875,-1.1693878173828125,-0.019378662109375,0.0330047607421875
1700516288434965000,4.617965087890625,-0.9234619140625,-0.1425628662109375,0.0138092041015625
1700516288444974800,4.627974853515625,-0.9856719970703125,-0.124267578125,0.069854736328125
1700516288454985000,4.63798486328125,-0.859039306640625,-0.115447998046875,0.0232086181640625
1700516288464995800,4.647995849609375,-1.0743560791015625,-0.1930999755859375,0.0231170654296875
1700516288475006000,4.658005859375,-1.0746002197265625,-0.0793914794921875,0.0495452880859375
1700516288485016800,4.668016845703125,-0.91363525390625,0.0278778076171875,-0.0027313232421875
1700516288495027000,4.67802685546875,-0.8725738525390625,-0.328094482421875,0.0869598388671875
1700516288505037800,4.688037841796875,-1.0594940185546875,-0.1596221923828125,0.0085601806640625
1700516288515047700,4.698047607421875,-1.1448974609375,-0.03533935546875,0.0328216552734375
1700516288525057800,4.708057861328125,-0.9392242431640625,-0.1480865478515625,0.018463134765625
1700516288535068700,4.718068603515625,-0.9630584716796875,-0.1327667236328125,0.063262939453125
1700516288545078800,4.728078857421875,-0.8430633544921875,-0.122039794921875,0.001617431640625
1700516288555090000,4.73808984375,-1.105682373046875,-0.20404052734375,0.02459716796875
1700516288565100000,4.74810009765625,-1.06768798828125,-0.079620361328125,0.04449462890625
1700516288575111000,4.75811083984375,-0.8909149169921875,0.0124053955078125,-0.0050506591796875
1700516288585121000,4.76812109375,-0.860015869140625,-0.3433380126953125,0.090118408203125
1700516288595131000,4.778130859375,-1.111114501953125,-0.1365203857421875,0.013031005859375
1700516288605141800,4.788141845703125,-1.132354736328125,-0.0457611083984375,0.029266357421875
1700516288615151900,4.79815185546875,-0.9091033935546875,-0.1636505126953125,0.0299835205078125
1700516288625162800,4.808162841796875,-0.972198486328125,-0.09869384765625,0.058319091796875
1700516288635172900,4.8181728515625,-0.8557891845703125,-0.1316680908203125,0.0115203857421875
1700516288645183700,4.828183837890625,-1.1220703125,-0.2111053466796875,0.03472900390625
1700516288655193900,4.83819384765625,-1.0538330078125,-0.036468505859375,0.042999267578125
1700516288665203700,4.84820361328125,-0.885650634765625,0.0049591064453125,0.0046539306640625
1700516288675214800,4.85821484375,-0.873016357421875,-0.3857574462890625,0.0941619873046875
1700516288685224700,4.868224609375,-1.13629150390625,-0.097991943359375,0.00030517578125
1700516288695235800,4.87823583984375,-1.0976104736328125,-0.05462646484375,0.0414276123046875
1700516288705246000,4.888245849609375,-0.918731689453125,-0.1729736328125,0.0289764404296875
1700516288715256800,4.8982568359375,-0.9835357666015625,-0.108856201171875,0.0698394775390625
1700516288725267000,4.908266845703125,-0.877410888671875,-0.164642333984375,0.01373291015625
1700516288735277800,4.91827783203125,-1.13043212890625,-0.175537109375,0.0198211669921875
1700516288745288000,4.928287841796875,-1.0140838623046875,-0.0482635498046875,0.046295166015625
1700516288755297800,4.9382978515625,-0.8940582275390625,-0.0242919921875,0.000244140625
1700516288765309000,4.948308837890625,-0.877410888671875,-0.378936767578125,0.0898590087890625
1700516288775318800,4.95831884765625,-1.1413116455078125,-0.0781097412109375,0.0092315673828125
1700516288785330000,4.968329833984375,-1.0654449462890625,-0.06951904296875,0.042266845703125
1700516288795339800,4.97833984375,-0.918701171875,-0.1771240234375,0.031951904296875
1700516288805350700,4.9883505859375,-0.967437744140625,-0.070587158203125,0.053863525390625
1700516288815360800,4.99836083984375,-0.883392333984375,-0.175140380859375,0.012298583984375
1700516288825371600,5.00837158203125,-1.145599365234375,-0.169281005859375,0.0347747802734375
1700516288835381800,5.0183818359375,-0.9893798828125,-0.0083465576171875,0.0239105224609375
1700516288845393000,5.028392822265625,-0.8875732421875,-0.048797607421875,0.00433349609375
1700516288855403000,5.038403076171875,-0.9059906005859375,-0.3779144287109375,0.074127197265625
1700516288865412900,5.048412841796875,-1.1609649658203125,-0.048736572265625,0.001708984375
1700516288875424000,5.058424072265625,-1.0293426513671875,-0.0755157470703125,0.0269927978515625
1700516288885433900,5.068433837890625,-0.9455108642578125,-0.2307586669921875,0.0467376708984375
1700516288895445000,5.078445068359375,-0.990509033203125,0.029449462890625,0.0296630859375
1700516288905454800,5.088454833984375,-0.8171539306640625,-0.2864990234375,0.0221405029296875
1700516288915465700,5.0984658203125,-1.185546875,-0.160186767578125,0.031768798828125
1700516288925475800,5.108475830078125,-1.0108795166015625,0.0785675048828125,0.0399017333984375
1700516288935486700,5.11848681640625,-0.8300018310546875,-0.153106689453125,0.0085601806640625
1700516288945496800,5.128496826171875,-0.9271087646484375,-0.4414215087890625,0.0947418212890625
1700516288955507700,5.1385078125,-1.2032928466796875,0.07275390625,-0.00286865234375
1700516288965517800,5.148517822265625,-1.003631591796875,-0.14373779296875,0.0396270751953125
1700516288975527700,5.158527587890625,-1.0390167236328125,-0.2198486328125,0.0311126708984375
1700516288985539000,5.1685390625,-0.7964019775390625,0.1374664306640625,0.045074462890625
1700516288995549000,5.178548828125,-0.8177490234375,-0.6619873046875,0.0264129638671875
1700516289005559800,5.188559814453125,-1.4155120849609375,0.236297607421875,0.0776824951171875
1700516289015570000,5.19856982421875,-0.8834991455078125,0.0647430419921875,0.0308837890625
1700516289025580300,5.208580322265625,-0.5981903076171875,-0.66778564453125,0.04217529296875
1700516289035590100,5.218590087890625,-1.2549285888671875,-0.1196441650390625,0.0528106689453125
1700516289045601000,5.22860107421875,-1.1850738525390625,0.0589599609375,0.030792236328125
1700516289055611100,5.238611083984375,-1.051666259765625,0.0753326416015625,-0.0114898681640625
1700516289065622000,5.2486220703125,-0.5323944091796875,-0.61273193359375,0.0704345703125
1700516289075632000,5.258632080078125,-1.06878662109375,-0.1700439453125,-0.0168914794921875
1700516289085643300,5.268643310546875,-1.3687896728515625,0.4755859375,0.0579833984375
1700516289095653400,5.2786533203125,-0.67095947265625,-0.6865997314453125,0.0145111083984375
1700516289105664300,5.288664306640625,-0.8846588134765625,-0.5655364990234375,0.0716400146484375
1700516289115674400,5.29867431640625,-1.307281494140625,0.2890472412109375,-0.001739501953125
1700516289125685200,5.308685302734375,-0.9526824951171875,0.0832672119140625,0.0363922119140625
1700516289135695000,5.318695068359375,-0.6846466064453125,-0.98468017578125,0.063751220703125
1700516289145705200,5.328705322265625,-1.1087799072265625,0.2086639404296875,-0.0204010009765625
1700516289155716000,5.338716064453125,-0.9941864013671875,0.2596435546875,0.084320068359375
1700516289165726200,5.348726318359375,-0.96087646484375,-0.7918243408203125,-0.03057861328125
1700516289175737000,5.358737060546875,-1.0718231201171875,-0.1906890869140625,0.0821990966796875
1700516289185747200,5.368747314453125,-0.9808349609375,0.3603515625,-0.0213165283203125
1700516289195758000,5.378758056640625,-0.85760498046875,-0.477447509765625,0.06268310546875
1700516289205768200,5.388768310546875,-1.16143798828125,-0.576141357421875,0.0540924072265625
1700516289215779300,5.398779296875,-1.0037841796875,0.5382080078125,0.0123291015625
1700516289225789200,5.4087890625,-0.7695465087890625,-0.5003662109375,0.0554351806640625
1700516289235800300,5.41880029296875,-1.140716552734375,-0.53472900390625,0.064117431640625
1700516289245810200,5.42881005859375,-1.107208251953125,0.1643218994140625,0.03253173828125
1700516289255821300,5.4388212890625,-0.8437042236328125,0.110382080078125,0.02716064453125
1700516289265831200,5.4488310546875,-0.8555145263671875,-0.9223785400390625,0.0708160400390625
1700516289275842300,5.45884228515625,-1.284759521484375,0.1916046142578125,0.011871337890625
1700516289285852200,5.46885205078125,-0.8863067626953125,0.1913299560546875,0.0725555419921875
1700516289295863000,5.478863037109375,-0.8155517578125,-0.836639404296875,0.0071563720703125
1700516289305873200,5.488873046875,-1.2322998046875,-0.162445068359375,0.0644683837890625
1700516289315884000,5.498884033203125,-1.0348968505859375,0.409027099609375,-0.030059814453125
1700516289325894100,5.50889404296875,-0.6671142578125,-0.53631591796875,0.069580078125
1700516289335905000,5.518905029296875,-1.15972900390625,-0.6607513427734375,0.043731689453125
1700516289345915100,5.5289150390625,-1.1505584716796875,0.5594482421875,-0.0031585693359375
1700516289355926300,5.53892626953125,-0.7459259033203125,-0.548858642578125,0.0666046142578125
1700516289365936400,5.548936279296875,-1.0304107666015625,-0.6413116455078125,0.000762939453125
1700516289375947300,5.558947265625,-1.1549072265625,-0.0053558349609375,0.0504608154296875
1700516289385957000,5.56895703125,-0.8785858154296875,0.3170013427734375,0.0059814453125
1700516289395968300,5.57896826171875,-0.5713958740234375,-1.1489715576171875,0.055511474609375
1700516289405978000,5.58897802734375,-1.3839569091796875,0.2212371826171875,-0.003814697265625
1700516289415989200,5.5989892578125,-0.910003662109375,0.1151580810546875,0.131805419921875
1700516289425999000,5.6089990234375,-0.7201995849609375,-0.8538970947265625,-0.0771942138671875
1700516289436010200,5.61901025390625,-1.2059173583984375,-0.21881103515625,0.174835205078125
1700516289446020000,5.62902001953125,-1.1987152099609375,0.516510009765625,-0.031036376953125
1700516289456031000,5.639031005859375,-0.4681396484375,-0.786468505859375,0.0729827880859375
1700516289466041000,5.649041015625,-1.344482421875,-0.313262939453125,0.00457763671875
1700516289476052200,5.65905224609375,-1.031768798828125,0.206085205078125,0.1353607177734375
1700516289486062300,5.669062255859375,-0.6230926513671875,-0.8792266845703125,-0.060882568359375
1700516289496073200,5.6790732421875,-1.41552734375,-0.509521484375,0.10211181640625
1700516289506083300,5.689083251953125,-1.13714599609375,0.18011474609375,0.067108154296875
1700516289516094200,5.69909423828125,-0.385894775390625,-0.9188385009765625,-0.063629150390625
1700516289526104300,5.709104248046875,-1.3541107177734375,-0.166046142578125,0.121307373046875
1700516289536115200,5.719115234375,-0.765777587890625,-0.61956787109375,-0.027557373046875
1700516289546125000,5.729125,-0.931610107421875,-0.432220458984375,-0.009735107421875
1700516289556136200,5.73913623046875,-1.05133056640625,0.07025146484375,0.1353759765625
1700516289566146000,5.74914599609375,-0.734039306640625,-1.05682373046875,-0.0780487060546875
1700516289576157200,5.7591572265625,-1.1519927978515625,-0.1618194580078125,-0.01885986328125
1700516289586167000,5.7691669921875,-1.04437255859375,-0.4949188232421875,0.2539825439453125
1700516289596178200,5.77917822265625,-1.080169677734375,-1.112518310546875,-0.24713134765625
1700516289606188300,5.789188232421875,-1.1092376708984375,0.131805419921875,0.16290283203125
1700516289616199200,5.79919921875,-0.38531494140625,-0.6208343505859375,0.110198974609375
1700516289626209300,5.809209228515625,-1.05194091796875,-0.5717926025390625,-0.2367401123046875
1700516289636220200,5.81922021484375,-0.9405059814453125,-0.0808258056640625,0.3621826171875
1700516289646230300,5.829230224609375,-0.9344024658203125,-0.95648193359375,-0.1831207275390625
1700516289656241200,5.8392412109375,-1.3932037353515625,-0.0225830078125,0.130706787109375
1700516289666251300,5.849251220703125,-0.45965576171875,-0.58819580078125,0.174774169921875
1700516289676262100,5.85926220703125,-1.2623291015625,-0.7841796875,-0.226715087890625
1700516289686272300,5.869272216796875,-0.92559814453125,-0.063018798828125,0.3615570068359375
1700516289696283100,5.879283203125,-0.72491455078125,-0.9351043701171875,-0.168792724609375
1700516289706293000,5.88929296875,-1.317718505859375,-0.1165618896484375,0.042022705078125
1700516289716304400,5.899304443359375,-0.585235595703125,-0.7437896728515625,0.21771240234375
1700516289726314200,5.909314208984375,-1.2122955322265625,-0.976837158203125,-0.2574462890625
1700516289736325400,5.919325439453125,-1.23175048828125,-0.3843994140625,0.266387939453125
1700516289746335200,5.929335205078125,-0.7004241943359375,-1.0895538330078125,-0.02947998046875
1700516289756346000,5.93934619140625,-0.9930572509765625,-0.16656494140625,-0.0198822021484375
1700516289766356200,5.949356201171875,-0.3596954345703125,-0.692138671875,0.1544036865234375
1700516289776367000,5.9593671875,-0.7254791259765625,-0.5832366943359375,-0.2127532958984375
1700516289786377200,5.969377197265625,-1.173187255859375,-0.4112091064453125,0.2783050537109375
1700516289796388000,5.97938818359375,-0.81298828125,-0.8144989013671875,-0.0575714111328125
1700516289806398200,5.989398193359375,-1.1019439697265625,0.0044097900390625,0.02001953125
1700516289816409000,5.9994091796875,-0.71356201171875,-0.9126434326171875,0.154998779296875
1700516289826419200,6.009419189453125,-1.06103515625,-0.3344573974609375,-0.1219482421875
1700516289836430000,6.01943017578125,-0.977447509765625,-0.909332275390625,0.1912078857421875
1700516289846441200,6.029441162109375,-1.160125732421875,-0.6392974853515625,-0.12274169921875
1700516289856451300,6.039451416015625,-1.086334228515625,-0.5891571044921875,0.25079345703125
1700516289866462200,6.049462158203125,-0.665557861328125,-0.8330841064453125,-0.1629486083984375
1700516289876472300,6.059472412109375,-1.1608123779296875,-0.63885498046875,0.1847076416015625
1700516289886483200,6.069483154296875,-0.3645477294921875,-0.5807037353515625,0.055572509765625
1700516289896493300,6.079493408203125,-1.02508544921875,-0.283203125,-0.001953125
1700516289906504200,6.089504150390625,-0.7032012939453125,-0.768951416015625,0.177337646484375
1700516289916514000,6.09951416015625,-1.029266357421875,-0.6634063720703125,-0.1807708740234375
1700516289926525200,6.109525146484375,-1.3390350341796875,-0.5931549072265625,0.2611846923828125
1700516289936535000,6.11953515625,-0.832672119140625,-0.8707122802734375,-0.0288848876953125
1700516289946546200,6.129546142578125,-0.9048919677734375,-0.2201995849609375,-0.070068359375
1700516289956556000,6.13955615234375,-0.526885986328125,-0.702117919921875,0.1549530029296875
1700516289966567200,6.149567138671875,-0.722076416015625,-0.4583587646484375,0.039886474609375
1700516289976577300,6.159577392578125,-0.8690185546875,-0.41644287109375,0.1424407958984375
1700516289986588200,6.169588134765625,-1.0777587890625,-0.5674591064453125,-0.1386871337890625
1700516289996599300,6.179599365234375,-1.3041229248046875,-0.758453369140625,0.1114654541015625
1700516290006609200,6.189609130859375,-0.9637603759765625,-0.581085205078125,-0.052764892578125
1700516290016620000,6.1996201171875,-1.1957855224609375,-0.79718017578125,0.1090087890625
1700516290026630400,6.20963037109375,-0.5458221435546875,-0.7621917724609375,0.0026397705078125
1700516290036641300,6.219641357421875,-0.6005859375,0.068145751953125,0.0164947509765625
1700516290046651400,6.2296513671875,-0.505462646484375,-0.6973724365234375,0.1103973388671875
1700516290056662300,6.239662353515625,-1.0608367919921875,-0.4423980712890625,-0.1168670654296875
1700516290066672400,6.24967236328125,-1.398406982421875,-0.605560302734375,0.30010986328125
1700516290076683300,6.259683349609375,-1.0556640625,-0.54583740234375,-0.1184539794921875
1700516290086693400,6.269693359375,-0.96881103515625,-0.470001220703125,0.0977630615234375
1700516290096704300,6.279704345703125,-0.514495849609375,-0.756744384765625,0.0876617431640625
1700516290106715100,6.289715087890625,-1.0543060302734375,-0.5453033447265625,0.03240966796875
1700516290116725200,6.299725341796875,-0.8557891845703125,-0.6988372802734375,0.0828399658203125
1700516290126736400,6.309736328125,-1.198089599609375,-0.2373199462890625,-0.011932373046875
1700516290136746500,6.31974658203125,-0.6025543212890625,-0.6824493408203125,0.2153472900390625
1700516290146757400,6.32975732421875,-1.0760040283203125,-0.50653076171875,0.0069580078125
1700516290156767500,6.339767578125,-1.0712432861328125,-0.661865234375,0.2105712890625
1700516290166778400,6.3497783203125,-1.04241943359375,-0.2439117431640625,-0.0612945556640625
1700516290176788200,6.359788330078125,-0.9500579833984375,-0.629241943359375,0.15545654296875
1700516290186799400,6.36979931640625,-1.0474090576171875,-0.491363525390625,-0.24237060546875
1700516290196809200,6.379809326171875,-1.298248291015625,-0.44140625,0.04473876953125
1700516290206820400,6.3898203125,-0.806182861328125,-0.5660400390625,-0.0635986328125
1700516290216831200,6.399831298828125,-0.960540771484375,-0.3479461669921875,-0.1109161376953125
1700516290226841000,6.409841064453125,-0.6712493896484375,-0.667694091796875,-0.0219268798828125
1700516290236852500,6.4198525390625,-1.33978271484375,-0.49725341796875,-0.047882080078125
1700516290246862300,6.4298623046875,-0.8003997802734375,-0.4990386962890625,0.1249237060546875
1700516290256873500,6.43987353515625,-0.8791046142578125,-0.24658203125,0.07177734375
1700516290266883300,6.44988330078125,-0.4425201416015625,-0.7790374755859375,0.0809478759765625
1700516290276894200,6.459894287109375,-0.9203643798828125,-0.3533935546875,-0.1450958251953125
1700516290286904300,6.469904296875,-1.0727081298828125,-0.562286376953125,0.2299346923828125
1700516290296915200,6.479915283203125,-0.6748199462890625,0.0457611083984375,-0.011138916015625
1700516290306926300,6.48992626953125,-1.0701446533203125,-0.6669158935546875,0.063507080078125
1700516290316936200,6.499936279296875,-1.18463134765625,-0.525970458984375,0.043609619140625
1700516290326947300,6.509947265625,-0.940521240234375,-0.4088134765625,0.01123046875
1700516290336957200,6.519957275390625,-0.979736328125,0.0540008544921875,0.0506591796875
1700516290346968300,6.52996826171875,-1.0759429931640625,-0.7599639892578125,-0.0395965576171875
1700516290356978400,6.539978515625,-1.149017333984375,-0.5137786865234375,-0.088043212890625
1700516290366989300,6.5499892578125,-1.2560272216796875,-0.4498443603515625,0.0948944091796875
1700516290377000400,6.56000048828125,-1.0946807861328125,-0.1549835205078125,-0.0536346435546875
1700516290387010300,6.57001025390625,-0.6973419189453125,-0.7604827880859375,0.1491241455078125
1700516290397021200,6.580021240234375,-0.83477783203125,-0.46820068359375,-0.1352996826171875
1700516290407031300,6.59003125,-0.9835052490234375,-0.3453216552734375,0.1728057861328125
1700516290417042200,6.600042236328125,-0.9403076171875,-0.0777587890625,0.03857421875
1700516290427052300,6.61005224609375,-0.6766357421875,-0.7882232666015625,0.0793304443359375
1700516290437063200,6.620063232421875,-1.03411865234375,-0.4226531982421875,-0.156402587890625
1700516290447074300,6.63007421875,-0.86529541015625,-0.3788299560546875,0.20501708984375
1700516290457084400,6.64008447265625,-0.8190155029296875,0.071014404296875,-0.1094970703125
1700516290467095300,6.65009521484375,-0.91180419921875,-0.651458740234375,0.0930023193359375
1700516290477105400,6.66010546875,-0.665252685546875,-0.5495758056640625,-0.1098785400390625
1700516290487116300,6.6701162109375,-1.2916412353515625,-0.56280517578125,0.123291015625
1700516290497126400,6.68012646484375,-0.3479766845703125,0.2222747802734375,-0.0340118408203125
1700516290507137300,6.69013720703125,-1.266448974609375,-0.7187042236328125,0.0859832763671875
1700516290517148200,6.700148193359375,-1.0392303466796875,-0.6074066162109375,0.0321044921875
1700516290527158300,6.710158203125,-0.55804443359375,-0.4571533203125,0.0113067626953125
1700516290537169200,6.720169189453125,-1.0449981689453125,-0.062591552734375,0.0816192626953125
1700516290547179300,6.73017919921875,-1.025787353515625,-0.5091400146484375,0.0779266357421875
1700516290557190400,6.7401904296875,-1.2249755859375,-0.668365478515625,-0.01849365234375
1700516290567200500,6.750200439453125,-0.8705902099609375,-0.2127685546875,0.1468048095703125
1700516290577211400,6.76021142578125,-0.6621856689453125,-0.1063232421875,-0.01849365234375
1700516290587222300,6.77022216796875,-0.922271728515625,-0.7786712646484375,-0.005615234375
1700516290597232400,6.780232421875,-1.393157958984375,-0.6669158935546875,0.098388671875
1700516290607243300,6.7902431640625,-0.8789825439453125,0.080657958984375,0.0920562744140625
1700516290617253400,6.80025341796875,-0.6567230224609375,-0.609161376953125,0.023529052734375
1700516290627264300,6.81026416015625,-1.0735931396484375,-0.60418701171875,-0.13031005859375
1700516290637275100,6.820275146484375,-1.103607177734375,-0.4219207763671875,0.1758575439453125
1700516290647285200,6.83028515625,-1.0209197998046875,-0.210906982421875,-0.026763916015625
1700516290657296400,6.84029638671875,-0.9300537109375,-0.6154022216796875,0.0161285400390625
1700516290667306500,6.850306396484375,-1.3784942626953125,-0.6298980712890625,0.00177001953125
1700516290677317400,6.8603173828125,-1.0155181884765625,-0.0818328857421875,0.06939697265625
1700516290687327500,6.870327392578125,-0.7886505126953125,-0.567413330078125,0.1747894287109375
1700516290697338400,6.88033837890625,-0.85089111328125,-0.516754150390625,-0.1932830810546875
1700516290707349200,6.890349365234375,-1.33721923828125,-0.39349365234375,0.146453857421875
1700516290717359400,6.900359375,-0.8985443115234375,0.09637451171875,0.09857177734375
1700516290727370200,6.910370361328125,-0.576568603515625,-0.870513916015625,-0.001068115234375
1700516290737380400,6.92038037109375,-1.1819610595703125,-0.39862060546875,-0.19091796875
1700516290747391200,6.93039111328125,-0.9206390380859375,-0.2127838134765625,0.1932220458984375
1700516290757402400,6.94040234375,-0.63958740234375,-0.381256103515625,-0.0182037353515625
1700516290767412500,6.95041259765625,-0.507110595703125,-0.642913818359375,-0.1216278076171875
1700516290777423400,6.96042333984375,-1.118377685546875,-0.598419189453125,-0.057952880859375
1700516290787433500,6.97043359375,-1.1373748779296875,0.0663909912109375,0.1328887939453125
1700516290797444400,6.9804443359375,-1.054656982421875,-0.58233642578125,0.124603271484375
1700516290807455200,6.990455322265625,-1.15863037109375,-0.6049957275390625,-0.051025390625
1700516290817465300,7.00046533203125,-1.0955963134765625,-0.33367919921875,0.1294403076171875
1700516290827476200,7.010476318359375,-0.9602203369140625,-0.1602783203125,0.0417327880859375
1700516290837486300,7.020486328125,-0.857177734375,-0.5824432373046875,-0.0975341796875
1700516290847497200,7.030497314453125,-1.2299346923828125,-0.5700836181640625,0.0406341552734375
1700516290857508400,7.04050830078125,-0.70001220703125,0.0463409423828125,-0.021148681640625
1700516290867518500,7.0505185546875,-0.709136962890625,-0.6825408935546875,0.0313873291015625
1700516290877529300,7.060529296875,-1.2789459228515625,-0.45477294921875,-0.155609130859375
1700516290887539500,7.07053955078125,-0.96038818359375,-0.260528564453125,0.1287078857421875
1700516290897550300,7.08055029296875,-0.744842529296875,-0.4010162353515625,0.020782470703125
1700516290907561200,7.090561279296875,-0.4775543212890625,-0.5160980224609375,0.0137939453125
1700516290917571300,7.1005712890625,-1.31512451171875,-0.6052703857421875,0.0389862060546875
1700516290927582200,7.110582275390625,-0.900634765625,-0.010650634765625,0.04034423828125
1700516290937593300,7.12059326171875,-0.6558837890625,-0.6318206787109375,0.1256256103515625
1700516290947603200,7.130603271484375,-0.82501220703125,-0.4705810546875,-0.023956298828125
1700516290957614300,7.1406142578125,-1.281036376953125,-0.249664306640625,0.05078125
1700516290967624400,7.15062451171875,-1.2605133056640625,-0.4301910400390625,0.0518646240234375
1700516290977635300,7.16063525390625,-1.0976715087890625,-0.3990478515625,-0.1319732666015625
1700516290987646500,7.170646484375,-1.139617919921875,-0.6605224609375,0.0046234130859375
1700516290997656300,7.18065625,-0.97796630859375,-0.0784912109375,-0.029449462890625
1700516291007667200,7.190667236328125,-0.6428375244140625,-0.5024261474609375,-0.021942138671875
1700516291017677300,7.20067724609375,-1.42852783203125,-0.7850189208984375,-0.1048583984375
1700516291027688200,7.210688232421875,-0.772857666015625,-0.0860748291015625,0.1077117919921875
1700516291037699300,7.22069921875,-0.5191802978515625,-0.60101318359375,0.2134857177734375
1700516291047709200,7.230709228515625,-0.7368621826171875,-0.4686279296875,-0.101715087890625
1700516291057720000,7.240719970703125,-1.249481201171875,-0.7491912841796875,0.1196746826171875
1700516291067731200,7.250731201171875,-2.1736297607421875,0.1578369140625,0.3376617431640625
1700516291077741000,7.260740966796875,-0.772918701171875,-0.25238037109375,-0.0170745849609375
1700516291087752400,7.27075244140625,-0.8098602294921875,-0.63427734375,-0.0315704345703125
1700516291097762300,7.28076220703125,-0.2113494873046875,-0.095794677734375,0.146087646484375
1700516291107773200,7.290773193359375,-0.6042022705078125,-0.5404815673828125,0.06231689453125
1700516291117784300,7.300784423828125,-0.933074951171875,-0.53680419921875,-0.1541595458984375
1700516291127794200,7.310794189453125,-1.8115997314453125,-0.3668212890625,0.069244384765625
1700516291137805300,7.320805419921875,-1.057373046875,-0.22735595703125,-0.0398712158203125
1700516291147815200,7.330815185546875,-0.773529052734375,-0.32440185546875,-0.041534423828125
1700516291157826300,7.340826416015625,-1.0229644775390625,-0.7376861572265625,0.030181884765625
1700516291167837200,7.350837158203125,-0.8575897216796875,-0.07647705078125,-0.012054443359375
1700516291177847000,7.360846923828125,-0.69268798828125,-0.4516754150390625,0.072265625
1700516291187858400,7.3708583984375,-0.9755401611328125,-0.6246490478515625,-0.1355133056640625
1700516291197869300,7.380869384765625,-0.879547119140625,-0.1932220458984375,0.1341400146484375
1700516291207879400,7.39087939453125,-0.6295318603515625,-0.3526611328125,0.214141845703125
1700516291217890300,7.400890380859375,-0.610931396484375,-0.4079437255859375,-0.050567626953125
1700516291227901200,7.410901123046875,-1.14495849609375,-0.651275634765625,0.1521759033203125
1700516291237911300,7.420911376953125,-0.927032470703125,0.140411376953125,0.18499755859375
1700516291247922200,7.430922119140625,-1.002960205078125,-0.521148681640625,0.133453369140625
1700516291257932300,7.440932373046875,-1.3864593505859375,-0.604034423828125,-0.0990447998046875
1700516291267943200,7.450943115234375,-1.425628662109375,-0.0995330810546875,0.0361785888671875
1700516291277954300,7.460954345703125,-0.8720703125,-0.604736328125,0.0714111328125
1700516291287964400,7.47096435546875,-0.92523193359375,-0.38873291015625,-0.1157989501953125
1700516291297975300,7.480975341796875,-1.0487518310546875,-0.6162872314453125,0.0732879638671875
1700516291307986200,7.490986083984375,-0.94866943359375,-0.20281982421875,0.0404205322265625
1700516291317996300,7.500996337890625,-0.9786224365234375,-0.386138916015625,0.079315185546875
1700516291328007200,7.511007080078125,-1.133544921875,-0.6700897216796875,0.0339202880859375
1700516291338017300,7.521017333984375,-0.722137451171875,-0.069915771484375,0.1415557861328125
1700516291348028200,7.531028076171875,-0.617645263671875,-0.5655517578125,0.2750396728515625
1700516291358039000,7.5410390625,-0.95513916015625,-0.4594268798828125,-0.1019287109375
1700516291368049200,7.551049072265625,-1.21710205078125,-0.3123016357421875,0.2808685302734375
1700516291378060300,7.561060302734375,-0.716705322265625,-0.084747314453125,0.1032562255859375
1700516291388071400,7.571071533203125,-0.5715789794921875,-0.4652252197265625,-0.0447235107421875
1700516291398081300,7.581081298828125,-0.9815521240234375,-0.4560546875,-0.0762481689453125
1700516291408092200,7.591092041015625,-0.6603546142578125,0.04376220703125,-0.0401458740234375
1700516291418103300,7.601103271484375,-0.6917266845703125,-0.6191558837890625,-0.0779571533203125
1700516291428113200,7.611113037109375,-0.6966400146484375,-0.366424560546875,-0.0567474365234375
1700516291438124300,7.621124267578125,-1.0281982421875,-0.391082763671875,0.0516510009765625
1700516291448135200,7.63113525390625,-0.7715911865234375,-0.1418609619140625,-0.0271148681640625
1700516291458145000,7.64114501953125,-1.1361083984375,-0.422210693359375,0.201080322265625
1700516291468156400,7.651156494140625,-1.2992706298828125,-0.543731689453125,0.139068603515625
1700516291478167300,7.661167236328125,-1.0083160400390625,0.1360015869140625,0.082366943359375
1700516291488177400,7.671177490234375,-0.9131927490234375,-0.561859130859375,0.147918701171875
1700516291498188300,7.681188232421875,-1.431640625,-0.6346588134765625,0.005279541015625
1700516291508198100,7.6911982421875,-1.2993621826171875,0.007080078125,0.0469970703125
1700516291518209300,7.701209228515625,-0.696075439453125,-0.6417236328125,0.0779571533203125
1700516291528220200,7.71122021484375,-0.97027587890625,-0.440582275390625,-0.221405029296875
1700516291538230300,7.721230224609375,-1.03216552734375,-0.3036041259765625,0.0352630615234375
1700516291548241200,7.7312412109375,-0.9245758056640625,-0.400665283203125,0.0230560302734375
1700516291558252300,7.741252197265625,-0.7673797607421875,-0.370361328125,0.065887451171875
1700516291568262400,7.751262451171875,-1.19976806640625,-0.5135650634765625,0.2269287109375
1700516291578273300,7.761273193359375,-1.1880950927734375,0.0116424560546875,0.1209869384765625
1700516291588284200,7.7712841796875,-1.11126708984375,-0.7129669189453125,0.3086700439453125
1700516291598294300,7.781294189453125,-1.2609100341796875,-0.444488525390625,0.0311126708984375
1700516291608305200,7.79130517578125,-0.7063446044921875,-0.12042236328125,0.119293212890625
1700516291618316300,7.80131640625,-0.5996551513671875,-0.5002593994140625,0.08160400390625
1700516291628326100,7.811326171875,-0.9114990234375,-0.40081787109375,-0.1058807373046875
1700516291638337000,7.8213369140625,-1.245880126953125,-0.5258636474609375,-0.0261993408203125
1700516291648348400,7.831348388671875,-0.5490264892578125,0.0634765625,-0.1610107421875
1700516291658358300,7.841358154296875,-0.5894775390625,-0.436370849609375,0.0438385009765625
1700516291668369400,7.851369384765625,-0.925811767578125,-0.527191162109375,-0.060577392578125
1700516291678380300,7.86138037109375,-1.2513580322265625,-0.3631744384765625,0.15496826171875
1700516291688390100,7.87139013671875,-0.8613739013671875,-0.0728759765625,0.0556640625
1700516291698401300,7.8814013671875,-0.9752960205078125,-0.2767181396484375,0.1743927001953125
1700516291708412200,7.891412109375,-1.138427734375,-0.562255859375,-0.0180511474609375
1700516291718422300,7.90142236328125,-0.9308624267578125,0.0499114990234375,-0.0277252197265625
1700516291728433200,7.91143310546875,-0.8626861572265625,-0.4310455322265625,0.1204681396484375
1700516291738444300,7.9214443359375,-1.20159912109375,-0.560089111328125,0.0518646240234375
1700516291748454400,7.931454345703125,-1.0406494140625,-0.1290435791015625,-0.061859130859375
1700516291758465300,7.94146533203125,-0.82965087890625,-0.5054779052734375,0.1054229736328125
1700516291768476200,7.95147607421875,-0.872802734375,-0.531402587890625,-0.026153564453125
1700516291778486300,7.961486328125,-1.0826416015625,-0.40673828125,0.167083740234375
1700516291788497200,7.9714970703125,-1.0314178466796875,-0.185546875,0.18695068359375
1700516291798508300,7.98150830078125,-0.90966796875,-0.356658935546875,0.0754547119140625
1700516291808518100,7.99151806640625,-1.355865478515625,-0.6006317138671875,0.1374664306640625
1700516291818529000,8.001529052734375,-0.876617431640625,0.166107177734375,0.0421295166015625
1700516291828540400,8.01154052734375,-0.735931396484375,-0.5852203369140625,0.10003662109375
1700516291838550300,8.02155029296875,-1.318023681640625,-0.5848541259765625,-0.077850341796875
1700516291848561400,8.0315615234375,-1.1562652587890625,-0.2294769287109375,0.0812530517578125
1700516291858572300,8.041572265625,-0.6415557861328125,-0.249114990234375,0.0426025390625
1700516291868582100,8.05158203125,-0.480194091796875,-0.466400146484375,-0.172943115234375
1700516291878593300,8.06159326171875,-1.257904052734375,-0.570037841796875,0.083038330078125
1700516291888604200,8.071604248046874,-1.0591278076171875,0.17047119140625,0.1083831787109375
1700516291898614300,8.0816142578125,-1.0478363037109375,-0.5705413818359375,0.029876708984375
1700516291908625200,8.091625244140625,-1.2899932861328125,-0.535614013671875,-0.0571136474609375
1700516291918636300,8.10163623046875,-1.230377197265625,0.020355224609375,0.1080169677734375
1700516291928646400,8.111646484375,-0.77569580078125,-0.39617919921875,0.0377655029296875
1700516291938657300,8.1216572265625,-0.874420166015625,-0.565948486328125,-0.0718231201171875
1700516291948668200,8.131668212890625,-1.1644287109375,-0.2790069580078125,-0.006072998046875
1700516291958679300,8.14167919921875,-0.781219482421875,-0.02838134765625,-0.028228759765625
1700516291968689200,8.151689208984376,-0.7006072998046875,-0.5616302490234375,0.0160675048828125
1700516291978700300,8.1617001953125,-1.0290374755859375,-0.464019775390625,-0.0722503662109375
1700516291988711200,8.171711181640624,-0.6587982177734375,-0.0025787353515625,-0.0074005126953125
1700516291998721000,8.181720947265624,-0.6324920654296875,-0.5445098876953125,0.1307830810546875
1700516292008732400,8.191732421875,-0.7465667724609375,-0.2730255126953125,-0.0748443603515625
1700516292018743300,8.201743408203125,-1.0509490966796875,-0.5101165771484375,0.0806427001953125
1700516292028753200,8.211753173828125,-1.009857177734375,0.103179931640625,0.0386810302734375
1700516292038764000,8.221763916015625,-1.1266021728515625,-0.4098663330078125,0.2240142822265625
1700516292048775000,8.23177490234375,-1.2066802978515625,-0.5724945068359375,0.145660400390625
1700516292058785000,8.241784912109376,-1.1592864990234375,-0.057708740234375,-0.0890960693359375
1700516292068796000,8.2517958984375,-0.814300537109375,-0.41619873046875,0.09539794921875
1700516292078806800,8.261806884765624,-1.0322418212890625,-0.59222412109375,-0.16351318359375
1700516292088817000,8.27181689453125,-1.14984130859375,-0.2570343017578125,0.028472900390625
1700516292098827800,8.281827880859375,-0.8290252685546875,-0.08489990234375,0.0657806396484375
1700516292108839000,8.2918388671875,-0.7893524169921875,-0.597808837890625,-0.105316162109375
1700516292118849000,8.30184912109375,-1.3186187744140625,-0.3713226318359375,0.020782470703125
1700516292128860000,8.31185986328125,-0.675323486328125,0.15203857421875,-0.01287841796875
1700516292138871000,8.32187109375,-0.7036590576171875,-0.652862548828125,0.034423828125
1700516292148882000,8.3318818359375,-1.186737060546875,-0.493194580078125,-0.050506591796875
1700516292158892000,8.34189208984375,-0.9556121826171875,-0.0873870849609375,0.160369873046875
1700516292168903000,8.35190283203125,-0.6937408447265625,-0.3484649658203125,0.1472320556640625
1700516292178913800,8.361913818359374,-0.857208251953125,-0.2733917236328125,-0.01507568359375
1700516292188924000,8.371923828125,-1.138824462890625,-0.546417236328125,0.158905029296875
1700516292198935000,8.38193505859375,-0.8095703125,0.0499725341796875,-0.0220794677734375
1700516292208946000,8.39194580078125,-0.6968841552734375,-0.3777008056640625,0.0839691162109375
1700516292218956000,8.4019560546875,-0.786956787109375,-0.4561920166015625,-0.0877685546875
1700516292228967000,8.411966796875,-1.0657958984375,-0.35809326171875,0.0723876953125
1700516292238977800,8.421977783203126,-0.95391845703125,-0.02606201171875,0.0222625732421875
1700516292248989000,8.431989013671876,-0.8326568603515625,-0.3955078125,0.0513916015625
1700516292258998800,8.441998779296876,-0.9757080078125,-0.543975830078125,0.07696533203125
1700516292269010000,8.452010009765624,-0.4413299560546875,0.3496246337890625,0.0374603271484375
1700516292279021000,8.46202099609375,-0.691436767578125,-0.569854736328125,0.3244476318359375
1700516292289031000,8.472031005859375,-1.8477783203125,-0.6174468994140625,0.1052093505859375
1700516292299042000,8.4820419921875,-2.0961151123046875,-0.0680999755859375,0.1558074951171875
1700516292309053000,8.492052978515625,-0.982421875,-0.423492431640625,0.103546142578125
1700516292319063000,8.50206298828125,-0.7954864501953125,-0.3778076171875,-0.2033538818359375
1700516292329074000,8.512073974609375,-0.782012939453125,-0.4918670654296875,0.0323028564453125
1700516292339084800,8.522084716796876,-0.9277801513671875,-0.199951171875,-0.201568603515625
1700516292349096000,8.532095947265624,-1.0465087890625,-0.2801361083984375,0.14263916015625
1700516292359105800,8.542105712890624,-1.3238983154296875,-0.5294036865234375,0.06951904296875
1700516292369117000,8.552116943359374,-0.808441162109375,0.0331878662109375,0.0847015380859375
1700516292379128000,8.562128173828125,-0.5525970458984375,-0.4111480712890625,0.23822021484375
1700516292389138000,8.572137939453125,-0.6660308837890625,-0.3946380615234375,-0.025726318359375
1700516292399149000,8.582149169921875,-1.2667388916015625,-0.5013275146484375,0.1674652099609375
1700516292409160000,8.592159912109375,-1.0428619384765625,0.2506103515625,0.098358154296875
1700516292419169800,8.602169677734375,-0.7895050048828125,-0.5812530517578125,0.131072998046875
1700516292429181000,8.612180908203126,-1.29864501953125,-0.4316253662109375,-0.032470703125
1700516292439192000,8.622192138671876,-1.0059051513671875,0.1361541748046875,0.1363525390625
1700516292449203000,8.632202880859374,-0.791595458984375,-0.6863250732421875,0.00079345703125
1700516292459213000,8.642213134765624,-1.129547119140625,-0.288482666015625,-0.1619720458984375
1700516292469224000,8.652223876953125,-0.941162109375,-0.37274169921875,0.1268463134765625
1700516292479234800,8.66223486328125,-0.8754730224609375,-0.139923095703125,-0.057098388671875
1700516292489245000,8.672244873046875,-0.8925323486328125,-0.3062591552734375,0.12054443359375
1700516292499255800,8.682255859375,-1.44976806640625,-0.682891845703125,0.0575408935546875
1700516292509267000,8.692266845703125,-1.086822509765625,0.134307861328125,0.0355377197265625
1700516292519276800,8.70227685546875,-0.735595703125,-0.48516845703125,0.3240203857421875
1700516292529288000,8.712287841796876,-1.3276519775390625,-0.6478118896484375,-0.0463714599609375
1700516292539299000,8.722299072265624,-1.3993988037109375,-0.1193084716796875,0.10296630859375
1700516292549310000,8.73231005859375,-0.9537811279296875,-0.2360992431640625,0.029632568359375
1700516292559320000,8.742320068359374,-0.8671722412109375,-0.5152435302734375,-0.1589202880859375
1700516292569331000,8.7523310546875,-1.1383514404296875,-0.3115386962890625,0.068939208984375
1700516292579341800,8.762341796875,-0.79241943359375,-0.0088958740234375,-0.140380859375
1700516292589352000,8.77235205078125,-0.7662811279296875,-0.4992828369140625,0.0582733154296875
1700516292599362800,8.78236279296875,-1.107635498046875,-0.4130401611328125,0.05096435546875
1700516292609374000,8.7923740234375,-0.9131317138671875,-0.17388916015625,0.025848388671875
1700516292619385000,8.802385009765626,-0.6680755615234375,-0.2125091552734375,0.1547088623046875
1700516292629395000,8.81239501953125,-0.5877227783203125,-0.3138580322265625,0
1700516292639406000,8.822406005859374,-1.1111297607421875,-0.55426025390625,0.071807861328125
1700516292649417000,8.8324169921875,-0.7535247802734375,0.28240966796875,-0.00921630859375
1700516292659426800,8.8424267578125,-0.563323974609375,-0.62835693359375,0.0684967041015625
1700516292669438000,8.85243798828125,-1.0302276611328125,-0.3734130859375,-0.0715789794921875
1700516292679448800,8.86244873046875,-1.021728515625,-0.0424041748046875,0.175933837890625
1700516292689460000,8.8724599609375,-1.029266357421875,-0.342742919921875,0.05828857421875
1700516292699470000,8.882469970703125,-1.26629638671875,-0.2540283203125,0.0174560546875
1700516292709481000,8.89248095703125,-1.1923980712890625,-0.582122802734375,0.0475921630859375
1700516292719491800,8.902491943359376,-0.982452392578125,0.1561737060546875,-0.066619873046875
1700516292729502000,8.912501953125,-0.6307220458984375,-0.4923248291015625,0.1084136962890625
1700516292739512800,8.922512939453124,-1.25115966796875,-0.670654296875,-0.093292236328125
1700516292749524000,8.93252392578125,-1.243377685546875,0.0200042724609375,0.02850341796875
1700516292759534800,8.942534912109375,-0.92919921875,-0.3441314697265625,0.0459136962890625
1700516292769545000,8.952544921875,-0.98480224609375,-0.4800262451171875,-0.1151275634765625
1700516292779556000,8.96255615234375,-1.2285308837890625,-0.339752197265625,0.162872314453125
1700516292789567000,8.97256689453125,-0.737091064453125,0.01702880859375,0.0057830810546875
1700516292799577000,8.9825771484375,-0.53131103515625,-0.413726806640625,0.113525390625
1700516292809588000,8.992587890625,-0.884979248046875,-0.5437164306640625,0.073150634765625
1700516292819598800,9.002598876953124,-0.7426300048828125,-0.0351409912109375,-0.1414794921875
1700516292829610000,9.01260986328125,-0.6542816162109375,-0.1704864501953125,0.1019439697265625
1700516292839619800,9.022619873046875,-0.7441558837890625,-0.4501190185546875,0.0706024169921875
1700516292849630700,9.032630615234375,-1.1208343505859375,-0.4120330810546875,0.0368194580078125
1700516292859642000,9.04264208984375,-0.6535186767578125,0.3079833984375,-0.1528167724609375
1700516292869653000,9.052653076171875,-1.0523681640625,-0.4893341064453125,0.104522705078125
1700516292879663000,9.0626630859375,-0.7767791748046875,-0.3767547607421875,0.0237274169921875
1700516292889674000,9.072674072265626,-0.977081298828125,-0.1691436767578125,0.00347900390625
1700516292899684900,9.082684814453126,-0.637451171875,-0.0525665283203125,-0.106842041015625
1700516292909695000,9.092695068359374,-0.825927734375,-0.3878021240234375,0.1405181884765625
1700516292919705900,9.102705810546874,-0.991607666015625,-0.633758544921875,0.0377960205078125
1700516292929716700,9.112716796875,-0.769805908203125,0.2987518310546875,-0.0566558837890625
1700516292939728100,9.12272802734375,-0.9342193603515625,-0.3611907958984375,-0.01837158203125
1700516292949738000,9.132738037109375,-1.518829345703125,-0.6688232421875,0.03057861328125
1700516292959748900,9.142748779296875,-1.3388824462890625,0.0581207275390625,0.0261383056640625
1700516292969760000,9.152760009765625,-1.0075836181640625,-0.2305145263671875,-0.02459716796875
1700516292979769900,9.162769775390625,-1.18310546875,-0.464324951171875,0.0238189697265625
1700516292989781000,9.172781005859376,-1.0874481201171875,-0.5240631103515625,0.0518341064453125
1700516292999791900,9.1827919921875,-0.9413299560546875,0.125885009765625,0.015655517578125
1700516293009803000,9.192802978515624,-0.8376312255859375,-0.5130462646484375,0.23126220703125
1700516293019812900,9.202812744140624,-1.257965087890625,-0.4053955078125,0.0011749267578125
1700516293029824300,9.21282421875,-0.8263397216796875,0.071563720703125,0.041961669921875
1700516293039835400,9.22283544921875,-0.6474761962890625,-0.5200042724609375,0.1448211669921875
1700516293049845500,9.232845458984375,-0.880401611328125,-0.2904052734375,-0.11151123046875
1700516293059856400,9.2428564453125,-1.0732269287109375,-0.483001708984375,0.086700439453125
1700516293069867300,9.2528671875,-0.50616455078125,0.0409393310546875,-0.0455322265625
1700516293079878400,9.26287841796875,-0.995452880859375,-0.3720245361328125,0.1220550537109375
1700516293089888300,9.27288818359375,-1.433197021484375,-0.5588226318359375,0.036163330078125
1700516293099899400,9.2828994140625,-1.0033111572265625,0.0836639404296875,-0.0493316650390625
1700516293109910300,9.29291015625,-0.683135986328125,-0.0369873046875,-0.0412139892578125
1700516293119921400,9.30292138671875,-1.4743194580078125,-0.5142974853515625,0.0923004150390625
1700516293129931500,9.312931640625,-1.2112884521484375,-0.4050750732421875,0.037689208984375
1700516293139942400,9.3229423828125,-0.6442718505859375,0.1425018310546875,-0.0755615234375
1700516293149953300,9.332953369140625,-1.0709991455078125,-0.309906005859375,0.1063232421875
1700516293159963400,9.34296337890625,-0.9422607421875,-0.6306610107421875,0.0621185302734375
1700516293169974300,9.352974365234376,-0.87408447265625,0.1308135986328125,-0.024078369140625
1700516293179985400,9.3629853515625,-0.72760009765625,-0.2473602294921875,0.1470184326171875
1700516293189996300,9.372996337890624,-1.076141357421875,-0.5608978271484375,0.11077880859375
1700516293200006100,9.383006103515624,-1.21148681640625,-0.022003173828125,0.1735992431640625
1700516293210017500,9.393017578125,-0.9828033447265625,-0.2251739501953125,0.0007781982421875
1700516293220028400,9.4030283203125,-1.17791748046875,-0.283935546875,0.0690765380859375
1700516293230038500,9.41303857421875,-1.4183197021484375,-0.5374298095703125,0.124847412109375
1700516293240049400,9.42304931640625,-1.1116943359375,0.181304931640625,-0.1273193359375
1700516293250060300,9.433060302734376,-0.8911590576171875,-0.4877777099609375,0.1303253173828125
1700516293260071200,9.4430712890625,-1.2572021484375,-0.5334930419921875,-0.0998687744140625
1700516293270081300,9.453081298828126,-1.1779327392578125,-0.012847900390625,0.1053466796875
1700516293280092200,9.463092041015624,-0.80517578125,-0.3130950927734375,0.153411865234375
1700516293290103600,9.473103515625,-0.8123321533203125,-0.4041595458984375,0.0366363525390625
1700516293300114400,9.483114501953125,-0.964874267578125,-0.466400146484375,0.0779876708984375
1700516293310124300,9.493124267578125,-0.624664306640625,0.0455322265625,0.040557861328125
1700516293320135400,9.503135498046875,-0.4383544921875,-0.357330322265625,0.0225982666015625
1700516293330146300,9.513146240234375,-0.88665771484375,-0.611785888671875,0.037872314453125
1700516293340156400,9.523156494140625,-0.9601287841796875,-0.2546539306640625,0.03668212890625
1700516293350167300,9.533167236328126,-0.6784820556640625,0.253387451171875,0.0574493408203125
1700516293360178400,9.543178466796874,-1.1119384765625,-0.2742156982421875,0.1340789794921875
1700516293370189300,9.553189208984374,-1.2035369873046875,-0.4223785400390625,0.06732177734375
1700516293380199400,9.563199462890625,-1.0130157470703125,0.3179168701171875,0.0360107421875
1700516293390210300,9.573210205078125,-0.715484619140625,-0.15728759765625,-0.000762939453125
1700516293400221400,9.583221435546875,-1.369110107421875,-0.6649017333984375,-0.0145721435546875
1700516293410231300,9.593231201171875,-1.29559326171875,-0.06719970703125,-0.08404541015625
1700516293420242400,9.603242431640625,-0.4041290283203125,0.1033477783203125,0.046539306640625
1700516293430253300,9.61325341796875,-1.0753326416015625,-0.5010528564453125,0.025848388671875
1700516293440264400,9.623264404296876,-1.5009002685546875,-0.6002197265625,0.054443359375
1700516293450274600,9.633274658203124,-1.10211181640625,0.1307830810546875,0.067596435546875
1700516293460285400,9.643285400390624,-0.8691253662109375,-0.3345184326171875,0.159881591796875
1700516293470296300,9.65329638671875,-1.0313873291015625,-0.6517486572265625,0.0350494384765625
1700516293480307500,9.663307373046875,-1.066131591796875,0.0062255859375,0.052764892578125
1700516293490317300,9.6733173828125,-0.949432373046875,-0.375396728515625,0.13543701171875
1700516293500328200,9.683328125,-1.03326416015625,-0.420135498046875,-0.029022216796875
1700516293510339300,9.69333935546875,-1.0889739990234375,-0.3646697998046875,0.1487579345703125
1700516293520349200,9.70334912109375,-0.6649627685546875,0.1590423583984375,-0.082244873046875
1700516293530360600,9.713360595703126,-0.82080078125,-0.3885498046875,0.098541259765625
1700516293540371500,9.723371337890624,-1.141082763671875,-0.537353515625,0.0233612060546875
1700516293550382300,9.73338232421875,-0.815887451171875,0.1943359375,0.06585693359375
1700516293560392400,9.743392333984374,-0.6657257080078125,0.0201568603515625,0.0037078857421875
1700516293570403300,9.7534033203125,-1.285980224609375,-0.47235107421875,0.0360260009765625
1700516293580414200,9.763414306640625,-1.1438751220703125,-0.397003173828125,0.0908050537109375
1700516293590425300,9.77342529296875,-0.8572845458984375,0.4213104248046875,-0.0248565673828125
1700516293600435200,9.783435302734375,-0.871612548828125,-0.4994964599609375,0.106048583984375
1700516293610446300,9.7934462890625,-1.43145751953125,-0.7495269775390625,0.128570556640625
1700516293620457500,9.80345751953125,-1.250213623046875,0.278961181640625,0.1100311279296875
1700516293630467300,9.81346728515625,-0.8397369384765625,-0.2340850830078125,0.0557403564453125
1700516293640478500,9.823478515625,-1.30712890625,-0.652191162109375,0.0789947509765625
1700516293650489300,9.8334892578125,-1.084381103515625,-0.24200439453125,0.121246337890625
1700516293660500200,9.843500244140625,-0.974090576171875,0.0567474365234375,0.0431365966796875
1700516293670510300,9.85351025390625,-1.029510498046875,-0.6351318359375,0.11688232421875
1700516293680521200,9.863521240234375,-1.1757049560546875,-0.2854766845703125,-0.0136871337890625
1700516293690532400,9.873532470703125,-0.7861328125,0.3457183837890625,0.17120361328125
1700516293700542500,9.88354248046875,-0.8570404052734375,-0.4915924072265625,0.1228485107421875
1700516293710553300,9.89355322265625,-0.8999786376953125,-0.4976043701171875,-0.1263275146484375
1700516293720564500,9.903564453125,-1.08343505859375,-0.2775726318359375,0.2682342529296875
1700516293730575400,9.913575439453124,-0.610504150390625,0.3432159423828125,-0.03070068359375
1700516293740585200,9.923585205078124,-1.0995941162109375,-0.429229736328125,0.1614227294921875
1700516293750596400,9.933596435546875,-1.3819427490234375,-0.5303955078125,0.1377716064453125
1700516293760607200,9.943607177734375,-0.8881683349609375,0.4538116455078125,0.1721343994140625
1700516293770618400,9.953618408203125,-0.72113037109375,-0.3267669677734375,0.034393310546875
1700516293780628500,9.96362841796875,-1.306976318359375,-0.750030517578125,0.038909912109375
1700516293790639400,9.973639404296875,-1.119873046875,-0.0820159912109375,0.16607666015625
1700516293800650200,9.983650146484376,-0.6465301513671875,0.132293701171875,-0.1039276123046875
1700516293810660400,9.993660400390626,-1.0721893310546875,-0.69952392578125,0.0994415283203125
1700516293820671200,10.003671142578124,-1.0343475341796875,-0.4306182861328125,0.035064697265625
1700516293830682400,10.013682373046874,-0.67596435546875,0.3322601318359375,0.0800933837890625
1700516293840693500,10.023693603515625,-0.884490966796875,-0.372161865234375,0.025421142578125
1700516293850703400,10.033703369140625,-1.1497802734375,-0.6075592041015625,0.015594482421875
1700516293860714500,10.043714599609375,-0.8262939453125,0.141693115234375,0.2020263671875
1700516293870725400,10.053725341796875,-0.5605926513671875,0.1921234130859375,-0.0147552490234375
1700516293880735500,10.063735595703125,-1.1718292236328125,-0.593048095703125,0.167877197265625
1700516293890746400,10.073746337890626,-0.9904327392578125,-0.3726043701171875,0.057403564453125
1700516293900757200,10.08375732421875,-0.697784423828125,0.4510498046875,0.006072998046875
1700516293910768400,10.093768310546874,-1.0086212158203125,-0.2887420654296875,0.0674285888671875
1700516293920778200,10.1037783203125,-1.466217041015625,-0.842041015625,-0.034637451171875
1700516293930789400,10.113789306640625,-0.8857574462890625,0.35968017578125,0.1686553955078125
1700516293940800500,10.123800537109375,-0.7063446044921875,-0.0263671875,0.1016845703125
1700516293950811400,10.133811279296875,-1.5860443115234375,-0.6599884033203125,0.0908050537109375
1700516293960821500,10.143821533203125,-1.355224609375,-0.4395751953125,0.1446075439453125
1700516293970832400,10.153832275390625,-0.98394775390625,0.2294769287109375,0.0235137939453125
1700516293980843300,10.16384326171875,-1.0214996337890625,-0.4483184814453125,0.15264892578125
1700516293990853400,10.173853271484376,-0.830535888671875,-0.62054443359375,-0.064239501953125
1700516294000864300,10.1838642578125,-0.85064697265625,0.2071533203125,0.0771942138671875
1700516294010875400,10.19387548828125,-0.8849945068359375,-0.3178253173828125,-0.0078887939453125
1700516294020886500,10.203886474609375,-1.46014404296875,-0.4780426025390625,-0.07550048828125
1700516294030899700,10.213899658203125,-0.8685760498046875,-0.3155059814453125,0.129791259765625
1700516294040910800,10.223910888671876,-0.3821563720703125,0.5731964111328125,0.0403900146484375
1700516294050922000,10.233921875,-0.8787078857421875,-0.335479736328125,0.078582763671875
1700516294060931800,10.243931884765624,-1.00811767578125,-0.71905517578125,-0.005462646484375
1700516294070943000,10.25394287109375,-0.942413330078125,0.3126220703125,0.19097900390625
1700516294080953900,10.263953857421875,-0.6900177001953125,-0.0371246337890625,0.1173553466796875
1700516294090964700,10.27396484375,-1.127044677734375,-0.5492401123046875,0.07110595703125
1700516294100974800,10.283974853515625,-1.2854766845703125,-0.1977691650390625,0.1699066162109375
1700516294110985700,10.29398583984375,-0.83404541015625,0.2593994140625,-0.0179901123046875
1700516294120996900,10.303996826171876,-1.1523590087890625,-0.43743896484375,-0.0443267822265625
1700516294131008000,10.314008056640626,-1.4354248046875,-0.7280731201171875,-0.09698486328125
1700516294141017900,10.324017822265626,-1.0118865966796875,0.3466644287109375,0.0891876220703125
1700516294151029000,10.334029052734374,-0.6602020263671875,-0.27850341796875,-0.0433807373046875
1700516294161040000,10.344039794921875,-1.27032470703125,-0.7078399658203125,0.026336669921875
1700516294171049700,10.3540498046875,-1.2812347412109375,0.034088134765625,0.23004150390625
1700516294181060900,10.364060791015625,-0.6320953369140625,-0.026123046875,0.02764892578125
1700516294191071700,10.37407177734375,-0.8387298583984375,-0.3731689453125,0.1761322021484375
1700516294201083000,10.384082763671875,-0.9526824951171875,-0.4587860107421875,-0.0050811767578125
1700516294211093000,10.394093017578125,-0.8057861328125,0.288665771484375,0.0651092529296875
1700516294221103900,10.404103759765626,-0.542694091796875,-0.2337799072265625,0.092529296875
1700516294231114800,10.41411474609375,-1.0030670166015625,-0.5690765380859375,-0.036041259765625
1700516294241124900,10.424124755859374,-1.3213348388671875,0.040313720703125,0.0234375
1700516294251135700,10.4341357421875,-0.6898651123046875,0.18048095703125,-0.030975341796875
1700516294261147000,10.44414697265625,-0.9877166748046875,-0.42864990234375,-0.0447540283203125
1700516294271157800,10.45415771484375,-1.0876007080078125,-0.654266357421875,0.026641845703125
1700516294281168000,10.46416796875,-0.7122344970703125,0.4300994873046875,0.058074951171875
1700516294291179000,10.474178955078125,-0.8415679931640625,-0.161712646484375,0.028717041015625
1700516294301190000,10.48418994140625,-1.3828582763671875,-0.7851715087890625,-0.0432586669921875
1700516294311200000,10.494199951171876,-0.871429443359375,0.0834197998046875,0.137298583984375
1700516294321211000,10.5042109375,-0.38592529296875,0.2143402099609375,0.1006622314453125
1700516294331221800,10.5142216796875,-1.2532196044921875,-0.571533203125,0.02001953125
1700516294341233000,10.52423291015625,-1.22735595703125,-0.4298858642578125,0.02386474609375
1700516294351242800,10.53424267578125,-0.7243804931640625,0.3465576171875,0.117767333984375
1700516294361253600,10.544253662109375,-0.866973876953125,-0.3020172119140625,0.030181884765625
1700516294371265000,10.55426513671875,-1.0499420166015625,-0.5999603271484375,-0.03643798828125
1700516294381275000,10.56427490234375,-0.9831085205078125,0.2972869873046875,0.0828399658203125
1700516294391286000,10.5742861328125,-0.7295989990234375,-0.1796112060546875,0.013946533203125
1700516294401297000,10.584296875,-1.2642669677734375,-0.529510498046875,-0.131805419921875
1700516294411307800,10.594307861328126,-1.281768798828125,-0.1318511962890625,0.09283447265625
1700516294421318000,10.60431787109375,-0.8556060791015625,0.1692047119140625,0.0058746337890625
1700516294431328800,10.614328857421874,-0.85565185546875,-0.4623870849609375,0.0028076171875
1700516294441340000,10.62433984375,-1.1439666748046875,-0.53009033203125,-0.038177490234375
1700516294451350000,10.63435009765625,-1.0388031005859375,0.301300048828125,0.11407470703125
1700516294461361000,10.64436083984375,-0.85076904296875,-0.39031982421875,0.0818634033203125
1700516294471371800,10.654371826171875,-1.1826629638671875,-0.490447998046875,-0.0605621337890625
1700516294481383000,10.6643828125,-0.9728851318359375,-0.0013275146484375,0.178070068359375
1700516294491392800,10.674392822265625,-0.7048797607421875,0.1487274169921875,-0.01812744140625
1700516294501404000,10.68440380859375,-1.02032470703125,-0.5060882568359375,-0.0218048095703125
1700516294511414800,10.694414794921874,-1.0746612548828125,-0.3722991943359375,-0.01800537109375
1700516294521425000,10.7044248046875,-0.7548980712890625,0.41119384765625,0.0853424072265625
1700516294531436000,10.71443603515625,-0.70941162109375,-0.1594696044921875,-0.0572662353515625
1700516294541447000,10.724447021484375,-1.298553466796875,-0.7182769775390625,-0.157684326171875
1700516294551457800,10.734457763671875,-1.143157958984375,0.0995025634765625,0.1298828125
1700516294561468000,10.744468017578125,-0.5700531005859375,0.2617340087890625,0.004791259765625
1700516294571478800,10.754478759765625,-1.1833343505859375,-0.5201416015625,-0.084136962890625
1700516294581490000,10.764489990234376,-1.223388671875,-0.572021484375,0.0820465087890625
1700516294591499800,10.774499755859376,-0.73199462890625,0.527801513671875,0.09979248046875
1700516294601510700,10.7845107421875,-1.05047607421875,-0.362335205078125,0.067413330078125
1700516294611522000,10.79452197265625,-1.4026031494140625,-0.7261505126953125,-0.012481689453125
1700516294621533000,10.804532958984375,-1.1953582763671875,0.3019866943359375,0.1793975830078125
1700516294631543000,10.81454296875,-0.788177490234375,-0.215728759765625,0.0212860107421875
1700516294641554000,10.824553955078125,-1.3973846435546875,-0.6009979248046875,-0.0932159423828125
1700516294651564800,10.834564697265625,-1.1150665283203125,-0.038055419921875,0.2203826904296875
1700516294661575000,10.844574951171875,-0.8180389404296875,-0.0235595703125,-0.0659637451171875
1700516294671585800,10.854585693359375,-0.9455718994140625,-0.294586181640625,0.0252838134765625
1700516294681596700,10.8645966796875,-1.072418212890625,-0.55743408203125,0.007598876953125
1700516294691608000,10.874608154296874,-0.7762451171875,0.3837738037109375,0.0589599609375
1700516294701618000,10.884617919921874,-0.512542724609375,-0.1269989013671875,-0.0469512939453125
1700516294711628800,10.89462890625,-0.9600830078125,-0.7063751220703125,-0.145233154296875
1700516294721640000,10.904639892578125,-1.324127197265625,-0.0361480712890625,0.1016387939453125
1700516294731649800,10.91464990234375,-0.525848388671875,0.2602386474609375,0.005889892578125
1700516294741661000,10.924660888671875,-0.711334228515625,-0.337738037109375,0.06756591796875
1700516294751671800,10.934671875,-0.86065673828125,-0.4320526123046875,0.2310028076171875
1700516294761682700,10.9446826171875,-1.2672119140625,0.3107452392578125,-0.02093505859375
1700516294771692800,10.95469287109375,-1.3398590087890625,-0.2529449462890625,-0.0517578125
1700516294781704000,10.964703857421876,-1.5218963623046875,-0.579925537109375,-0.0528411865234375
1700516294791714800,10.97471484375,-1.296905517578125,0.35076904296875,0.101287841796875
1700516294801725000,10.984724853515624,-1.013916015625,-0.2308807373046875,0.0217437744140625
1700516294811735800,10.99473583984375,-1.486572265625,-0.72906494140625,-0.1301727294921875
1700516294821747000,11.004746826171875,-1.14959716796875,0.0285797119140625,0.0740966796875
1700516294831757800,11.0147578125,-0.5950775146484375,-0.0055084228515625,0.096466064453125
1700516294841767700,11.024767578125,-0.500091552734375,-0.560943603515625,0.0363922119140625
1700516294851778800,11.03477880859375,-0.764404296875,-0.3722991943359375,0.1046295166015625
1700516294861790000,11.0447900390625,-0.966766357421875,0.33172607421875,0.105987548828125
1700516294871800000,11.054800048828126,-0.7623291015625,-0.3860626220703125,0.08697509765625
1700516294881811000,11.06481103515625,-1.0661163330078125,-0.55560302734375,-0.091461181640625
1700516294891821800,11.07482177734375,-1.001861572265625,0.1598663330078125,0.1051483154296875
1700516294901832000,11.08483203125,-0.5368499755859375,0.278350830078125,-0.1028594970703125
1700516294911842800,11.0948427734375,-1.3005828857421875,-0.434967041015625,-0.0760955810546875
1700516294921853700,11.104853759765625,-1.53814697265625,-0.2512664794921875,-0.02093505859375
1700516294931864800,11.11486474609375,-0.7767486572265625,0.371490478515625,-0.097198486328125
1700516294941874700,11.124874755859375,-0.9173126220703125,-0.2841644287109375,-0.051849365234375
1700516294951885800,11.1348857421875,-1.2753448486328125,-0.6124114990234375,0.1263427734375
1700516294961897000,11.14489697265625,-1.0923614501953125,0.3717498779296875,0.10040283203125
1700516294971906800,11.15490673828125,-0.8836822509765625,-0.396484375,0.0394287109375
1700516294981918000,11.16491796875,-1.04901123046875,-0.5229339599609375,0.055877685546875
1700516294991928800,11.1749287109375,-1.1262969970703125,0.08685302734375,0.157928466796875
1700516295001939000,11.18493896484375,-0.728057861328125,-0.22149658203125,0.1252288818359375
1700516295011949800,11.19494970703125,-1.1261749267578125,-0.500946044921875,0.0133819580078125
1700516295021961000,11.2049609375,-1.00897216796875,-0.1271209716796875,0.0854339599609375
1700516295031968500,11.214968505859375,-0.782012939453125,0.06915283203125,-0.021575927734375
1700516295041978600,11.224978515625,-0.750885009765625,-0.2120208740234375,-0.0122222900390625
1700516295051989500,11.234989501953125,-1.13763427734375,-0.6592254638671875,-0.08721923828125
1700516295062000600,11.245000732421875,-1.135009765625,0.308929443359375,-0.06292724609375
1700516295072010500,11.255010498046875,-0.825531005859375,-0.035064697265625,-0.053802490234375
1700516295082021400,11.265021484375,-1.43206787109375,-0.5489654541015625,-0.1287994384765625
1700516295092032500,11.275032470703126,-1.08270263671875,0.0276336669921875,0.1920623779296875
1700516295102043400,11.28504345703125,-0.394744873046875,0.2701873779296875,0.133148193359375
1700516295112053500,11.295053466796874,-1.046234130859375,-0.5272064208984375,0.0794830322265625
1700516295122064600,11.305064697265625,-0.9334716796875,-0.344512939453125,0.14373779296875
1700516295132075500,11.315075439453125,-0.6289825439453125,0.2181396484375,0.0427093505859375
1700516295142085600,11.325085693359375,-1.0009765625,-0.2484588623046875,0.047607421875
1700516295152096500,11.335096435546875,-1.1697235107421875,-0.5851287841796875,0.101776123046875
1700516295162107400,11.345107421875,-0.9759521484375,0.4261322021484375,0.0472564697265625
1700516295172117500,11.355117431640625,-0.738250732421875,-0.1983184814453125,-0.07073974609375
1700516295182128400,11.36512841796875,-1.26300048828125,-0.60406494140625,-0.169036865234375
1700516295192139300,11.37513916015625,-1.3365478515625,0.1813812255859375,-0.02178955078125
1700516295202150700,11.385150634765624,-0.71240234375,0.0113067626953125,0.0678558349609375
1700516295212160500,11.395160400390624,-1.3946380615234375,-0.470977783203125,0.0205230712890625
1700516295222171600,11.405171630859375,-1.4181976318359375,-0.0262451171875,0.1673583984375
1700516295232182500,11.4151826171875,-0.713134765625,-0.0050811767578125,0.1280059814453125
1700516295242192400,11.4251923828125,-0.5825653076171875,-0.34576416015625,0.2407379150390625
1700516295252203500,11.43520361328125,-0.7804107666015625,-0.4073486328125,0.1817474365234375
1700516295262214400,11.44521435546875,-0.886688232421875,0.1732330322265625,-0.000823974609375
1700516295272224500,11.455224609375,-1.058013916015625,-0.3542022705078125,0.0296783447265625
1700516295282235400,11.4652353515625,-1.509124755859375,-0.448516845703125,-0.08441162109375
1700516295292246500,11.47524658203125,-1.179840087890625,0.307891845703125,0.061126708984375
1700516295302257700,11.485257568359375,-0.7053070068359375,-0.009429931640625,-0.0213165283203125
1700516295312267500,11.495267578125,-1.189910888671875,-0.614288330078125,-0.1285858154296875
1700516295322278400,11.5052783203125,-1.2264251708984375,-0.061431884765625,0.0631103515625
1700516295332289500,11.51528955078125,-0.767578125,0.15447998046875,0.0714111328125
1700516295342299400,11.52529931640625,-1.2447357177734375,-0.3795318603515625,-0.00384521484375
1700516295352310500,11.535310546875,-1.1314544677734375,-0.3682403564453125,0.141815185546875
1700516295362321400,11.5453212890625,-0.7724609375,0.342926025390625,0.229736328125
1700516295372331300,11.555331298828126,-0.68841552734375,-0.3314971923828125,0.1097869873046875
1700516295382342700,11.5653427734375,-1.048004150390625,-0.5965576171875,-0.062225341796875
1700516295392353500,11.575353515625,-0.843841552734375,0.2108001708984375,0.1096343994140625
1700516295402363600,11.58536376953125,-0.794342041015625,0.0292205810546875,0.016693115234375
1700516295412374500,11.59537451171875,-1.3756256103515625,-0.564422607421875,-0.2421875
1700516295422385400,11.605385498046875,-1.15032958984375,0.209747314453125,0.1568145751953125
1700516295432396300,11.615396240234375,-0.5944976806640625,0.1156005859375,0.1195220947265625
1700516295442406400,11.625406494140625,-0.96173095703125,-0.3984527587890625,-0.003936767578125
1700516295452417300,11.635417236328125,-1.1679840087890625,-0.2984466552734375,0.13720703125
1700516295462428700,11.6454287109375,-0.920196533203125,0.2555694580078125,0.1272125244140625
1700516295472438500,11.6554384765625,-0.96954345703125,-0.214141845703125,0.1371917724609375
1700516295482449400,11.665449462890624,-1.2436981201171875,-0.537322998046875,0.0653839111328125
1700516295492460500,11.67546044921875,-0.9377899169921875,0.351531982421875,0.0394287109375
1700516295502470400,11.685470458984375,-0.7925872802734375,-0.3256988525390625,0.0901336669921875
1700516295512481500,11.6954814453125,-1.0484619140625,-0.543487548828125,-0.0958709716796875
1700516295522492400,11.705492431640625,-1.0496063232421875,0.157501220703125,0.1116943359375
1700516295532502500,11.71550244140625,-0.7470550537109375,-0.0771026611328125,0.114898681640625
1700516295542513400,11.725513427734375,-1.1136322021484375,-0.4824066162109375,-0.045074462890625
1700516295552524500,11.735524658203126,-0.915618896484375,-0.1693878173828125,0.1803131103515625
1700516295562535400,11.745535400390626,-0.6933441162109375,0.27081298828125,0.0689849853515625
1700516295572545500,11.755545654296874,-0.99530029296875,-0.2881317138671875,0.0832977294921875
1700516295582556400,11.765556396484374,-1.172027587890625,-0.5979461669921875,0.0662078857421875
1700516295592567600,11.775567626953125,-0.7145538330078125,0.4506072998046875,0.0283355712890625
1700516295602577400,11.785577392578125,-0.5422821044921875,-0.0218048095703125,0.050079345703125
1700516295612588300,11.79558837890625,-1.134674072265625,-0.5889434814453125,-0.02874755859375
1700516295622599400,11.805599365234375,-1.35186767578125,0.0963592529296875,-0.013031005859375
1700516295632609300,11.815609375,-0.339813232421875,0.141021728515625,0.0399017333984375
1700516295642620700,11.82562060546875,-1.06036376953125,-0.417266845703125,0.0248870849609375
1700516295652631600,11.835631591796876,-1.091552734375,-0.063385009765625,0.0913238525390625
1700516295662641400,11.845641357421876,-0.7169647216796875,0.0166473388671875,0.0000457763671875
1700516295672652500,11.855652587890624,-1.1408538818359375,-0.1718292236328125,0.1099853515625
1700516295682663400,11.865663330078124,-1.2205352783203125,-0.4127044677734375,0.141143798828125
1700516295692673500,11.875673583984375,-0.89111328125,0.32135009765625,0.0177764892578125
1700516295702684400,11.885684326171875,-1.1336669921875,-0.274505615234375,0.0099945068359375
1700516295712695600,11.895695556640625,-1.47540283203125,-0.5214691162109375,-0.0755767822265625
1700516295722705400,11.905705322265625,-1.00799560546875,0.2838287353515625,0.0383453369140625
1700516295732716500,11.915716552734375,-0.4498291015625,-0.2001800537109375,0.0563812255859375
1700516295742727400,11.9257275390625,-0.9598846435546875,-0.4914398193359375,-0.0475006103515625
1700516295752737500,11.935737548828126,-1.266632080078125,0.19549560546875,0.0682830810546875
1700516295762748400,11.94574853515625,-0.9215545654296875,-0.26727294921875,0.057586669921875
1700516295772759600,11.955759521484374,-1.34619140625,-0.142578125,-0.0397796630859375
1700516295782770400,11.9657705078125,-1.0568084716796875,-0.0364227294921875,0.222076416015625
1700516295792780300,11.9757802734375,-0.670196533203125,0.1271820068359375,-0.0196685791015625
1700516295802791700,11.985791748046875,-0.849822998046875,-0.3340301513671875,0.0201568603515625
1700516295812802600,11.995802490234375,-1.2614288330078125,-0.391693115234375,0.089874267578125
1700516295822812700,12.005812744140625,-1.0323486328125,0.290435791015625,0.0351715087890625
1700516295832823600,12.015823486328125,-0.8319244384765625,-0.1522979736328125,-0.0702667236328125
1700516295842834400,12.02583447265625,-1.235504150390625,-0.4953765869140625,0.01678466796875
1700516295852844500,12.035844482421876,-1.1359405517578125,0.324859619140625,0.049652099609375
1700516295862855400,12.04585546875,-0.7379913330078125,-0.2073974609375,0.0606689453125
1700516295872866300,12.0558662109375,-1.2072906494140625,-0.4437255859375,-0.0550079345703125
1700516295882876400,12.06587646484375,-1.01593017578125,0.0490264892578125,0.1590118408203125
1700516295892887600,12.075887451171875,-0.720916748046875,0.0531463623046875,0.0101470947265625
1700516295902898400,12.0858984375,-0.91168212890625,-0.2767791748046875,0.0306396484375
1700516295912908500,12.095908447265625,-1.2384796142578125,-0.3100128173828125,0.072479248046875
1700516295922919400,12.10591943359375,-0.857635498046875,0.3064727783203125,0.072784423828125
1700516295932930600,12.1159306640625,-0.87890625,-0.1798095703125,0.0308380126953125
1700516295942940400,12.1259404296875,-1.1826629638671875,-0.41009521484375,0.0505828857421875
1700516295952951600,12.13595166015625,-1.0481414794921875,0.234283447265625,-0.0315704345703125
1700516295962962400,12.14596240234375,-0.809417724609375,-0.0486602783203125,0.11016845703125
1700516295972972300,12.15597216796875,-1.5601959228515625,-0.559814453125,0.005126953125
1700516295982983700,12.165983642578125,-1.206787109375,0.2145843505859375,0.0641021728515625
1700516295992994600,12.17599462890625,-0.4950408935546875,-0.0894927978515625,0.0360260009765625
1700516296003004700,12.186004638671875,-1.0606231689453125,-0.4076385498046875,0.0301513671875
1700516296013015600,12.196015625,-1.05389404296875,-0.1181182861328125,0.1064910888671875
1700516296023026400,12.2060263671875,-0.67327880859375,0.1169586181640625,-0.0690460205078125
1700516296033036500,12.21603662109375,-0.8316802978515625,-0.36676025390625,0.110565185546875
1700516296043047700,12.226047607421876,-0.8046112060546875,-0.2198333740234375,0.0770721435546875
1700516296053058600,12.23605859375,-0.88323974609375,0.43182373046875,-0.0807342529296875
1700516296063068700,12.246068603515624,-1.0508575439453125,-0.2339935302734375,-0.0243682861328125
1700516296073079600,12.25607958984375,-1.161834716796875,-0.461578369140625,-0.0473175048828125
1700516296083090400,12.26609033203125,-0.936767578125,0.484344482421875,-0.0407257080078125
1700516296093100500,12.2761005859375,-0.54876708984375,-0.08087158203125,-0.019927978515625
1700516296103111400,12.286111328125,-1.0536651611328125,-0.572723388671875,0.017822265625
1700516296113122600,12.29612255859375,-1.09991455078125,0.125152587890625,0.1360015869140625
1700516296123132400,12.30613232421875,-0.9554595947265625,0.0738983154296875,-0.0137176513671875
1700516296133143600,12.3161435546875,-1.60638427734375,-0.5020599365234375,-0.0081787109375
1700516296143154700,12.32615478515625,-1.4442901611328125,0.0426788330078125,0.2249298095703125
1700516296153164500,12.33616455078125,-1.11761474609375,0.0405426025390625,0.1895751953125
1700516296163175700,12.34617578125,-1.0878448486328125,-0.40899658203125,-0.106597900390625
1700516296173186600,12.3561865234375,-0.802581787109375,-0.335906982421875,0.027252197265625
1700516296183196700,12.36619677734375,-0.6312103271484375,0.1547698974609375,0.0592193603515625
1700516296193207600,12.37620751953125,-0.7817230224609375,-0.2327423095703125,-0.08642578125
1700516296203217400,12.386217529296875,-1.118988037109375,-0.5079803466796875,-0.1007232666015625
1700516296213228500,12.396228515625,-1.0643463134765625,0.44818115234375,0.0345458984375
1700516296223239700,12.40623974609375,-0.6736907958984375,-0.06341552734375,0.0325927734375
1700516296233249800,12.416249755859376,-1.1078948974609375,-0.304901123046875,-0.1114501953125
1700516296243260700,12.4262607421875,-0.9716033935546875,0.044647216796875,0.075439453125
1700516296253271600,12.436271484375,-0.20416259765625,0.2469635009765625,0.0634002685546875
1700516296263281700,12.44628173828125,-1.1484527587890625,-0.2380523681640625,0.11920166015625
1700516296273292500,12.45629248046875,-1.37139892578125,-0.126800537109375,0.1509857177734375
1700516296283303400,12.466303466796875,-1.5416412353515625,0.0271453857421875,-0.0383453369140625
1700516296293313500,12.4763134765625,-1.6837005615234375,-0.037933349609375,-0.0518798828125
1700516296303324400,12.486324462890625,-1.5090484619140625,-0.4079437255859375,0.123291015625
1700516296313335600,12.49633544921875,-1.09979248046875,0.2619781494140625,0.0413970947265625
1700516296323345700,12.506345703125,-0.53289794921875,-0.4258270263671875,0.0522918701171875
1700516296333356500,12.5163564453125,-0.4687957763671875,-0.3904266357421875,0.0093536376953125
1700516296343367700,12.52636767578125,-0.779571533203125,0.1647491455078125,0.0692596435546875
1700516296353377500,12.53637744140625,-0.763946533203125,-0.238525390625,0.1683807373046875
1700516296363388400,12.546388427734374,-1.256744384765625,-0.413665771484375,-0.08514404296875
1700516296373398500,12.5563984375,-0.7762298583984375,0.1859893798828125,0.1372222900390625
1700516296383409400,12.566409423828125,-0.4227142333984375,0.167266845703125,-0.040130615234375
1700516296393420500,12.576420654296875,-1.23150634765625,-0.272491455078125,-0.181488037109375
1700516296403430400,12.586430419921875,-1.1387481689453125,-0.0598297119140625,0.0208282470703125
1700516296413441500,12.596441650390625,-1.6581268310546875,0.2683868408203125,-0.1335906982421875
1700516296423452700,12.60645263671875,-1.1890411376953125,-0.138580322265625,0.0173797607421875
1700516296433462500,12.616462646484376,-1.014190673828125,-0.28173828125,0.0177154541015625
1700516296443473700,12.6264736328125,-0.815582275390625,0.28271484375,0.2718505859375
1700516296453484500,12.636484619140624,-0.7127227783203125,-0.159210205078125,0.210479736328125
1700516296463494700,12.64649462890625,-0.7546234130859375,-0.47833251953125,-0.0265045166015625
1700516296473505500,12.656505615234375,-1.017120361328125,0.07464599609375,0.1344146728515625
1700516296483515400,12.666515380859375,-0.6375274658203125,-0.094512939453125,0.2205352783203125
1700516296493526500,12.676526611328125,-1.1024017333984375,-0.401947021484375,-0.08441162109375
1700516296503537700,12.68653759765625,-1.1105499267578125,0.204986572265625,0.07086181640625
1700516296513547800,12.6965478515625,-0.8315582275390625,-0.0877838134765625,0.033233642578125
1700516296523558700,12.70655859375,-1.306304931640625,-0.241455078125,-0.1730194091796875
1700516296533569500,12.716569580078126,-1.34033203125,-0.09375,0.0225372314453125
1700516296543579600,12.72657958984375,-1.0983428955078125,0.10919189453125,0.0437774658203125
1700516296553590500,12.736590576171874,-1.1309814453125,-0.3006134033203125,0.041473388671875
1700516296563600600,12.7466005859375,-1.0521087646484375,-0.3463592529296875,0.0508575439453125
1700516296573611500,12.756611572265625,-0.9197845458984375,0.248382568359375,0.104705810546875
1700516296583622400,12.766622314453125,-0.714752197265625,-0.20098876953125,0.1179351806640625
1700516296593632500,12.776632568359375,-0.9290008544921875,-0.508697509765625,-0.0476226806640625
1700516296603643600,12.7866435546875,-0.9006500244140625,0.25250244140625,0.136993408203125
1700516296613654500,12.796654541015625,-0.394195556640625,0.03912353515625,0.1314849853515625
1700516296623664600,12.80666455078125,-1.147369384765625,-0.4246368408203125,-0.1496429443359375
1700516296633675500,12.816675537109376,-1.181854248046875,0.0547637939453125,0.1916351318359375
1700516296643685600,12.826685546875,-0.6662139892578125,0.248260498046875,0.101959228515625
1700516296653696500,12.836696533203124,-1.1629486083984375,-0.103973388671875,0.0191802978515625
1700516296663707400,12.846707275390624,-1.274139404296875,-0.1391448974609375,0.1336517333984375
1700516296673717500,12.856717529296875,-1.187286376953125,0.157989501953125,-0.113677978515625
1700516296683728400,12.866728271484375,-1.1907501220703125,-0.1566009521484375,0.0628204345703125
