time,seconds_elapsed,z,y,x
1700516283835265300,0.018265380859375,-0.009671003557741642,-0.05156731978058815,0.058692872524261475
1700516283845275100,0.028275146484375,0.010775948874652386,0.02978106588125229,0.08044131100177765
1700516283855285200,0.03828515625,-0.0029640982393175364,-0.06908772140741348,-0.14314010739326477
1700516283865295000,0.048295166015625,-0.004080761689692736,0.06945151090621948,-0.1306573450565338
1700516283875305200,0.05830517578125,-0.0030336068011820316,-0.060805827379226685,0.10001474618911743
1700516283885315000,0.068315185546875,0.016113722696900368,0.02581295557320118,0.0369417741894722
1700516283895325000,0.078324951171875,0.029681196436285973,-0.013337909244000912,0.10057348012924194
1700516283905335000,0.0883349609375,-0.025957830250263214,-0.050327885895967484,-0.162995845079422
1700516283915346200,0.09834619140625,-0.006197708658874035,0.009814813733100891,-0.13725346326828003
1700516283925356000,0.10835595703125,-0.006596383638679981,-0.022308234125375748,0.07914409041404724
1700516283935366100,0.1183662109375,0.003329750383272767,0.026160497218370438,0.08248022943735123
1700516283945376300,0.128376220703125,-0.0043651871383190155,-0.07887990027666092,-0.16313005983829498
1700516283955386000,0.13838623046875,-0.013169864192605019,0.04334427788853645,-0.11057204753160477
1700516283965396200,0.148396240234375,-0.013981329277157784,-0.08448132872581482,0.10746520757675171
1700516283975406000,0.158406005859375,-0.019598469138145447,0.02983805723488331,0.021854165941476822
1700516283985416200,0.168416259765625,0.020663199946284294,-0.07533176988363266,0.06285006552934647
1700516283995426300,0.17842626953125,-0.04385880008339882,-0.10474159568548203,-0.19738870859146118
1700516284005436200,0.188436279296875,-0.03561684861779213,0.041363686323165894,-0.22653886675834656
1700516284015446000,0.198446044921875,-0.0338682197034359,-0.10078813135623932,-0.012082495726644993
1700516284025451800,0.20845166015625,-0.009216934442520142,-0.0581490583717823,0.047993890941143036
1700516284035462700,0.218462646484375,-0.04332616925239563,-0.1760953962802887,-0.16123922169208527
1700516284045472500,0.228472412109375,-0.031503599137067795,0.074185810983181,-0.15332190692424774
1700516284055482600,0.238482666015625,-0.021676799282431602,-0.10368671268224716,0.04140150174498558
1700516284065492700,0.24849267578125,-0.007558583747595549,0.02359347604215145,0.053942594677209854
1700516284075502600,0.258502685546875,0.02924470417201519,-0.04044409468770027,0.20092405378818512
1700516284085512700,0.2685126953125,-0.045639656484127045,-0.1205328032374382,-0.18079614639282227
1700516284095522600,0.2785224609375,-0.008012386038899422,0.007518636528402567,-0.2110070437192917
1700516284105532700,0.28853271484375,-0.02269412763416767,-0.060734186321496964,0.013467338867485523
1700516284115542500,0.29854248046875,-0.01569693721830845,0.003763312939554453,0.08017579466104507
1700516284125552600,0.308552734375,-0.010781541466712952,-0.09224044531583786,-0.0973273515701294
1700516284135562800,0.318562744140625,-0.0056392434053123,0.0641491562128067,-0.08042320609092712
1700516284145573600,0.32857373046875,-0.01104759145528078,-0.03068254515528679,-0.010045710019767284
1700516284155583700,0.338583740234375,0.013550962321460247,0.1264602094888687,0.02557620033621788
1700516284165593600,0.348593505859375,0.018071146681904793,-0.04668814316391945,0.133501335978508
1700516284175603700,0.358603759765625,-0.021465877071022987,-0.0390952043235302,-0.20507805049419403
1700516284185613600,0.368613525390625,0.008636897429823875,0.001469798618927598,-0.18946953117847443
1700516284195623700,0.378623779296875,0.006305832881480455,0.09178265184164047,-0.019218701869249344
1700516284205633500,0.388633544921875,-0.005085572600364685,-0.00264744833111763,0.049488190561532974
1700516284215643600,0.3986435546875,0.01990766078233719,-0.037932202219963074,-0.14028200507164001
1700516284225653800,0.40865380859375,-0.012473979964852333,0.04159511253237724,-0.05028953403234482
1700516284235663600,0.41866357421875,-0.0026905916165560484,0.014268684200942516,0.05602705106139183
1700516284245673700,0.428673828125,0.01110618095844984,0.13482439517974854,0.1476730853319168
1700516284255684600,0.4386845703125,0.010868360288441181,-0.10394477099180222,0.19121868908405304
1700516284265694700,0.44869482421875,-0.01823306642472744,0.04770786687731743,-0.17548500001430511
1700516284275704600,0.45870458984375,-0.0032866070978343487,-0.018369685858488083,-0.06209080293774605
1700516284285714700,0.468714599609375,0.01937396451830864,0.035659193992614746,0.15172907710075378
1700516284295724500,0.478724609375,-0.016217585653066635,-0.018913503736257553,0.1273992359638214
1700516284305734700,0.488734619140625,0.011683021672070026,0.009588179178535938,-0.10610219836235046
1700516284315744500,0.49874462890625,-0.008707737550139427,0.01583222672343254,0.01053120382130146
1700516284325754600,0.508754638671875,0.016517989337444305,-0.007361509837210178,0.052263472229242325
1700516284335764700,0.5187646484375,0.029871346428990364,0.09241355210542679,0.15027658641338348
1700516284345775600,0.528775634765625,-0.015670837834477425,-0.140263631939888,0.00023941817926242948
1700516284355785700,0.53878564453125,-0.0019539613276720047,0.04532753303647041,-0.21742579340934753
1700516284365795600,0.548795654296875,-0.013833790086209774,-0.0749426856637001,-0.007808654569089413
1700516284375805700,0.5588056640625,0.01756674237549305,-0.015284414403140545,0.09792257100343704
1700516284385815600,0.568815673828125,-0.018759839236736298,-0.11991974711418152,-0.06433477997779846
1700516284395825700,0.57882568359375,0.013334447517991066,0.0024317323695868254,-0.1913188248872757
1700516284405835500,0.58883544921875,-0.014158429577946663,-0.04950843006372452,0.014481470920145512
1700516284415845600,0.598845703125,0.023742614313960075,-0.017547035589814186,0.08093719184398651
1700516284425855700,0.608855712890625,0.013997041620314121,-0.007376423571258783,0.1625010222196579
1700516284435866600,0.61886669921875,-0.01571611315011978,-0.08770881593227386,-0.10692005604505539
1700516284445876500,0.62887646484375,-0.0051934304647147655,0.010098706930875778,-0.18476372957229614
1700516284455886600,0.638886474609375,-0.021678663790225983,0.0021166803780943155,-0.0006562029011547565
1700516284465896700,0.648896728515625,0.00998951680958271,-0.024459803476929665,0.13080061972141266
1700516284475906600,0.658906494140625,-0.02310425415635109,-0.12101217359304428,-0.05402382090687752
1700516284485916700,0.668916748046875,0.01041349209845066,0.040716804563999176,-0.15104331076145172
1700516284495926500,0.678926513671875,-0.01990845985710621,-0.06989679485559464,0.02640817128121853
1700516284505936600,0.6889365234375,0.003005110891535878,0.019099125638604164,0.09192246943712234
1700516284515946800,0.69894677734375,0.0172671377658844,-0.011050786823034286,0.19387386739253998
1700516284525957600,0.70895751953125,-0.02576368674635887,-0.07855446636676788,-0.12669722735881805
1700516284535967500,0.718967529296875,0.012114453129470348,0.018162226304411888,-0.16422969102859497
1700516284545977600,0.7289775390625,-0.016767261549830437,-0.027483290061354637,0.03888721019029617
1700516284555987700,0.73898779296875,0.003955326974391937,0.021930599585175514,0.14578916132450104
1700516284565997600,0.74899755859375,-0.002522812457755208,-0.1071418970823288,-0.08534951508045197
1700516284576007700,0.759007568359375,0.015861254185438156,0.0830719843506813,-0.0990871712565422
1700516284586017500,0.769017578125,-0.019153188914060593,-0.0587884820997715,0.03003326617181301
1700516284596027600,0.779027587890625,0.00481419637799263,0.07091598212718964,0.05914401262998581
1700516284606038500,0.78903857421875,0.008841694332659245,-0.05710989236831665,0.14666907489299774
1700516284616048600,0.799048583984375,-0.014561631716787815,-0.023993749171495438,-0.16995388269424438
1700516284626058500,0.80905859375,0.00947765726596117,0.014070811681449413,-0.12348917871713638
1700516284636068600,0.819068603515625,-0.005252819042652845,0.002301770029589534,0.03586532175540924
1700516284646078500,0.829078369140625,-0.0070371367037296295,0.034279678016901016,0.12410970032215118
1700516284656088600,0.839088623046875,0.004629106726497412,-0.07294584810733795,-0.101288802921772
1700516284666098700,0.8490986328125,0.005396096967160702,0.07171173393726349,-0.09161913394927979
1700516284676109800,0.85910986328125,-0.020444288849830627,-0.03045777417719364,0.04897633194923401
1700516284686119700,0.86911962890625,0.02279692515730858,0.12792707979679108,0.08808059245347977
1700516284696129800,0.8791298828125,0.005331648513674736,-0.09277893602848053,0.1509903073310852
1700516284706140000,0.889139892578125,-0.01284469198435545,0.013255084864795208,-0.2036026567220688
1700516284716149800,0.899149658203125,0.005870938766747713,-0.01353631541132927,-0.1264687180519104
1700516284726159600,0.90915966796875,0.006494917441159487,0.018029600381851196,0.050930824130773544
1700516284736169500,0.91916943359375,-0.016572318971157074,0.008288555778563023,0.10778425633907318
1700516284746179600,0.9291796875,0.010440124198794365,-0.051779042929410934,-0.15263774991035461
1700516284756190700,0.939190673828125,0.004063983913511038,0.064761683344841,-0.0817401334643364
1700516284766200800,0.949200927734375,-0.020486898720264435,-0.02515648491680622,0.03721155226230621
1700516284776210700,0.959210693359375,0.03898308426141739,0.14249882102012634,0.10815948992967606
1700516284786220800,0.969220703125,-0.009682455100119114,-0.09120927006006241,0.12151231616735458
1700516284796231000,0.97923095703125,0.0034314829390496016,0.043103527277708054,-0.23314110934734344
1700516284806240800,0.98924072265625,0.003242398612201214,-0.028868399560451508,-0.11141493916511536
1700516284816251000,0.9992509765625,0.02352423407137394,0.02876533567905426,0.07472164183855057
1700516284826261800,1.00926171875,-0.014623151160776615,-0.006661897525191307,0.09326948970556259
1700516284836271900,1.01927197265625,0.02436606027185917,-0.012261725962162018,-0.1565278172492981
1700516284846281700,1.02928173828125,-0.0012610068079084158,0.023187344893813133,-0.06644027680158615
1700516284856291800,1.039291748046875,-0.004022438544780016,-0.003257578704506159,0.029017535969614983
1700516284866301700,1.0493017578125,0.03699849918484688,0.12819817662239075,0.13503505289554596
1700516284876311800,1.059311767578125,-0.013907293789088726,-0.09510760754346848,0.09236721694469452
1700516284886321700,1.06932177734375,0.005193696822971106,0.05055158957839012,-0.23333445191383362
1700516284896332800,1.079332763671875,0.0005787048721686006,-0.03945712745189667,-0.10523773729801178
1700516284906342700,1.0893427734375,0.02401665225625038,0.039076294749975204,0.08920018374919891
1700516284916352800,1.099352783203125,-0.024894431233406067,-0.030557909980416298,0.08176570385694504
1700516284926363000,1.10936279296875,0.02436259761452675,0.015480422414839268,-0.14864033460617065
1700516284936372700,1.119372802734375,-0.01185186579823494,0.004073305055499077,-0.024334633722901344
1700516284946382800,1.1293828125,0.004818457178771496,0.00015925703337416053,0.03995194286108017
1700516284956392700,1.139392822265625,0.03888161852955818,0.10341879725456238,0.1733962893486023
1700516284966403800,1.14940380859375,-0.018327608704566956,-0.07944129407405853,0.06914551556110382
1700516284976413700,1.15941357421875,0.016992032527923584,0.07649371027946472,-0.20703281462192535
1700516284986423800,1.169423828125,-0.01378212496638298,-0.042989280074834824,-0.03756149113178253
1700516284996433700,1.17943359375,0.029320871457457542,0.0596497468650341,0.14451643824577332
1700516285006443800,1.18944384765625,-0.01901363767683506,-0.04929564520716667,0.06912980228662491
1700516285016453600,1.19945361328125,0.016626913100481033,0.06108545884490013,-0.1495862901210785
1700516285026464300,1.20946435546875,-0.00643792562186718,-0.005215002223849297,0.012507801875472069
1700516285036475100,1.21947509765625,0.012300075963139534,0.006022472400218248,0.07293519377708435
1700516285046485200,1.2294853515625,0.042212702333927155,0.09691882133483887,0.19241870939731598
1700516285056495000,1.2394951171875,-0.020187560468912125,-0.051839496940374374,-0.029386917129158974
1700516285066505200,1.249505126953125,0.01293603889644146,0.06978573650121689,-0.19309382140636444
1700516285076515000,1.25951513671875,-0.013104883022606373,-0.03256593272089958,0.032705750316381454
1700516285086525200,1.269525146484375,0.029710492119193077,0.056046489626169205,0.16230076551437378
1700516285096536000,1.2795361328125,-0.003438939806073904,-0.05652453005313873,-0.027692347764968872
1700516285106546200,1.289546142578125,0.00407437002286315,0.0716685950756073,-0.17942701280117035
1700516285116556300,1.299556396484375,0.0001555285998620093,-0.016710270196199417,0.06980437785387039
1700516285126566100,1.309566162109375,0.023388946428894997,0.00570049649104476,0.09756863117218018
1700516285136576300,1.319576171875,0.042217228561639786,0.06312330812215805,0.1648659110069275
1700516285146586000,1.329586181640625,-0.024640897288918495,-0.027716582641005516,-0.12329690158367157
1700516285156596200,1.33959619140625,0.007217699196189642,0.04724021628499031,-0.14859320223331451
1700516285166607000,1.349607177734375,-0.011948804371058941,-0.024531442672014236,0.10258336365222931
1700516285176617200,1.3596171875,0.023967383429408073,0.037520475685596466,0.14261627197265625
1700516285186627000,1.369626953125,0.00033422670094296336,-0.06408524513244629,-0.12154453992843628
1700516285196637200,1.37963720703125,-0.00016245282313320786,0.07654936611652374,-0.14634442329406738
1700516285206647000,1.38964697265625,-0.0012540825409814715,-0.028509140014648438,0.1335791051387787
1700516285216657200,1.3996572265625,0.019349463284015656,0.03196112811565399,0.09259438514709473
1700516285226668000,1.40966796875,0.027631893754005432,-0.006754841655492783,0.10167549550533295
1700516285236678100,1.41967822265625,-0.014302772469818592,-0.0031529164407402277,-0.18201987445354462
1700516285246688000,1.42968798828125,0.0007446198142133653,0.00455773388966918,-0.06577502191066742
1700516285256698000,1.439697998046875,-0.008130097761750221,-0.008986304514110088,0.10928148031234741
1700516285266708200,1.449708251953125,0.012822587974369526,0.02611122839152813,0.08190099149942398
1700516285276718000,1.459718017578125,0.008038219064474106,-0.06393663585186005,-0.1656467616558075
1700516285286729200,1.469729248046875,-0.0005155879771336913,0.05002535134553909,-0.10786867886781693
1700516285296739000,1.479739013671875,0.005833920557051897,-0.04530622810125351,0.15197674930095673
1700516285306749200,1.489749267578125,0.009212139993906021,0.033371806144714355,0.06683042645454407
1700516285316759000,1.499759033203125,0.025713885203003883,-0.02900848165154457,0.08363977074623108
1700516285326769200,1.50976904296875,-0.016511065885424614,-0.019691679626703262,-0.17923259735107422
1700516285336780000,1.519780029296875,0.0034530546981841326,-0.015853265300393105,-0.03879693150520325
1700516285346790100,1.5297900390625,-0.0123056685552001,-0.005898635368794203,0.12079166620969772
1700516285356800000,1.539800048828125,0.007838748395442963,0.013084642589092255,0.05483235418796539
1700516285366810000,1.54981005859375,0.002163019496947527,-0.07143769413232803,-0.17857560515403748
1700516285376820000,1.559820068359375,0.0062371231615543365,0.039196670055389404,-0.05967717990279198
1700516285386830000,1.569830078125,-0.01025689858943224,-0.06165936961770058,0.15371233224868774
1700516285396841200,1.57984130859375,-0.003238936420530081,0.04862692579627037,0.04824848845601082
1700516285406851300,1.589851318359375,0.007391337305307388,-0.06535450369119644,0.05903588980436325
1700516285416861200,1.599861083984375,-0.010865696705877781,-0.025801770389080048,-0.19478918612003326
1700516285426871300,1.609871337890625,-0.004759867675602436,-0.03193715959787369,-0.021995313465595245
1700516285436881400,1.61988134765625,-0.011239605024456978,-0.00264798104763031,0.11435586959123611
1700516285446891300,1.629891357421875,-0.015321165323257446,0.005426723510026932,0.042333342134952545
1700516285456902100,1.639902099609375,0.004196076653897762,-0.05483075976371765,-0.1964704394340515
1700516285466912300,1.649912353515625,0.002377670258283615,0.031138211488723755,-0.03485571965575218
1700516285476922400,1.65992236328125,-0.018564630299806595,-0.03500405699014664,0.15568439662456512
1700516285486932200,1.66993212890625,-0.000023968450477696024,0.1136767640709877,0.0655563697218895
1700516285496942300,1.6799423828125,0.0034056503791362047,-0.057853713631629944,0.04396772384643555
1700516285506952200,1.6899521484375,-0.005313006229698658,0.017713483422994614,-0.2180047631263733
1700516285516963300,1.69996337890625,-0.007759652566164732,-0.032590433955192566,0.009908823296427727
1700516285526973200,1.70997314453125,0.006610231939703226,0.01624608226120472,0.12759338319301605
1700516285536983300,1.7199833984375,-0.02624412067234516,0.014039386063814163,0.023380156606435776
1700516285546993200,1.7299931640625,0.01509852521121502,-0.020242687314748764,-0.2301652878522873
1700516285557003300,1.740003173828125,-0.008312790654599667,0.031187213957309723,0.0020128171890974045
1700516285567014100,1.75001416015625,-0.01260873582214117,-0.022774288430809975,0.16206160187721252
1700516285577024300,1.760024169921875,0.01606631837785244,0.14501364529132843,0.06247296556830406
1700516285587034000,1.7700341796875,-0.014641260728240013,-0.06181596219539642,-0.006375873927026987
1700516285597044200,1.780044189453125,-0.0035119105596095324,0.033129990100860596,-0.21828599274158478
1700516285607054300,1.790054443359375,-0.0037880802992731333,-0.044431913644075394,0.05518788844347
1700516285617065200,1.800065185546875,0.022482939064502716,0.024467526003718376,0.13179585337638855
1700516285627075000,1.810074951171875,-0.029147498309612274,-0.000023169501218944788,-0.015789881348609924
1700516285637085200,1.820085205078125,0.014490791596472263,0.01155652105808258,-0.22320778667926788
1700516285647095300,1.83009521484375,-0.009907757863402367,0.012838300317525864,0.05495992302894592
1700516285657105200,1.840105224609375,0.006491188891232014,-0.011867045424878597,0.1505516916513443
1700516285667115300,1.850115234375,0.034516166895627975,0.13465102016925812,0.07888389378786087
1700516285677126100,1.860126220703125,-0.013834322802722454,-0.05607765167951584,-0.05307600274682045
1700516285687136300,1.87013623046875,-0.0015430354978889227,0.03907230123877525,-0.18129974603652954
1700516285697146000,1.88014599609375,-0.003993676509708166,-0.04675312340259552,0.07539249211549759
1700516285707156200,1.89015625,0.02912566065788269,0.025361815467476845,0.12444658577442169
1700516285717166000,1.900166015625,-0.022545522078871727,-0.04308302327990532,-0.05561772361397743
1700516285727177200,1.91017724609375,0.012771988287568092,0.031001858413219452,-0.21745748817920685
1700516285737187000,1.92018701171875,-0.009044894017279148,-0.009999371133744717,0.08565205335617065
1700516285747197200,1.930197265625,0.01588708721101284,-0.009675797075033188,0.12468520551919937
1700516285757207000,1.94020703125,0.03939694166183472,0.08978874236345291,0.08131243288516998
1700516285767217200,1.950217041015625,-0.026399383321404457,-0.049259692430496216,-0.09475047886371613
1700516285777228000,1.96022802734375,0.0018836538074538112,0.04471127688884735,-0.15292909741401672
1700516285787238100,1.970238037109375,-0.002897519152611494,-0.054069891571998596,0.08953174948692322
1700516285797248000,1.980248046875,0.02480255253612995,0.03056856244802475,0.10880237817764282
1700516285807258000,1.990258056640625,-0.017851168289780617,-0.07134582102298737,-0.08128447085618973
1700516285817268200,2.000268310546875,0.00771810719743371,0.04159777611494064,-0.19988302886486053
1700516285827279000,2.010279052734375,-0.004176635295152664,-0.01882881484925747,0.10877681523561478
1700516285837289200,2.020289306640625,0.024594025686383247,-0.007296528667211533,0.10813020169734955
1700516285847299000,2.030299072265625,0.043471045792102814,0.07127364724874496,0.08504831790924072
1700516285857309200,2.04030908203125,-0.03427940979599953,-0.04241909459233284,-0.11051079630851746
1700516285867319000,2.050319091796875,0.009639844298362732,0.05013826861977577,-0.13791632652282715
1700516285877330200,2.060330078125,-0.008926915936172009,-0.04308808222413063,0.09733214229345322
1700516285887340300,2.07034033203125,0.029587719589471817,0.044137898832559586,0.10717545449733734
1700516285897350100,2.08035009765625,-0.010673416778445244,-0.06160503998398781,-0.09652067720890045
1700516285907360000,2.090360107421875,0.010397779755294323,0.06142687425017357,-0.17299547791481018
1700516285917370000,2.1003701171875,-0.001333178486675024,-0.0190139040350914,0.1309438943862915
1700516285927381200,2.11038134765625,0.025728533044457436,0.001984853995963931,0.08952455967664719
1700516285937391400,2.120391357421875,0.041675008833408356,0.04345852881669998,0.09877850860357285
1700516285947401200,2.130401123046875,-0.03051742911338806,-0.03871410712599754,-0.1308291256427765
1700516285957411300,2.140411376953125,0.007321296259760857,0.03825151547789574,-0.12413233518600464
1700516285967421200,2.150421142578125,-0.012951218523085117,-0.03549594059586525,0.10242224484682083
1700516285977432300,2.160432373046875,0.019644541665911674,0.03203223645687103,0.10022007673978806
1700516285987442200,2.170442138671875,-0.005665608681738377,-0.07599223405122757,-0.12814758718013763
1700516285997452300,2.180452392578125,0.008437959477305412,0.06460509449243546,-0.15207022428512573
1700516286007462100,2.190462158203125,-0.001062068622559309,-0.031928639858961105,0.1495162546634674
1700516286017473300,2.200473388671875,0.02196628600358963,0.02034282125532627,0.0798833817243576
1700516286027487200,2.2104873046875,0.03207218274474144,-0.002776611829176545,0.09948078542947769
1700516286037497300,2.220497314453125,-0.020668793469667435,-0.027453461661934853,-0.18115673959255219
1700516286047507200,2.230507080078125,0.0002633866388350725,0.012540026567876339,-0.08700121194124222
1700516286057517300,2.240517333984375,-0.015561116859316826,-0.017780328169465065,0.11679080128669739
1700516286067528200,2.250528076171875,0.010878746397793293,0.018145713955163956,0.0780780240893364
1700516286077538300,2.260538330078125,0.0015129417879506946,-0.0768127590417862,-0.16812002658843994
1700516286087548200,2.270548095703125,0.0034471957478672266,0.05709710717201233,-0.11101546883583069
1700516286097558300,2.280558349609375,-0.007378021255135536,-0.05032122880220413,0.15999525785446167
1700516286107569200,2.290569091796875,0.0015725966077297926,0.06980544328689575,0.08452633768320084
1700516286117579300,2.300579345703125,0.01540665328502655,-0.059067048132419586,0.05698898434638977
1700516286127589000,2.310589111328125,-0.008727977983653545,-0.0010516822803765535,-0.20391717553138733
1700516286137599200,2.32059912109375,-0.006936203222721815,-0.026558106765151024,-0.023142337799072266
1700516286147609300,2.330609375,-0.0032591766212135553,-0.0016234630020335317,0.12184494733810425
1700516286157620200,2.3406201171875,-0.009166067466139793,0.016709204763174057,0.0558861680328846
1700516286167630000,2.350630126953125,0.010074738413095474,-0.05602172389626503,-0.19486403465270996
1700516286177640200,2.36064013671875,-0.0015299860388040543,0.035657063126564026,-0.062063369899988174
1700516286187650300,2.370650390625,-0.0018985675415024161,-0.044024184346199036,0.16059526801109314
1700516286197661200,2.3806611328125,-0.009197226725518703,0.08168021589517593,0.06590791046619415
1700516286207671000,2.390671142578125,0.017133979126811028,-0.054848067462444305,0.047322776168584824
1700516286217681200,2.40068115234375,-0.014484932646155357,-0.0027957865968346596,-0.21562789380550385
1700516286227691300,2.410691162109375,0.00015952334797475487,-0.029145369306206703,0.009659817442297935
1700516286237702100,2.4207021484375,-0.001561677665449679,0.014028999954462051,0.12070591002702713
1700516286247712300,2.430712158203125,-0.007635282818228006,0.02311357483267784,0.03653697296977043
1700516286257722000,2.44072216796875,0.004423776641488075,-0.043240148574113846,-0.20562613010406494
1700516286267732200,2.450732177734375,-0.001614940818399191,0.03571884706616402,-0.010194048285484314
1700516286277742000,2.4607421875,-0.007726895622909069,-0.04127553477883339,0.16657167673110962
1700516286287753200,2.470753173828125,-0.005366535857319832,0.11690797656774521,0.05302167311310768
1700516286297763000,2.48076318359375,0.0014077469240874052,-0.05945640429854393,0.025830531492829323
1700516286307773200,2.490773193359375,-0.010161024518311024,0.008684834465384483,-0.2073337435722351
1700516286317783000,2.500782958984375,-0.0032748891972005367,-0.040113598108291626,0.03057761676609516
1700516286327794200,2.510794189453125,0.008346080780029297,0.0170865748077631,0.10615226626396179
1700516286337804000,2.520803955078125,-0.020600350573658943,0.010637197643518448,0.01595073752105236
1700516286347814100,2.530814208984375,0.007241667713969946,-0.021377461031079292,-0.2092733234167099
1700516286357824000,2.540823974609375,-0.0065444521605968475,0.02232075110077858,0.021699169650673866
1700516286367835400,2.55083544921875,-0.01161670871078968,-0.02654079720377922,0.15227368474006653
1700516286377845200,2.56084521484375,0.0035228293854743242,0.1343865692615509,0.04855741560459137
1700516286387855400,2.57085546875,-0.005528722424060106,-0.0673377588391304,0.011809787712991238
1700516286397865200,2.580865234375,-0.008838498964905739,0.015176556073129177,-0.20598778128623962
1700516286407876400,2.59087646484375,-0.005476790945976973,-0.042576223611831665,0.042702723294496536
1700516286417886200,2.60088623046875,0.018023476004600525,0.024037692695856094,0.11096540093421936
1700516286427896300,2.610896240234375,-0.027475565671920776,-0.009465141221880913,-0.005690376274287701
1700516286437906200,2.62090625,0.0073228939436376095,-0.0025329324416816235,-0.22153452038764954
1700516286447917300,2.630917236328125,-0.005792907904833555,0.011362909339368343,0.05590108409523964
1700516286457927200,2.64092724609375,-0.008392153307795525,-0.00774633651599288,0.15075302124023438
1700516286467937300,2.650937255859375,0.016749951988458633,0.1416761726140976,0.049063682556152344
1700516286477947100,2.660947021484375,-0.01769830286502838,-0.07731209695339203,-0.019788086414337158
1700516286487958300,2.670958251953125,-0.0006556702428497374,0.029871080070734024,-0.2059134840965271
1700516286497968000,2.680968017578125,-0.009190035983920097,-0.051386758685112,0.06620431691408157
1700516286507978200,2.690978271484375,0.02094682678580284,0.028798092156648636,0.10733817517757416
1700516286517988000,2.700988037109375,-0.026067286729812622,-0.02834189310669899,-0.041068606078624725
1700516286527999200,2.710999267578125,0.007128483150154352,0.021019531413912773,-0.21260574460029602
1700516286538009000,2.721009033203125,-0.006645385641604662,-0.003306048223748803,0.08924519270658493
1700516286548019200,2.731019287109375,0.011256649158895016,0.0022927154786884785,0.12879739701747894
1700516286558029000,2.741029052734375,0.035592347383499146,0.12117169797420502,0.07847723364830017
1700516286568040200,2.751040283203125,-0.017655692994594574,-0.04665005952119827,-0.07423748075962067
1700516286578050000,2.761050048828125,-0.002959304489195347,0.042217761278152466,-0.15811453759670258
1700516286588060200,2.77106005859375,-0.007990282028913498,-0.03930985555052757,0.07429979741573334
1700516286598070300,2.7810703125,0.027397802099585533,0.030732346698641777,0.10019504278898239
1700516286608081200,2.7910810546875,-0.028304874897003174,-0.06004895642399788,-0.06501735001802444
1700516286618091000,2.801091064453125,0.00762915750965476,0.04531475156545639,-0.1968880295753479
1700516286628101000,2.81110107421875,-0.007622765842825174,-0.015750734135508537,0.10912462323904037
1700516286638111200,2.821111328125,0.013081180863082409,0.006308229640126228,0.11040054261684418
1700516286648122000,2.8311220703125,0.03959747776389122,0.10036202520132065,0.06448657810688019
1700516286658132000,2.841132080078125,-0.030711838975548744,-0.05884973332285881,-0.08562515676021576
1700516286668142000,2.85114208984375,0.0036826191935688257,0.040821731090545654,-0.15127873420715332
1700516286678152200,2.861152099609375,-0.006551376078277826,-0.05466031655669212,0.0922234058380127
1700516286688163300,2.871163330078125,0.022179603576660156,0.036435771733522415,0.08906169980764389
1700516286698173200,2.881173095703125,-0.01684555970132351,-0.0685601532459259,-0.08717697858810425
1700516286708183300,2.891183349609375,0.010132262483239174,0.047150734812021255,-0.1859443038702011
1700516286718194200,2.901194091796875,-0.005681321490556002,-0.03531165048480034,0.12368545681238174
1700516286728204300,2.911204345703125,0.024445954710245132,-0.004393416922539473,0.08384403586387634
1700516286738214100,2.921214111328125,0.04610118269920349,0.05872057005763054,0.06812712550163269
1700516286748224300,2.931224365234375,-0.03615986928343773,-0.053524211049079895,-0.11310045421123505
1700516286758235100,2.941235107421875,0.00866326317191124,0.03749863803386688,-0.12839844822883606
1700516286768245200,2.951245361328125,-0.012598616071045399,-0.05127676948904991,0.08697085082530975
1700516286778255000,2.961255126953125,0.02303767390549183,0.03936072066426277,0.08922708034515381
1700516286788265200,2.97126513671875,-0.016109460964798927,-0.08599346876144409,-0.09540747851133347
1700516286798276000,2.981276123046875,0.015995744615793228,0.06042739003896713,-0.18187765777111053
1700516286808286200,2.9912861328125,-0.0017776599852368236,-0.025290176272392273,0.1268857717514038
1700516286818296300,3.00129638671875,0.03208975866436958,0.010686999186873436,0.08535697311162949
1700516286828307200,3.01130712890625,0.044803157448768616,0.03942969813942909,0.09571746736764908
1700516286838317000,3.021317138671875,-0.025557823479175568,-0.02456020377576351,-0.14390817284584045
1700516286848327200,3.0313271484375,0.009061938151717186,0.03189108893275261,-0.10963674634695053
1700516286858337300,3.041337158203125,-0.012472914531826973,-0.024452345445752144,0.1086103692650795
1700516286868348200,3.05134814453125,0.024329042062163353,0.041612956672906876,0.10030130296945572
1700516286878358000,3.06135791015625,-0.009515740908682346,-0.08412420004606247,-0.12615340948104858
1700516286888368000,3.0713681640625,0.013285711407661438,0.062017299234867096,-0.16422009468078613
1700516286898379000,3.08137890625,-0.002734001260250807,-0.036327116191387177,0.1440301388502121
1700516286908389000,3.09138916015625,0.029712088406085968,0.020907413214445114,0.08223841339349747
1700516286918399000,3.10139892578125,0.03863367810845375,0.0002282329078298062,0.08420302718877792
1700516286928409000,3.1114091796875,-0.0178141500800848,-0.02273966744542122,-0.17379656434059143
1700516286938420200,3.121420166015625,0.006036587059497833,0.011629225686192513,-0.07843834906816483
1700516286948430300,3.131430419921875,-0.010637730360031128,-0.021145498380064964,0.11517266184091568
1700516286958440200,3.141440185546875,0.01673104241490364,0.03689969331026077,0.08265253901481628
1700516286968451300,3.151451416015625,-0.002368615474551916,-0.07322574406862259,-0.15477412939071655
1700516286978461200,3.161461181640625,0.013910755515098572,0.054071225225925446,-0.1311902403831482
1700516286988471300,3.17147119140625,-0.001047687605023384,-0.04303455352783203,0.1533445417881012
1700516286998481200,3.181481201171875,0.01877395436167717,0.029884129762649536,0.07448115944862366
1700516287008492300,3.1914921875,0.026126408949494362,-0.03350043669342995,0.07596080750226974
1700516287018502100,3.201502197265625,-0.012597017921507359,-0.015531289391219616,-0.1907196193933487
1700516287028508700,3.2115087890625,0.001285241567529738,-0.011096326634287834,-0.04922879859805107
1700516287038519600,3.22151953125,-0.00866273045539856,-0.01607217639684677,0.12314270436763763
1700516287048529700,3.23152978515625,0.008773251436650753,0.02671230398118496,0.07273199409246445
1700516287058539500,3.24153955078125,-0.0013105415273457766,-0.06637343019247055,-0.17243808507919312
1700516287068549600,3.251549560546875,0.003971039317548275,0.05270235985517502,-0.09830419719219208
1700516287078560500,3.261560546875,-0.003510046284645796,-0.05470878630876541,0.16418494284152985
1700516287088570600,3.271570556640625,0.004327903036028147,0.06513106822967529,0.07291895151138306
1700516287098580500,3.28158056640625,0.01327159721404314,-0.0567580871284008,0.058517903089523315
1700516287108591900,3.291591796875,-0.01124892570078373,-0.008048072457313538,-0.21894726157188416
1700516287118601700,3.301601806640625,-0.0025803367607295513,-0.03008839301764965,-0.02388535812497139
1700516287128611800,3.31161181640625,-0.006101035512983799,-0.007369499187916517,0.12389078736305237
1700516287138622700,3.321622802734375,-0.001984054921194911,0.016933176666498184,0.04730812832713127
1700516287148632800,3.3316328125,0.005027248989790678,-0.05019179731607437,-0.20912551879882812
1700516287158642700,3.341642578125,0.0009973538108170033,0.03905792161822319,-0.06607462465763092
1700516287168652800,3.35165283203125,-0.010070743970572948,-0.05014386028051376,0.1679655760526657
1700516287178663700,3.36166357421875,-0.0009403621661476791,0.09664345532655716,0.07979070395231247
1700516287188673800,3.371673828125,0.0026820695493370295,-0.07373414188623428,0.02502785436809063
1700516287198683600,3.38168359375,-0.010386061854660511,0.002935868687927723,-0.22427543997764587
1700516287208694800,3.39169482421875,-0.0073231603018939495,-0.03941132128238678,0.012618323788046837
1700516287218704600,3.40170458984375,0.005360676907002926,-0.0001560612436151132,0.12655608355998993
1700516287228714800,3.41171484375,-0.019720440730452538,0.007335943635553122,0.03799052536487579
1700516287238725600,3.4217255859375,0.010306433774530888,-0.028562135994434357,-0.22525282204151154
1700516287248735700,3.43173583984375,-0.0012876383261755109,0.02622734196484089,-0.02550802379846573
1700516287258745600,3.44174560546875,-0.012053200975060463,-0.04165663197636604,0.16747555136680603
1700516287268756700,3.4517568359375,0.0004247741890139878,0.11838257312774658,0.06908372789621353
1700516287278766600,3.4617666015625,-0.006567621603608131,-0.07701701670885086,-0.015399995259940624
1700516287288776700,3.471776611328125,-0.01133920717984438,0.004396346397697926,-0.21876776218414307
1700516287298787600,3.48178759765625,-0.004427238833159208,-0.053108491003513336,0.0336567647755146
1700516287308797700,3.491797607421875,0.006141515914350748,-0.0008847020799294114,0.10778691619634628
1700516287318807600,3.5018076171875,-0.0178181454539299,-0.004800081718713045,0.01534806378185749
1700516287328818700,3.511818603515625,0.005298891570419073,-0.027303526178002357,-0.22731757164001465
1700516287338828800,3.521828857421875,-0.00046871634549461305,0.02111780270934105,-0.02165789157152176
1700516287348839000,3.5318388671875,-0.012467055581510067,-0.049908969551324844,0.14981266856193542
1700516287358849800,3.541849853515625,0.0009989517275243998,0.09143617004156113,0.052681319415569305
1700516287368859600,3.551859619140625,-0.0073351445607841015,-0.0813467875123024,-0.004454136826097965
1700516287378869800,3.561869873046875,-0.009147957898676395,0.0027835359796881676,-0.22210364043712616
1700516287388880600,3.571880615234375,-0.007250988855957985,-0.050567302852869034,0.018880214542150497
1700516287398890800,3.581890869140625,-0.005817409139126539,-0.003507383167743683,0.0953448936343193
1700516287408900900,3.59190087890625,-0.01721147820353508,-0.0006479470757767558,0.024168452247977257
1700516287418910700,3.60191064453125,0.00023329291434492916,-0.030785342678427696,-0.22465920448303223
1700516287428921600,3.611921630859375,0.004270378965884447,0.03213929384946823,-0.0315944105386734
1700516287438931700,3.621931640625,-0.020681310445070267,-0.037393443286418915,0.14380617439746857
1700516287448941800,3.63194189453125,-0.0023968450259417295,0.10183128714561462,0.08617137372493744
1700516287458952700,3.64195263671875,-0.009652361273765564,-0.054967910051345825,0.0005083974683657289
1700516287468962600,3.651962646484375,-0.010962902568280697,0.024684840813279152,-0.22549676895141602
1700516287478972700,3.66197265625,-0.006989732384681702,-0.03221279755234718,-0.0001840244367485866
1700516287488983600,3.671983642578125,-0.0011552792275324464,0.010355168953537941,0.10833632946014404
1700516287498993700,3.68199365234375,-0.01296613272279501,0.02383768931031227,0.057918425649404526
1700516287509003500,3.69200341796875,0.0032232238445430994,-0.01601305417716503,-0.20370465517044067
1700516287519014700,3.7020146484375,0.003611512714996934,0.04969431832432747,-0.051540154963731766
1700516287529024500,3.7120244140625,-0.015863651409745216,-0.029167739674448967,0.13905775547027588
1700516287539034600,3.72203466796875,0.0117338877171278,0.10023019462823868,0.08251085877418518
1700516287549045800,3.732045654296875,0.0003539340978022665,-0.04210537672042847,0.043658796697854996
1700516287559056000,3.742055908203125,-0.02720418944954872,0.035774510353803635,-0.24185417592525482
1700516287569066800,3.752066650390625,0.0028418591246008873,-0.012350942008197308,-0.012831375934183598
1700516287579076900,3.762076904296875,-0.017539046704769135,0.0315757691860199,0.11167673021554947
1700516287589086700,3.772086669921875,-0.0031670311000198126,0.05524248257279396,0.04291657358407974
1700516287599097900,3.782097900390625,-0.009288839064538479,-0.03840837627649307,-0.21641805768013
1700516287609107700,3.792107666015625,-0.0023001721128821373,0.08016354590654373,-0.08967049419879913
1700516287619117800,3.802117919921875,-0.03357100859284401,-0.04988580197095871,0.09289238601922989
1700516287629128700,3.812128662109375,-0.014159228652715683,0.05482782796025276,0.058214038610458374
1700516287639138800,3.822138916015625,-0.013285977765917778,-0.06377098709344864,0.04014821723103523
1700516287649148700,3.832148681640625,-0.025584455579519272,0.010628143325448036,-0.25366583466529846
1700516287659159600,3.84215966796875,-0.0024620923213660717,0.005380916874855757,-0.10247284173965454
1700516287669169700,3.852169677734375,-0.014907310716807842,0.018622420728206635,0.08627550303936005
1700516287679179800,3.8621796875,0.0021065603941679,0.03772527351975441,0.12045184522867203
1700516287689190700,3.872190673828125,0.013604758307337761,-0.015871906653046608,-0.15756645798683167
1700516287699200500,3.882200439453125,-0.000788561999797821,0.1292562633752823,-0.08194759488105774
1700516287709210600,3.892210693359375,-0.003483947366476059,-0.00839508231729269,0.12794624269008636
1700516287719221500,3.902221435546875,0.023076023906469345,0.13585077226161957,0.1589592844247818
1700516287729231600,3.912231689453125,0.02196921408176422,-0.019572902470827103,0.14124420285224915
1700516287739242800,3.92224267578125,-0.01269901730120182,0.05985028296709061,-0.24494343996047974
1700516287749252900,3.9322529296875,0.007419033907353878,0.039376966655254364,-0.03948775306344032
1700516287759262700,3.9422626953125,0.017246099188923836,0.056360479444265366,0.16938316822052002
1700516287769273900,3.95227392578125,0.016453541815280914,0.056050218641757965,0.11272335052490234
1700516287779283700,3.96228369140625,0.025610554963350296,0.04452459141612053,-0.21032580733299255
1700516287789293800,3.9722939453125,0.007193997036665678,0.12176930904388428,-0.0023148194886744022
1700516287799304700,3.9823046875,0.011248127557337284,0.012081696651875973,0.1678774207830429
1700516287809314800,3.992314697265625,0.015588014386594296,0.14241653680801392,0.11135075986385345
1700516287819324700,4.00232470703125,0.02779514528810978,-0.0225583054125309,0.10727452486753464
1700516287829335800,4.012335693359375,-0.006776413414627314,0.08470450341701508,-0.20231661200523376
1700516287839345700,4.022345703125,0.0040978058241307735,0.005850964691489935,0.032949693500995636
1700516287849356500,4.0323564453125,0.023572970181703568,0.05242805555462837,0.13665771484375
1700516287859366700,4.04236669921875,-0.005089300684630871,0.02816346101462841,0.04723142832517624
1700516287869376800,4.052376708984375,0.008499745279550552,0.026315759867429733,-0.1739390343427658
1700516287879387600,4.0623876953125,-0.005756955128163099,0.05898795276880264,0.04514351114630699
1700516287889397500,4.0723974609375,0.001889246515929699,0.007649663835763931,0.12798486649990082
1700516287899407600,4.08240771484375,-0.0029403960797935724,0.14357633888721466,0.06502054631710052
1700516287909418500,4.09241845703125,0.00977539923042059,-0.05486058443784714,0.057980213314294815
1700516287919428600,4.1024287109375,-0.0037822213489562273,0.049744654446840286,-0.19858233630657196
1700516287929439700,4.112439697265625,-0.004792624618858099,-0.052928727120161057,0.04265744984149933
1700516287939449900,4.122449951171875,0.017965152859687805,0.036616068333387375,0.08522115647792816
1700516287949459700,4.132459716796875,-0.029410352930426598,0.0016450346447527409,-0.012703544460237026
1700516287959470800,4.142470947265625,0.011974104680120945,-0.00586614478379488,-0.17497368156909943
1700516287969480700,4.152480712890625,-0.002853044541552663,0.018011491745710373,0.08423498272895813
1700516287979490800,4.16249072265625,-0.01270008273422718,-0.010487528517842293,0.09973005205392838
1700516287989501700,4.172501708984375,-0.0067971860989928246,0.11327462643384933,0.042342931032180786
1700516287999511800,4.18251171875,-0.011699000373482704,-0.08873199671506882,0.03657105937600136
1700516288009522700,4.192522705078125,-0.00893969926983118,0.02208213321864605,-0.19955278933048248
1700516288019532800,4.20253271484375,-0.00694845337420702,-0.03633297234773636,0.04861733689904213
1700516288029543000,4.21254296875,0.011150122620165348,0.038782548159360886,0.07335250824689865
1700516288039553800,4.2225537109375,-0.024163126945495605,-0.01387134101241827,-0.04784635081887245
1700516288049564000,4.23256396484375,0.016464194282889366,0.018202705308794975,-0.15323962271213531
1700516288059574000,4.242573974609375,0.005000617355108261,0.015187208540737629,0.12803199887275696
1700516288069585000,4.2525849609375,0.00990323070436716,0.016514262184500694,0.09158743917942047
1700516288079594800,4.2625947265625,0.02671683207154274,0.1258961409330368,0.09268919378519058
1700516288089606000,4.27260595703125,0.009153284132480621,-0.03494200482964516,0.009370598942041397
1700516288099615700,4.28261572265625,0.0022301310673356056,0.05666887015104294,-0.13970303535461426
1700516288109625900,4.2926259765625,0.0032927324064075947,-0.02153165638446808,0.06168041005730629
1700516288119636700,4.30263671875,0.020010193809866905,0.05306082218885422,0.08819324523210526
1700516288129646800,4.312646728515625,-0.011361577548086643,-0.050391003489494324,-0.07629343867301941
1700516288139658000,4.322657958984375,-0.002796319080516696,0.035344939678907394,-0.13912992179393768
1700516288149667800,4.332667724609375,0.006417952012270689,-0.01233602873980999,0.11959324032068253
1700516288159677700,4.342677734375,0.022115156054496765,0.0023643544409424067,0.04125982150435448
1700516288169688800,4.352688720703125,0.016046611592173576,0.07466331869363785,0.06091181933879852
1700516288179699000,4.362698974609375,-0.0007091998122632504,-0.06537048518657684,-0.06755507737398148
1700516288189709800,4.372709716796875,0.00005912217602599412,0.025069667026400566,-0.107871875166893
1700516288199720000,4.382719970703125,0.006473612040281296,-0.03658570721745491,0.08233242481946945
1700516288209729800,4.392729736328125,0.01889086700975895,0.015921441838145256,0.06749222427606583
1700516288219741000,4.402740966796875,-0.01008299458771944,-0.087269127368927,-0.11815992742776871
1700516288229750800,4.412750732421875,-0.0033065807074308395,0.015307051129639149,-0.11616415530443192
1700516288239762000,4.422761962890625,0.00980282947421074,-0.06292090564966202,0.1386452317237854
1700516288249771800,4.432771728515625,0.02503158338367939,-0.006441920530050993,0.02907133288681507
1700516288259782000,4.442781982421875,0.01606791652739048,-0.003210440743714571,0.07671155780553818
1700516288269792800,4.452792724609375,-0.0021015002857893705,-0.028193553909659386,-0.09909143298864365
1700516288279803000,4.462802978515625,-0.003049585735425353,-0.008086156100034714,-0.033964093774557114
1700516288289813800,4.472813720703125,0.003369697602465749,-0.01483354065567255,0.09247667342424393
1700516288299823900,4.482823974609375,0.014839665964245796,0.015510516241192818,0.06018051505088806
1700516288309833700,4.492833740234375,-0.004979312419891357,-0.06819716095924377,-0.1428184062242508
1700516288319844900,4.502844970703125,0.00007350324449362233,0.03658144548535347,-0.06621870398521423
1700516288329855000,4.51285498046875,0.011758921667933464,-0.05483448505401611,0.13046692311763763
1700516288339865900,4.522865966796875,0.021993448957800865,0.026065422222018242,0.007429154124110937
1700516288349876000,4.5328759765625,0.006607302464544773,-0.037760429084300995,0.06333369761705399
1700516288359885800,4.5428857421875,-0.005809952039271593,-0.017283648252487183,-0.129617378115654
1700516288369897000,4.55289697265625,-0.0011435613268986344,-0.004279966000467539,-0.0031824775505810976
1700516288379906800,4.56290673828125,0.0024655545130372047,0.00836765207350254,0.08729815483093262
1700516288389918000,4.57291796875,0.004851214122027159,0.014956578612327576,0.02629631944000721
1700516288399927800,4.582927734375,0.0001459412305848673,-0.05185573920607567,-0.163932204246521
1700516288409938700,4.592938720703125,-0.00481313094496727,0.03399578481912613,-0.031266044825315475
1700516288419948800,4.60294873046875,0.008129299618303776,-0.04843144863843918,0.12191445380449295
1700516288429959000,4.612958984375,-0.004357197787612677,0.049848783761262894,0.000004793690095539205
1700516288439969800,4.6229697265625,0.006163087207823992,-0.0798703283071518,0.04243001341819763
1700516288449980000,4.63297998046875,-0.013131780549883842,-0.021855497732758522,-0.15189498662948608
1700516288459990800,4.64299072265625,-0.007543403655290604,-0.02647874504327774,0.019392872229218483
1700516288470000600,4.653000732421875,-0.002360093407332897,-0.002575543010607362,0.06834577023983002
1700516288480010800,4.6630107421875,-0.004622182343155146,0.009696569293737411,0.014325941912829876
1700516288490022000,4.67302197265625,0.0094520915299654,-0.0627661794424057,-0.1637449860572815
1700516288500032000,4.683031982421875,-0.0017904432024806738,0.030946463346481323,-0.008451808243989944
1700516288510043000,4.69304296875,-0.002573412610217929,-0.0610247366130352,0.10026774555444717
1700516288520053000,4.703052978515625,-0.01690548099577427,0.061048973351716995,0.015281750820577145
1700516288530064000,4.71306396484375,0.010482468642294407,-0.06264074146747589,0.04196103289723396
1700516288540074000,4.723073974609375,-0.01992976665496826,-0.005673065781593323,-0.16280889511108398
1700516288550083800,4.733083740234375,-0.009798568673431873,-0.040523458272218704,0.03098774328827858
1700516288560094700,4.7430947265625,-0.0002788329729810357,0.01689855568110943,0.09425593167543411
1700516288570104800,4.753104736328125,-0.012597017921507359,0.015146728605031967,0.016822656616568565
1700516288580115700,4.76311572265625,0.011471034027636051,-0.030180539935827255,-0.1851821094751358
1700516288590125800,4.773125732421875,0.007976433262228966,0.03764990717172623,0.029334984719753265
1700516288600136700,4.78313671875,-0.015365906991064548,-0.03959641233086586,0.12118981033563614
1700516288610146800,4.793146728515625,-0.015168299898505211,0.08162908256053925,-0.01312112808227539
1700516288620158000,4.803157958984375,0.007216367404907942,-0.039674174040555954,0.05149541422724724
1700516288630168000,4.81316796875,-0.01145878341048956,0.022176675498485565,-0.1729464828968048
1700516288640178000,4.823177978515625,-0.0025537051260471344,-0.023553529754281044,0.04607934504747391
1700516288650188800,4.833188720703125,-0.0027832696214318275,0.03765523433685303,0.08643689006567001
1700516288660199000,4.843198974609375,-0.023861922323703766,0.02178305946290493,-0.0016735304379835725
1700516288670209800,4.853209716796875,0.017429057508707047,-0.01974121481180191,-0.18130214512348175
1700516288680220000,4.863219970703125,-0.001910019083879888,0.022942068055272102,0.053517285734415054
1700516288690230800,4.873230712890625,-0.014653777703642845,-0.003117496380582452,0.1058337539434433
1700516288700241000,4.883240966796875,-0.014080665074288845,0.12094613164663315,0.0043713124468922615
1700516288710250800,4.893250732421875,-0.0013174657942727208,-0.07224490493535995,0.014886803925037384
1700516288720262000,4.903261962890625,-0.008988169021904469,-0.003099653171375394,-0.1459878385066986
1700516288730271700,4.913271728515625,-0.011319233104586601,-0.06899291276931763,0.04276184365153313
1700516288740283000,4.923282958984375,0.0014114753575995564,0.0129349734634161,0.06505969166755676
1700516288750292700,4.933292724609375,-0.031254857778549194,-0.007131945341825485,-0.025256354361772537
1700516288760303900,4.943303955078125,0.012003932148218155,-0.009782323613762856,-0.18018202483654022
1700516288770313700,4.953313720703125,0.0008631304954178631,-0.0016170714516192675,0.05879780277609825
1700516288780324900,4.963324951171875,-0.011529623530805111,0.0003832288784906268,0.1003660187125206
1700516288790335000,4.9733349609375,0.0021603561472147703,0.12327692657709122,0.010369284078478813
1700516288800345900,4.983345947265625,-0.0014527543680742383,-0.06202422082424164,0.006376140285283327
1700516288810356000,4.99335595703125,-0.004979312419891357,0.01919393427670002,-0.1472562998533249
1700516288820365800,5.00336572265625,0.0023031015880405903,-0.05643397942185402,0.06456194818019867
1700516288830377000,5.013376953125,0.003885019337758422,0.026851320639252663,0.067086361348629
1700516288840386800,5.02338671875,-0.0215324554592371,0.0070645674131810665,-0.03646719828248024
1700516288850398000,5.03339794921875,0.008621185086667538,0.009183644317090511,-0.16470985114574432
1700516288860407800,5.04340771484375,-0.0015883093001320958,0.0027624969370663166,0.08284828066825867
1700516288870418700,5.053418701171875,-0.0002324939559912309,0.0006894923863001168,0.07557092607021332
1700516288880428800,5.0634287109375,0.025961825624108315,0.14518728852272034,-0.0006748450105078518
1700516288890439700,5.073439697265625,-0.009914948605000973,-0.09954176843166351,0.04615524411201477
1700516288900449800,5.08344970703125,0.007656854577362537,0.049362488090991974,-0.19847820699214935
1700516288910459600,5.093459716796875,-0.008137554861605167,-0.05952351540327072,0.08422459661960602
1700516288920471000,5.103470947265625,0.028614068403840065,0.028549086302518845,0.11298274248838425
1700516288930481000,5.11348095703125,-0.013586648739874363,-0.017467407509684563,-0.08949286490678787
1700516288940492000,5.123491943359375,0.012740296311676502,0.032270852476358414,-0.1544356495141983
1700516288950502000,5.133501953125,0.012203136458992958,-0.02183871902525425,0.11999405175447464
1700516288960512800,5.1435126953125,0.0211297869682312,-0.0046967510133981705,-0.01804451458156109
1700516288970523000,5.15352294921875,-0.028386633843183517,0.14922863245010376,0.3005470335483551
1700516288980533800,5.16353369140625,-0.0060027651488780975,-0.051737230271101,-0.1435054987668991
1700516288990544000,5.1735439453125,-0.022415559738874435,0.05686860904097557,-0.26863518357276917
1700516289000554800,5.1835546875,0.022403841838240623,0.10927748680114746,0.23197118937969208
1700516289010564900,5.19356494140625,0.00848296657204628,-0.1299111247062683,0.08020029962062836
1700516289020575700,5.20357568359375,-0.002401106059551239,0.049978744238615036,-0.3729325532913208
1700516289030585300,5.21358544921875,0.010671818628907204,-0.01672917976975441,0.07299058884382248
1700516289040595200,5.22359521484375,0.03681793436408043,0.09075573831796646,-0.001017593895085156
1700516289050606300,5.2336064453125,0.060016997158527374,-0.18833449482917786,0.35094764828681946
1700516289060616200,5.2436162109375,0.04549051821231842,0.04508651793003082,-0.37663382291793823
1700516289070627300,5.25362744140625,-0.03337633237242699,0.019240273162722588,-0.049918290227651596
1700516289080637200,5.26363720703125,0.05643584579229355,-0.023856597021222115,0.30693385004997253
1700516289090648000,5.27364794921875,-0.03151930868625641,-0.029049228876829147,-0.16602705419063568
1700516289100658200,5.283658203125,0.006687996443361044,0.02876986190676689,-0.12286174297332764
1700516289110669000,5.2936689453125,-0.0013936321483924985,0.09990635514259338,0.2166105955839157
1700516289120679200,5.30367919921875,0.02774268202483654,-0.10294848680496216,0.08612343668937683
1700516289130690000,5.31368994140625,0.0300857312977314,0.027272634208202362,-0.18290136754512787
1700516289140700200,5.3237001953125,-0.0009171926649287343,0.008069911040365696,0.11128205060958862
1700516289150711300,5.333711181640625,0.03162823244929314,-0.021734856069087982,-0.06408071517944336
1700516289160721400,5.343721435546875,-0.034325748682022095,0.02791418880224228,-0.03363572433590889
1700516289170732300,5.353732177734375,0.02039368823170662,0.027247067540884018,0.04518931731581688
1700516289180742100,5.3637421875,-0.03676547110080719,-0.05062855780124664,0.11319340020418167
1700516289190753300,5.373753173828125,-0.005733785685151815,0.08014783263206482,-0.17984113097190857
1700516289200763100,5.38376318359375,-0.011577560566365719,0.04356798529624939,0.1414836347103119
1700516289210774300,5.393774169921875,0.0023065637797117233,0.011596468277275562,0.10979121178388596
1700516289220784000,5.4037841796875,-0.02269572578370571,0.02016492374241352,-0.23069259524345398
1700516289230795300,5.413795166015625,0.022840334102511406,-0.014227671548724174,0.04374481737613678
1700516289240805000,5.42380517578125,0.004378769546747208,0.09009314328432083,0.1452336311340332
1700516289250815200,5.433815185546875,0.013004481792449951,-0.1278674155473709,-0.06352704763412476
1700516289260826000,5.443826171875,0.04340233653783798,0.018860772252082825,-0.23564821481704712
1700516289270836200,5.453836181640625,0.018871426582336426,0.006158293690532446,0.24446088075637817
1700516289280847000,5.46384716796875,0.012658271007239819,-0.10072048753499985,-0.04825061932206154
1700516289290857000,5.47385693359375,-0.038070954382419586,0.05390584096312523,-0.1618775874376297
1700516289300868400,5.483868408203125,0.01936783827841282,-0.015973640605807304,0.06523998826742172
1700516289310878200,5.493878173828125,-0.04917367175221443,-0.11684539169073105,0.2148830145597458
1700516289320889300,5.503889404296875,-0.02624491974711418,0.06252569705247879,-0.3084084391593933
1700516289330899200,5.513899169921875,-0.031682029366493225,0.049798715859651566,0.023988956585526466
1700516289340910000,5.52391015625,-0.017221864312887192,0.025584721937775612,0.1263427585363388
1700516289350920200,5.533920166015625,-0.023923708125948906,-0.030671626329421997,-0.23749777674674988
1700516289360931000,5.54393115234375,0.0023824640084058046,-0.0043654534965753555,-0.06072966009378433
1700516289370941200,5.553941162109375,0.018271947279572487,0.2105676233768463,0.14219948649406433
1700516289380952000,5.5639521484375,-0.023516511544585228,-0.3437128961086273,0.012280101887881756
1700516289390962200,5.573962158203125,-0.024086160585284233,0.2530413269996643,-0.4481724500656128
1700516289400973000,5.58397314453125,-0.024392956867814064,0.12973855435848236,0.2609522342681885
1700516289410983200,5.593983154296875,0.006199306342750788,-0.1198158860206604,-0.047077495604753494
1700516289420994300,5.603994384765625,-0.07208271324634552,0.07604123651981354,-0.1723344773054123
1700516289431004200,5.614004150390625,0.05795011669397354,0.23910419642925262,-0.012248676270246506
1700516289441015300,5.624015380859375,-0.058278486132621765,-0.36909016966819763,0.351993203163147
1700516289451025200,5.634025146484375,-0.03876524046063423,0.14535106718540192,-0.44669148325920105
1700516289461036300,5.644036376953125,-0.023815849795937538,0.11639052629470825,0.30641239881515503
1700516289471046100,5.654046142578125,0.019478093832731247,-0.13429255783557892,0.05498628690838814
1700516289481057300,5.664057373046875,-0.056592438369989395,0.024341026321053505,-0.20932206511497498
1700516289491067100,5.674067138671875,0.05219050124287605,0.3282119631767273,0.22059042751789093
1700516289501078000,5.684078125,0.06347111612558365,-0.556266725063324,0.3622799217700958
1700516289511088000,5.694088134765625,-0.046423956751823425,0.2080751657485962,-0.31198054552078247
1700516289521099000,5.70409912109375,0.06040448695421219,-0.0749509409070015,0.3004045784473419
1700516289531109000,5.714109130859375,-0.01092481892555952,0.060978930443525314,-0.0919317901134491
1700516289541120300,5.724120361328125,-0.06967228651046753,-0.0684371143579483,-0.03382241353392601
1700516289551130400,5.73413037109375,0.04045474901795387,-0.004265584982931614,0.10618742555379868
1700516289561141200,5.744141357421875,-0.055005993694067,0.003637611633166671,-0.21806655824184418
1700516289571151400,5.7541513671875,-0.152780219912529,0.20008967816829681,0.17959772050380707
1700516289581162200,5.764162353515625,0.058938685804605484,-0.09039860218763351,-0.03453507274389267
1700516289591172000,5.774172119140625,-0.09372463077306747,-0.05607977882027626,0.11596415191888809
1700516289601183200,5.784183349609375,0.030666565522551537,-0.017649034038186073,0.5531817078590393
1700516289611193000,5.794193115234375,-0.037879738956689835,-0.010852914303541183,-0.41592398285865784
1700516289621204200,5.804204345703125,-0.15604285895824432,0.1796501874923706,0.0378405898809433
1700516289631214000,5.814214111328125,0.15724554657936096,-0.20160768926143646,-0.23308731615543365
1700516289641225200,5.82422509765625,-0.10339376330375671,0.05880419537425041,-0.30930113792419434
1700516289651235000,5.834235107421875,0.05868621543049812,0.03461070731282234,0.486708402633667
1700516289661246200,5.84424609375,0.02305658347904682,0.03604907914996147,-0.4501834213733673
1700516289671256300,5.85425634765625,-0.10185499489307404,0.25289058685302734,0.2607141435146332
1700516289681267200,5.86426708984375,0.13799647986888885,-0.19549892842769623,0.10011541843414307
1700516289691277300,5.87427734375,-0.06409509479999542,0.09437816590070724,-0.396336168050766
1700516289701288200,5.8842880859375,-0.005815544631332159,-0.16877144575119019,0.5232033133506775
1700516289711299000,5.894299072265625,0.0056954361498355865,-0.3433224856853485,-0.5239670872688293
1700516289721309200,5.90430908203125,-0.1654811054468155,0.5405972003936768,0.23487083613872528
1700516289731320000,5.914320068359375,0.005937251262366772,-0.5675166845321655,0.4948267638683319
1700516289741330200,5.924330078125,-0.08370368182659149,0.48926183581352234,-0.0806644856929779
1700516289751341000,5.934341064453125,0.05504860356450081,-0.40580183267593384,0.6739278435707092
1700516289761351200,5.94435107421875,-0.01872122287750244,-0.27184855937957764,-0.5860664248466492
1700516289771362300,5.9543623046875,-0.12321007996797562,0.9027420878410339,-0.2198583334684372
1700516289781372200,5.9643720703125,0.030821295455098152,-1.020401120185852,-0.019878633320331573
1700516289791383300,5.97438330078125,-0.026853451505303383,1.0231939554214478,-0.3562675714492798
1700516289801393200,5.98439306640625,0.043711259961128235,-0.7065560817718506,0.38157904148101807
1700516289811404300,5.994404296875,0.08764249831438065,0.3633806109428406,-0.41588908433914185
1700516289821414100,6.0044140625,0.026437733322381973,-0.000022370553779182956,0.33273401856422424
1700516289831425300,6.01442529296875,0.045466817915439606,-0.2228221595287323,-0.16824041306972504
1700516289841435100,6.02443505859375,-0.011902998201549053,0.5774878263473511,0.5136657357215881
1700516289851446300,6.0344462890625,0.032523322850465775,-0.7332241535186768,0.30642223358154297
1700516289861456100,6.0444560546875,-0.032950226217508316,0.5721774697303772,0.12580932676792145
1700516289871467000,6.054467041015625,0.009770872071385384,-0.46385979652404785,0.36586639285087585
1700516289881477000,6.06447705078125,-0.02315698377788067,0.25353747606277466,-0.4712604582309723
1700516289891488000,6.074488037109375,0.02894030511379242,-0.12267718464136124,0.032107602804899216
1700516289901498000,6.084498046875,0.005816077347844839,-0.5600244402885437,-0.7273849248886108
1700516289911509200,6.09450927734375,-0.05732587352395058,0.691892683506012,-0.20644265413284302
1700516289921520000,6.10452001953125,-0.004190217703580856,-0.6156591773033142,0.19300620257854462
1700516289931530200,6.1145302734375,0.004999552387744188,0.5760042071342468,0.02570056915283203
1700516289941541000,6.124541015625,0.018197113648056984,-0.36313027143478394,0.4666990041732788
1700516289951551200,6.13455126953125,-0.015106781385838985,-0.23193655908107758,-0.4139963686466217
1700516289961562000,6.14456201171875,0.03904220834374428,0.316468745470047,-0.20532892644405365
1700516289971572200,6.154572265625,0.05486990511417389,-0.5418046712875366,-0.4674958288669586
1700516289981583000,6.1645830078125,0.007527424953877926,0.6499266028404236,0.0007225155713967979
1700516289991593200,6.17459326171875,-0.029923010617494583,-0.5751751661300659,0.1798190325498581
1700516290001604000,6.18460400390625,0.028121914714574814,0.6635172367095947,0.31218665838241577
1700516290011614200,6.1946142578125,0.016800817102193832,-0.34125426411628723,0.6850113868713379
1700516290021625300,6.204625244140625,-0.0494527705013752,0.15658508241176605,0.0673886314034462
1700516290031635200,6.21463525390625,0.03582004830241203,-0.3221402168273926,0.12366468459367752
1700516290041646300,6.224646240234375,0.027517644688487053,-0.0992773175239563,-0.821592390537262
1700516290051657200,6.2346572265625,-0.06256404519081116,0.30820149183273315,-0.27758073806762695
1700516290061667300,6.244667236328125,0.04891347885131836,-0.49571067094802856,-0.07160414755344391
1700516290071678500,6.254678466796875,-0.04560157284140587,0.54655921459198,0.4453985095024109
1700516290081688300,6.264688232421875,-0.032172851264476776,-0.6994107961654663,0.3785534203052521
1700516290091699500,6.274699462890625,0.07085846364498138,0.6120373010635376,-0.10023951530456543
1700516290101709300,6.284709228515625,-0.023360716179013252,-0.4297313988208771,0.1442224234342575
1700516290111720400,6.294720458984375,0.035527367144823074,0.2819765508174896,-0.21506810188293457
1700516290121730300,6.304730224609375,0.04448810592293739,-0.45028939843177795,0.3542560935020447
1700516290131741200,6.3147412109375,0.04981602728366852,0.053409695625305176,-0.3055066466331482
1700516290141751300,6.324751220703125,0.06359149515628815,0.1256503313779831,0.15163026750087738
1700516290151762200,6.33476220703125,0.012525911442935467,-0.10400097072124481,-0.0027017768006771803
1700516290161773300,6.344773193359375,0.036193158477544785,0.3866718113422394,0.4142696261405945
1700516290171783200,6.354783203125,0.02155189774930477,-0.33455294370651245,0.02761112153530121
1700516290181794300,6.364794189453125,-0.03079892508685589,0.5464955568313599,0.19948647916316986
1700516290191804400,6.374804443359375,-0.06300772726535797,-0.3302748501300812,0.4183647632598877
1700516290201815300,6.384815185546875,-0.04360499978065491,0.3913254141807556,0.035414449870586395
1700516290211825400,6.394825439453125,-0.018736936151981354,-0.703688383102417,0.1075911745429039
1700516290221836300,6.404836181640625,-0.046237535774707794,0.4329761862754822,-0.5325310230255127
1700516290231846400,6.414846435546875,-0.06770660728216171,-0.412291944026947,0.10830703377723694
1700516290241857300,6.424857177734375,-0.05048474669456482,0.16333912312984467,-0.35159745812416077
1700516290251868200,6.4348681640625,0.07133729755878448,-0.5367947220802307,-0.13480468094348907
1700516290261878300,6.444878173828125,0.021326327696442604,0.00905394833534956,-0.9300104379653931
1700516290271889200,6.45488916015625,-0.0005589975044131279,0.0157744362950325,-0.4878509044647217
1700516290281899300,6.464899169921875,0.07488595694303513,-0.5367204546928406,-0.6011945009231567
1700516290291910400,6.474910400390625,0.09169236570596695,0.3674432635307312,-0.05330636352300644
1700516290301920500,6.48492041015625,0.1415800303220749,-0.592284083366394,-0.2422429919242859
1700516290311931400,6.494931396484375,-0.04755500331521034,0.5967925786972046,-0.24465209245681763
1700516290321941200,6.504941162109375,0.019638415426015854,-0.3671119511127472,0.27055132389068604
1700516290331952400,6.514952392578125,0.03356488421559334,0.7326486706733704,0.5523425340652466
1700516290341963300,6.52496337890625,-0.01926370896399021,-0.2044956237077713,0.24217109382152557
1700516290351973400,6.534973388671875,-0.013944577425718307,0.5603384375572205,0.6279507279396057
1700516290361984300,6.544984375,-0.06364315748214722,0.05824200063943863,0.7115516066551208
1700516290371994400,6.554994384765625,-0.004566788673400879,0.3772040009498596,0.855954110622406
1700516290382005200,6.565005126953125,0.05057023465633392,-0.18170028924942017,0.10431095957756042
1700516290392015000,6.57501513671875,-0.0194927416741848,0.26376107335090637,-0.08702677488327026
1700516290402026500,6.585026611328125,-0.035534556955099106,-0.17504797875881195,-0.13898664712905884
1700516290412037400,6.595037353515625,0.06920570135116577,0.07581247389316559,0.05663105472922325
1700516290422047500,6.605047607421875,-0.02840208075940609,-0.057429470121860504,-0.41117769479751587
1700516290432058400,6.615058349609375,0.023857396095991135,0.03779717907309532,-0.14722514152526855
1700516290442068200,6.625068115234375,-0.0016913736471906304,-0.3967899680137634,-0.3700134754180908
1700516290452079400,6.635079345703125,0.01926051266491413,0.19502727687358856,-0.10644149035215378
1700516290462089200,6.645089111328125,0.04447319358587265,-0.9242641925811768,-0.7258583903312683
1700516290472100400,6.655100341796875,-0.021705562248826027,0.57667076587677,-0.2952766418457031
1700516290482111200,6.665111328125,0.015483352355659008,-0.7850325107574463,-0.5268464684486389
1700516290492121300,6.675121337890625,0.0356416180729866,0.596470296382904,0.23259089887142181
1700516290502132500,6.685132568359375,0.0667920783162117,-0.8261120319366455,-0.34017327427864075
1700516290512142300,6.695142333984375,-0.10576318204402924,0.20505034923553467,-0.2932087182998657
1700516290522153500,6.705153564453125,0.005380384158343077,-0.004090082831680775,0.031188812106847763
1700516290532163300,6.715163330078125,0.04282869026064873,0.057384464889764786,0.2055361121892929
1700516290542174500,6.725174560546875,0.004304999951273203,-0.07928283512592316,-0.26953133940696716
1700516290552185300,6.735185302734375,-0.0036796897184103727,0.07692727446556091,0.5757961869239807
1700516290562195200,6.7451953125,-0.032952092587947845,0.4914783835411072,0.616485595703125
1700516290572206300,6.755206298828125,0.0848858654499054,-0.5059244632720947,0.17109452188014984
1700516290582216200,6.76521630859375,0.0070158313028514385,0.8384909629821777,-0.08720121532678604
1700516290592227300,6.775227294921875,0.0003347593592479825,-0.3324618339538574,0.3533434271812439
1700516290602237200,6.7852373046875,0.016234630718827248,0.20311343669891357,0.5559974312782288
1700516290612248300,6.795248291015625,0.06757904589176178,-0.05146079510450363,-0.22771066427230835
1700516290622259500,6.805259521484375,0.0531308613717556,-0.08386161178350449,-0.0692504420876503
1700516290632269300,6.815269287109375,-0.0957755297422409,0.0649166852235794,-0.027647340670228004
1700516290642280400,6.825280517578125,0.16548563539981842,-0.4205051362514496,0.03964062035083771
1700516290652290300,6.835290283203125,-0.031735293567180634,0.31684213876724243,-0.1839490681886673
1700516290662301200,6.84530126953125,-0.05813387781381607,-0.21424971520900726,0.4167575538158417
1700516290672312300,6.855312255859375,-0.03249296173453331,0.5180553793907166,0.46725401282310486
1700516290682322200,6.865322265625,0.15463031828403473,-0.6681881546974182,-0.1164373978972435
1700516290692333300,6.875333251953125,-0.08481555432081223,0.39548608660697937,-0.09075014293193817
1700516290702343200,6.88534326171875,-0.10118813812732697,-0.053165215998888016,0.1151106134057045
1700516290712354300,6.895354248046875,0.1440298706293106,-0.3318197429180145,0.2214977741241455
1700516290722365400,6.905365478515625,-0.10040543228387833,0.3529074490070343,-0.4174518287181854
1700516290732375300,6.915375244140625,-0.03959641233086586,-0.1680702269077301,0.03880305588245392
1700516290742386400,6.925386474609375,-0.07349658757448196,0.1434442400932312,-0.14765922725200653
1700516290752396300,6.935396240234375,0.11653034389019012,-0.8429208397865295,-0.36538437008857727
1700516290762407400,6.945407470703125,-0.053519152104854584,0.4325828552246094,-0.891228437423706
1700516290772418300,6.955418212890625,-0.09143804013729095,-0.4211727976799011,-0.6007156372070312
1700516290782428200,6.96542822265625,-0.025194035843014717,0.07691741734743118,-0.04445694759488106
1700516290792439300,6.975439208984375,0.015484417788684368,-0.02394101954996586,-0.07836271822452545
1700516290802449200,6.98544921875,0.09610283374786377,0.2374221384525299,0.4158017337322235
1700516290812460500,6.99546044921875,0.043537091463804245,0.35122302174568176,0.39053207635879517
1700516290822471400,7.005471435546875,0.15744981169700623,-0.43408939242362976,0.4379078447818756
1700516290832481300,7.015481201171875,-0.043525904417037964,0.8140955567359924,0.24737250804901123
1700516290842492400,7.025492431640625,0.03825337812304497,-0.3620748519897461,0.387334406375885
1700516290852502300,7.035502197265625,0.03600034490227699,0.11895381659269333,0.17653055489063263
1700516290862513400,7.045513427734375,-0.08759509772062302,0.13522040843963623,-0.31502506136894226
1700516290872524300,7.055524169921875,0.01606392115354538,-0.06349082291126251,0.257514625787735
1700516290882534100,7.0655341796875,-0.07464733719825745,0.13587261736392975,0.13350000977516174
1700516290892545300,7.075545166015625,0.1366417407989502,-1.0374218225479126,-0.26204973459243774
1700516290902555100,7.08555517578125,-0.0801108181476593,0.6626560091972351,-0.49623507261276245
1700516290912566500,7.09556640625,-0.029526732861995697,-0.39659979939460754,0.006854976527392864
1700516290922577400,7.105577392578125,0.07654085010290146,0.20985043048858643,0.2712315022945404
1700516290932587300,7.115587158203125,0.012531237676739693,-0.21755576133728027,-0.22309912741184235
1700516290942598400,7.125598388671875,0.17111556231975555,0.2037818878889084,0.027231354266405106
1700516290952608300,7.135608154296875,-0.022977488115429878,0.4772872030735016,0.2830711305141449
1700516290962619400,7.145619384765625,0.10097348690032959,-0.12407507747411728,0.45095252990722656
1700516290972630300,7.15563037109375,0.10048985481262207,0.4360601305961609,0.3165521025657654
1700516290982640400,7.165640380859375,-0.02690378576517105,-0.10475996881723404,0.35898345708847046
1700516290992651300,7.1756513671875,0.13832086324691772,-0.17797638475894928,0.4920320510864258
1700516291002661000,7.1856611328125,-0.0784015953540802,0.6559730768203735,-0.1909550428390503
1700516291012672500,7.195672607421875,-0.011945342645049095,-0.39913061261177063,0.17134246230125427
1700516291022683400,7.205683349609375,-0.022340459749102592,0.23834386467933655,0.011599930934607983
1700516291032693200,7.215693359375,-0.02888304740190506,-0.3731999397277832,-0.6927688717842102
1700516291042704400,7.225704345703125,0.0013070794520899653,0.5145980715751648,-0.5289591550827026
1700516291052715300,7.23571533203125,-0.06173846498131752,-1.7794044017791748,-1.4837250709533691
1700516291062725400,7.245725341796875,-0.05792881175875664,-0.031328361481428146,0.5915096402168274
1700516291072736300,7.255736328125,0.07644204050302505,0.17592602968215942,0.5872171521186829
1700516291082746400,7.265746337890625,0.09120581299066544,-0.39010781049728394,0.577929675579071
1700516291092757200,7.27575732421875,-0.0735088363289833,-0.08870137482881546,0.24071380496025085
1700516291102768000,7.28576806640625,-0.08642197400331497,-0.5235926508903503,-1.0193305015563965
1700516291112778200,7.2957783203125,-0.027347467839717865,1.4100759029388428,-0.34007635712623596
1700516291122789000,7.3057890625,-0.022097844630479813,-0.48598402738571167,0.37986689805984497
1700516291132800300,7.31580029296875,0.04831346869468689,-0.06885842978954315,0.5620611906051636
1700516291142810400,7.325810302734375,0.04394801706075668,0.42874255776405334,0.38232314586639404
1700516291152821200,7.3358212890625,-0.020974257960915565,-0.22761692106723785,0.31019914150238037
1700516291162831400,7.345831298828125,0.026996729895472527,0.2016763985157013,0.3529522120952606
1700516291172842200,7.35584228515625,-0.0035952674224972725,0.03857535496354103,-0.24717330932617188
1700516291182853000,7.36585302734375,0.0610327273607254,-0.183282732963562,-0.09431984275579453
1700516291192863200,7.37586328125,-0.07453814893960953,0.26119643449783325,-0.0650506392121315
1700516291202874000,7.3858740234375,0.12197304517030716,-0.7865238785743713,-0.398536741733551
1700516291212885200,7.39588525390625,0.011965050362050533,0.4280293583869934,-0.6449776887893677
1700516291222895000,7.40589501953125,-0.012583436444401741,-0.3432321846485138,-0.3990398049354553
1700516291232906200,7.41590625,0.18675683438777924,0.06016426905989647,-0.06127214431762695
1700516291242916400,7.425916259765625,0.055447544902563095,0.16210821270942688,-0.2357560694217682
1700516291252927200,7.43592724609375,0.0013542174128815532,0.334396630525589,0.40858402848243713
1700516291262938400,7.4459384765625,-0.04508412256836891,0.4180976450443268,0.8483222723007202
1700516291272948200,7.4559482421875,0.028014590963721275,-0.097086600959301,0.3780546188354492
1700516291282959000,7.465958984375,0.09093816578388214,0.512040376663208,0.19615645706653595
1700516291292970200,7.47597021484375,-0.0800333172082901,-0.057975683361291885,0.03220773860812187
1700516291302980000,7.48597998046875,0.10364677011966705,-0.3058778941631317,-0.039264582097530365
1700516291312991200,7.4959912109375,-0.07862424105405807,0.3852856457233429,-0.15812945365905762
1700516291323002400,7.50600244140625,-0.021149760112166405,-0.4868655204772949,0.05786915868520737
1700516291333012200,7.51601220703125,0.058519501239061356,0.21189281344413757,-0.11973332613706589
1700516291343023400,7.5260234375,0.047796282917261124,-0.48543861508369446,-0.5554714798927307
1700516291353033200,7.536033203125,0.024223048239946365,0.2375531643629074,-0.55268394947052
1700516291363044400,7.54604443359375,-0.06432119756937027,-0.0484013557434082,-0.048294030129909515
1700516291373055200,7.55605517578125,0.15811213850975037,-0.5609133839607239,-0.05584116280078888
1700516291383065300,7.5660654296875,-0.017919078469276428,0.5033110976219177,-0.33517107367515564
1700516291393076200,7.576076171875,-0.019277824088931084,-0.3301986753940582,-0.151078999042511
1700516291403087000,7.586087158203125,0.03417927399277687,0.1307833194732666,-0.15705007314682007
1700516291413097200,7.59609716796875,-0.008942095562815666,-0.48076048493385315,-0.8703623414039612
1700516291423108400,7.6061083984375,-0.0710507407784462,0.26394563913345337,-0.32085365056991577
1700516291433119200,7.616119140625,-0.0323914960026741,-0.19906356930732727,-0.5655393004417419
1700516291443129300,7.62612939453125,-0.00926353968679905,-0.19187675416469574,-0.2457229495048523
1700516291453140200,7.63614013671875,0.07127657532691956,0.3326317369937897,-0.04048750549554825
1700516291463151000,7.646151123046875,0.028356008231639862,-0.16757994890213013,0.34175732731819153
1700516291473161200,7.6561611328125,0.08124612271785736,0.3116023540496826,0.8430899381637573
1700516291483172000,7.666172119140625,0.1100977435708046,0.5750116109848022,0.42553532123565674
1700516291493183200,7.676183349609375,0.15345905721187592,0.37590545415878296,0.8227851986885071
1700516291503193000,7.686193115234375,-0.011712849140167236,0.45483434200286865,0.9395589828491211
1700516291513204200,7.696204345703125,0.04940882697701454,-0.14366662502288818,0.2120925486087799
1700516291523214300,7.70621435546875,0.012501676566898823,0.12295335531234741,0.1736503541469574
1700516291533225200,7.71622509765625,-0.11421099305152893,0.12300208956003189,-0.07347315549850464
1700516291543236400,7.726236328125,0.09355924278497696,-0.8824112415313721,-0.07304517924785614
1700516291553246200,7.73624609375,-0.026812706142663956,0.2825944125652313,-0.32379990816116333
1700516291563257300,7.74625732421875,0.0661153718829155,-0.48930737376213074,-0.24166375398635864
1700516291573268200,7.756268310546875,0.138974130153656,0.08024583756923676,0.12014451622962952
1700516291583278000,7.766278076171875,0.0707109197974205,0.15936648845672607,-0.03911198303103447
1700516291593289200,7.776289306640625,0.16765530407428741,-0.2912251949310303,0.35285285115242004
1700516291603300400,7.78630029296875,0.030834078788757324,0.3903871774673462,0.07824713736772537
1700516291613310500,7.796310546875,0.2087382972240448,-0.4597302973270416,-0.4100983142852783
1700516291623321300,7.8063212890625,-0.020204603672027588,0.6572502851486206,-0.24377484619617462
1700516291633332200,7.816332275390625,-0.08890750259160995,-0.463514119386673,-0.07378021627664566
1700516291643342300,7.82634228515625,-0.07922770828008652,-0.16364219784736633,-0.2464105784893036
1700516291653353200,7.836353271484375,-0.12764078378677368,-0.36805659532546997,-0.7819717526435852
1700516291663364000,7.846364013671875,-0.07078522443771362,0.12676993012428284,-0.5438377261161804
1700516291673374200,7.856374267578125,-0.13528192043304443,-0.0725058913230896,-0.09381890296936035
1700516291683385000,7.866385009765625,0.040476053953170776,-0.48455601930618286,-0.031746745109558105
1700516291693396200,7.876396240234375,0.007303453050553799,0.37400129437446594,-0.0247277170419693
1700516291703406300,7.88640625,-0.03207005187869072,-0.23302365839481354,0.3251277506351471
1700516291713417200,7.896417236328125,0.013706224970519543,0.08267863094806671,0.5743229389190674
1700516291723428400,7.906428466796875,0.06078105792403221,0.5695119500160217,0.5786428451538086
1700516291733438200,7.916438232421875,0.15729215741157532,-0.00689092930406332,0.8077535033226013
1700516291743449000,7.926448974609375,0.030702784657478333,0.5907953977584839,0.7120442986488342
1700516291753460200,7.936460205078125,0.06379842013120651,-0.2893623113632202,0.17759981751441956
1700516291763470000,7.946469970703125,0.08135078102350235,0.2050924301147461,0.0008713863207958639
1700516291773481200,7.956481201171875,-0.03518328815698624,0.3037654757499695,-0.09289238601922989
1700516291783492400,7.966492431640625,0.16811524331569672,-0.7412024736404419,0.02557673305273056
1700516291793502200,7.976502197265625,0.0076209018006920815,0.6630730628967285,-0.16027116775512695
1700516291803513300,7.986513427734375,-0.00008681904728291556,-0.43903622031211853,0.09273286908864975
1700516291813524200,7.996524169921875,0.08114837855100632,-0.03777534142136574,0.14403679966926575
1700516291823534300,8.006534423828125,-0.02040993422269821,0.2071973979473114,-0.3292761743068695
1700516291833545200,8.016545166015625,0.025233451277017593,-0.2594563364982605,0.014306501485407352
1700516291843556000,8.02655615234375,-0.054606255143880844,0.24603693187236786,0.23215892910957336
1700516291853566200,8.036566162109375,0.12898248434066772,-0.8752952814102173,-0.2708389461040497
1700516291863577000,8.0465771484375,-0.1523040533065796,0.39309215545654297,-0.613881528377533
1700516291873588200,8.056588134765626,-0.11094702035188675,-0.3779688775539398,-0.3503393828868866
1700516291883598300,8.066598388671874,-0.021496502682566643,0.004886900540441275,0.03285355493426323
1700516291893609200,8.076609130859374,-0.11272627860307693,-0.1384609341621399,-0.23417387902736664
1700516291903620400,8.086620361328125,-0.057200171053409576,0.12301646918058395,0.36192891001701355
1700516291913630200,8.096630126953125,-0.11255903542041779,0.20789115130901337,0.5964722037315369
1700516291923641000,8.10664111328125,-0.03164208307862282,-0.4292259216308594,0.2483847737312317
1700516291933652200,8.11665234375,-0.037458691745996475,0.6180312633514404,0.017714815214276314
1700516291943662000,8.126662109375,-0.12266173958778381,-0.2265721559524536,0.1906362622976303
1700516291953673200,8.136673095703125,0.05564195662736893,-0.1976555585861206,0.1269422322511673
1700516291963684400,8.146684326171876,-0.09435153752565384,0.4829573333263397,-0.22531381249427795
1700516291973694200,8.156694091796876,-0.006420082412660122,-0.5164095759391785,-0.08754875510931015
1700516291983705300,8.166705322265624,-0.07854408025741577,0.3456468880176544,-0.2821989357471466
1700516291993716200,8.17671630859375,-0.003867442486807704,-0.46119424700737,-0.6415083408355713
1700516292003727000,8.18672705078125,0.061713431030511856,0.19848832488059998,-0.6315662264823914
1700516292013737200,8.1967373046875,-0.09218399226665497,-0.3482149541378021,-0.6327071785926819
1700516292023748000,8.206748046875,0.07541779428720474,0.05385550856590271,-0.03357553854584694
1700516292033759000,8.216759033203125,0.06819343566894531,0.3168112337589264,0.14748533070087433
1700516292043768800,8.226768798828125,0.16093268990516663,-0.06471960991621017,0.4277806282043457
1700516292053780000,8.236780029296876,0.025368206202983856,0.6492067575454712,0.8175643682479858
1700516292063791000,8.246791015625,0.10297272354364395,-0.019348930567502975,0.28332623839378357
1700516292073801000,8.256801025390626,0.07412802428007126,0.524894654750824,0.25943049788475037
1700516292083812000,8.26681201171875,-0.060375191271305084,0.2798396348953247,0.3262276351451874
1700516292093823000,8.276822998046875,0.1642262190580368,-0.49086666107177734,0.13128824532032013
1700516292103833000,8.2868330078125,-0.08547282218933105,0.7842617630958557,-0.3226933479309082
1700516292113844000,8.296843994140625,0.02299266681075096,-0.7291277050971985,0.16466005146503448
1700516292123854800,8.306854736328125,0.032096683979034424,0.31414568424224854,-0.06323755532503128
1700516292133865000,8.316864990234375,-0.04223081097006798,-0.08286026120185852,-0.650713324546814
1700516292143875800,8.326875732421875,0.09075254201889038,-0.14882250130176544,-0.20525887608528137
1700516292153887000,8.336886962890626,-0.03068281151354313,0.17264634370803833,-0.1818488985300064
1700516292163898000,8.346898193359374,0.21820610761642456,-0.559255063533783,-0.5079886317253113
1700516292173908000,8.356907958984374,0.022431006655097008,0.5607115030288696,-0.1925678551197052
1700516292183918800,8.3669189453125,0.06890875846147537,-0.32918107509613037,-0.07596613466739655
1700516292193930000,8.376929931640625,0.12022494524717331,0.26571714878082275,0.0314687117934227
1700516292203939800,8.38693994140625,0.04526069015264511,-0.16051670908927917,-0.33785632252693176
1700516292213951000,8.396950927734375,0.11588612198829651,0.04676324501633644,-0.28407514095306396
1700516292223961900,8.4069619140625,-0.05108022689819336,0.3378238379955292,-0.05763187259435654
1700516292233971700,8.4169716796875,0.05276068300008774,-0.6620059013366699,-0.06568766385316849
1700516292243983000,8.426983154296876,-0.028560005128383636,0.3387426435947418,-0.04778856039047241
1700516292253994000,8.436993896484376,-0.07975368201732635,-0.7972963452339172,0.010387926362454891
1700516292264004900,8.4470048828125,-0.0397370271384716,-0.07691395282745361,-0.10738611221313477
1700516292274015000,8.457014892578124,0.006457632873207331,0.5839252471923828,-0.7684500813484192
1700516292284025900,8.46702587890625,0.1069357693195343,0.8182469010353088,0.42673933506011963
1700516292294037000,8.477037109375,0.00737242866307497,0.27964308857917786,1.3918275833129883
1700516292304046800,8.487046875,0.17040635645389557,-0.2620888650417328,0.9279787540435791
1700516292314057700,8.4970576171875,0.010470218025147915,0.5339329242706299,0.5358298420906067
1700516292324069000,8.507069091796875,0.028386101126670837,-0.2772795557975769,0.11805552989244461
1700516292334079000,8.517078857421875,0.05308905243873596,-0.027630029246211052,0.15557414293289185
1700516292344090000,8.527090087890626,-0.039330895990133286,0.2803989052772522,-0.09677474945783615
1700516292354101000,8.53710107421875,0.0452127531170845,-0.8953848481178284,0.22454522550106049
1700516292364112000,8.54711181640625,-0.025737054646015167,0.25551778078079224,0.019474897533655167
1700516292374122000,8.5571220703125,0.0004415521107148379,-0.8620948195457458,-0.5177009105682373
1700516292384132900,8.5671328125,0.06087107211351395,0.24537993967533112,-0.6539690494537354
1700516292394143700,8.577143798828125,-0.03605733811855316,-0.24783003330230713,-0.3514898717403412
1700516292404153900,8.58715380859375,0.17859317362308502,-0.2882208824157715,0.11611675471067429
1700516292414165000,8.5971650390625,0.0074619110673666,0.4312041401863098,-0.2515592575073242
1700516292424175900,8.60717578125,0.0348312184214592,-0.0914367064833641,0.5059548020362854
1700516292434186000,8.61718603515625,0.04441380500793457,0.5090264678001404,0.48075196146965027
1700516292444196900,8.62719677734375,0.006941795814782381,-0.01002040971070528,0.052923135459423065
1700516292454208000,8.6372080078125,0.05495033413171768,0.17790742218494415,0.2695630192756653
1700516292464219000,8.647218994140625,-0.03702113404870033,0.06638728082180023,-0.033238645642995834
1700516292474228700,8.657228759765625,0.041013747453689575,-0.5934321880340576,-0.09650123864412308
1700516292484240100,8.667240234375,0.01883041299879551,0.5153331160545349,-0.26145103573799133
1700516292494251000,8.6772509765625,-0.026806313544511795,-0.5259082913398743,0.1500246524810791
1700516292504261000,8.68726123046875,0.01064998097717762,0.15026088058948517,0.39060238003730774
1700516292514272000,8.69727197265625,0.03940865769982338,0.06545304507017136,-0.2041667103767395
1700516292524283000,8.707282958984376,0.02123764343559742,0.08683822304010391,0.13150210678577423
1700516292534294000,8.7172939453125,-0.005162005312740803,0.37209978699684143,0.47742196917533875
1700516292544303900,8.727303955078124,0.11168791353702545,-0.5522509217262268,0.2741559147834778
1700516292554314800,8.737314697265624,-0.05874906852841377,0.5064727663993835,0.14368313550949097
1700516292564326100,8.747326171875,0.01215519942343235,-0.3962000608444214,0.18098869919776917
1700516292574336000,8.7573359375,0.05130632966756821,-0.019575033336877823,0.020784374326467514
1700516292584347100,8.76734716796875,-0.07229337096214294,0.07099001854658127,-0.3261123299598694
1700516292594358000,8.77735791015625,0.061234861612319946,-0.24826334416866302,-0.09394221007823944
1700516292604369000,8.787368896484375,-0.13021498918533325,0.31142154335975647,-0.09258745610713959
1700516292614379000,8.79737890625,0.0539761483669281,-0.6798450946807861,-0.41600972414016724
1700516292624390000,8.807389892578126,-0.0007374293054454029,0.4668430685997009,-0.5445240139961243
1700516292634400800,8.81740087890625,-0.028478778898715973,-0.3605150580406189,-0.30479398369789124
1700516292644411000,8.827410888671874,0.0568651482462883,0.09893377125263214,-0.21027307212352753
1700516292654422000,8.837422119140625,0.016111325472593307,0.03734390810132027,-0.666108250617981
1700516292664433000,8.847432861328125,0.013527792878448963,0.12815317511558533,-0.32087069749832153
1700516292674444000,8.857444091796875,0.015210111625492573,0.19618256390094757,-0.1773843765258789
1700516292684454000,8.867453857421875,0.06721632182598114,-0.06566103547811508,-0.1366150975227356
1700516292694465000,8.877465087890625,0.021191304549574852,0.37410968542099,0.2501975893974304
1700516292704476000,8.887475830078126,-0.018270084634423256,-0.18024380505084991,0.4429579973220825
1700516292714485800,8.89748583984375,0.06660885363817215,0.11439608037471771,0.6280335783958435
1700516292724497000,8.907496826171876,-0.05480599030852318,0.29532939195632935,-0.04571902006864548
1700516292734508000,8.917508056640624,0.014999189414083958,-0.06835056096315384,0.22816365957260132
1700516292744519000,8.927518798828125,-0.060447897762060165,0.43537890911102295,0.45853668451309204
1700516292754529000,8.937529052734375,-0.022533537819981575,-0.6297488808631897,0.05191486328840256
1700516292764540000,8.947539794921875,-0.024175377562642097,0.41159847378730774,0.01882668398320675
1700516292774551000,8.957551025390625,-0.0788215771317482,-0.4801897704601288,0.13486966490745544
1700516292784561000,8.967560791015625,0.07887937128543854,-0.366860568523407,0.009521866217255592
1700516292794571800,8.97757177734375,-0.025900039821863174,0.3213529884815216,-0.30656206607818604
1700516292804583000,8.9875830078125,0.11615750193595886,-0.3198035657405853,-0.3133552670478821
1700516292814594000,8.997593994140624,-0.08241072297096252,0.4392165243625641,-0.3088502585887909
1700516292824604200,9.007604248046874,0.008332764729857445,-0.8051977157592773,-0.8325832486152649
1700516292834615000,9.017614990234375,0.00021971078240312636,0.32570192217826843,-0.6729387044906616
1700516292844626000,9.0276259765625,-0.025115206837654114,-0.5418358445167542,-0.6292263865470886
1700516292854636000,9.037635986328125,0.08608561754226685,0.22553326189517975,-0.19266878068447113
1700516292864647000,9.04764697265625,-0.033972080796957016,-0.4413662254810333,-0.7202444672584534
1700516292874657800,9.05765771484375,0.09201647341251373,0.13901939988136292,0.18392296135425568
1700516292884669000,9.0676689453125,-0.055628906935453415,-0.004722317215055227,-0.33323734998703003
1700516292894678800,9.0776787109375,-0.034326016902923584,-0.1977064162492752,-0.16204243898391724
1700516292904690000,9.08768994140625,-0.024028902873396873,0.3728824853897095,-0.3593381941318512
1700516292914701000,9.097701171875,0.048222921788692474,-0.2442275881767273,-0.1603369414806366
1700516292924711000,9.1077109375,-0.05902949720621109,0.08150418102741241,-0.19763851165771484
1700516292934722000,9.11772216796875,-0.08435695618391037,0.012582903727889061,-0.47168949246406555
1700516292944733000,9.12773291015625,-0.01720615103840828,0.26052799820899963,0.5367475748062134
1700516292954743800,9.137743896484375,-0.14712899923324585,0.2661680281162262,0.821657657623291
1700516292964754000,9.14775390625,-0.13084828853607178,0.024148479104042053,0.5869495272636414
1700516292974764800,9.157764892578125,0.05549575015902519,0.35003790259361267,0.5285652875900269
1700516292984776000,9.16777587890625,-0.09435313194990158,-0.05903482437133789,0.23030804097652435
1700516292994787000,9.177787109375,-0.0179411843419075,-0.20352622866630554,0.2834825813770294
1700516293004797000,9.187796875,0.05585181340575218,0.5026642084121704,-0.16278518736362457
1700516293014808000,9.19780810546875,0.010584467090666294,-0.429292231798172,0.1974896341562271
1700516293024819000,9.20781884765625,0.0004599279200192541,0.2902970612049103,0.08501822501420975
1700516293034829300,9.217829345703125,0.02528378553688526,-0.5281645059585571,-0.5408152937889099
1700516293044840400,9.22784033203125,0.007750864140689373,0.344855397939682,-0.4866577982902527
1700516293054851300,9.237851318359375,0.037338584661483765,-0.5802311301231384,-0.7036694884300232
1700516293064862200,9.2478623046875,0.08506322652101517,0.13116493821144104,-0.5308002233505249
1700516293074872300,9.257872314453126,0.10053219646215439,0.008403871208429337,-0.8786197304725647
1700516293084883500,9.267883544921874,-0.006421680096536875,0.04956648871302605,-0.37460264563560486
1700516293094894300,9.277894287109374,-0.16801775991916656,0.31483250856399536,0.33910536766052246
1700516293104904400,9.287904541015624,-0.010865164920687675,-0.20936627686023712,0.4335799217224121
1700516293114915300,9.297915283203125,0.07086458802223206,0.2676495611667633,0.12612943351268768
1700516293124926200,9.30792626953125,-0.05819832533597946,0.08947955071926117,0.34179142117500305
1700516293134937300,9.317937255859375,-0.10502707958221436,0.0193135105073452,0.8060698509216309
1700516293144947200,9.327947265625,0.005556685384362936,-0.10106056928634644,-0.019412314519286156
1700516293154958300,9.337958251953125,0.08658016473054886,0.002139317337423563,0.33949604630470276
1700516293164969500,9.347969482421876,-0.03550979122519493,0.14775404334068298,0.26756352186203003
1700516293174980400,9.35798046875,0.03957856819033623,-0.21966178715229034,-0.30936557054519653
1700516293184990500,9.367990478515624,0.13526780903339386,0.5724368691444397,-0.0593770407140255
1700516293195001300,9.37800146484375,-0.0020639498252421618,0.05385683849453926,0.12653663754463196
1700516293205012200,9.38801220703125,0.1485026478767395,-0.1512555629014969,-0.0530693419277668
1700516293215022300,9.398022216796875,0.11125116050243378,0.7254682183265686,0.1412263661623001
1700516293225033200,9.408033203125,-0.019890883937478065,-0.2150515913963318,0.3773728609085083
1700516293235044400,9.41804443359375,0.009845972992479801,0.21339882910251617,0.5223037004470825
1700516293245055500,9.428055419921876,0.001047687605023384,-0.047679636627435684,0.005782255437225103
1700516293255065300,9.4380654296875,0.006736465729773045,0.05204988643527031,0.17821075022220612
1700516293265076500,9.448076416015626,-0.1415291726589203,0.06936602294445038,0.24244458973407745
1700516293275087400,9.45808740234375,0.003787281457334757,-0.5614468455314636,-0.15792465209960938
1700516293285097500,9.468097412109374,-0.024892833083868027,0.21802900731563568,-0.4215421676635742
1700516293295108400,9.4781083984375,-0.015605324879288673,-0.5563719272613525,-0.48201698064804077
1700516293305119200,9.488119140625,-0.12335681915283203,-0.16637805104255676,-0.6127907037734985
1700516293315130400,9.49813037109375,-0.04512380063533783,-0.42266178131103516,-0.650418758392334
1700516293325140200,9.50814013671875,0.021567076444625854,0.27241262793540955,-0.6445595622062683
1700516293335151400,9.5181513671875,-0.03701714053750038,-0.04158126562833786,-0.5982458591461182
1700516293345162500,9.52816259765625,-0.06532654166221619,-0.12855663895606995,-0.5130755305290222
1700516293355173400,9.53817333984375,0.07273705303668976,0.20293979346752167,-0.348967045545578
1700516293365183200,9.548183349609374,0.08249327540397644,0.06465569138526917,-0.045816488564014435
1700516293375194400,9.5581943359375,-0.1248852089047432,0.3025393486022949,-0.06689754128456116
1700516293385205200,9.568205322265625,-0.03632365167140961,-0.14969629049301147,0.003981692250818014
1700516293395215400,9.57821533203125,0.11937139928340912,0.36066123843193054,0.07894754409790039
1700516293405226500,9.5882265625,-0.10517249256372452,0.23858141899108887,-0.18382123112678528
1700516293415237400,9.5982373046875,-0.05138063430786133,0.15104889869689941,0.11316224187612534
1700516293425248500,9.60824853515625,0.06293182820081711,0.039734628051519394,0.5442880988121033
1700516293435258400,9.61825830078125,-0.04679546877741814,0.09229850769042969,0.6923757791519165
1700516293445269200,9.628269287109376,0.06852419674396515,0.1912463903427124,0.8787313103675842
1700516293455280400,9.6382802734375,0.09455659985542297,0.02365233190357685,0.2777107059955597
1700516293465290200,9.648290283203124,0.13035747408866882,0.07132264971733093,0.23437336087226868
1700516293475301400,9.65830126953125,0.003379018744453788,0.4031815528869629,0.20228199660778046
1700516293485312500,9.6683125,0.14909973740577698,-0.29180335998535156,-0.22809548676013947
1700516293495323400,9.678323486328125,0.07138550281524658,0.42535796761512756,-0.1074654757976532
1700516293505333500,9.68833349609375,-0.22560863196849823,-0.5341627597808838,-0.2919261157512665
1700516293515344400,9.698344482421875,-0.04736698418855667,0.059239886701107025,-0.22358089685440063
1700516293525355300,9.708355224609376,-0.014194382354617119,-0.1937934309244156,-0.484953910112381
1700516293535366400,9.718366455078124,0.022943664342164993,0.07391736656427383,-0.4419052302837372
1700516293545376300,9.728376220703124,-0.13472825288772583,0.14950746297836304,-0.35936883091926575
1700516293555387100,9.73838720703125,-0.027895547449588776,-0.13206908106803894,-0.2339981198310852
1700516293565398500,9.7483984375,0.07741569727659225,0.1921827644109726,-0.0628945454955101
1700516293575408400,9.758408447265625,0.030598122626543045,0.09541387110948563,0.13551202416419983
1700516293585419500,9.76841943359375,-0.11757882684469223,-0.02935975231230259,0.10787267237901688
1700516293595430400,9.778430419921875,0.06653135269880295,-0.0360858328640461,0.0801377147436142
1700516293605441300,9.788441162109375,0.09638166427612305,0.10110025107860565,0.08517535030841827
1700516293615451400,9.798451416015626,-0.05786649510264397,0.3550020456314087,0.25580593943595886
1700516293625462300,9.808462158203126,0.04751505330204964,-0.13421985507011414,0.5792497992515564
1700516293635473200,9.81847314453125,0.07377861440181732,0.3854246437549591,0.781398355960846
1700516293645483300,9.828483154296874,-0.017975538969039917,0.2678660750389099,0.45125213265419006
1700516293655494400,9.838494384765625,0.05524780973792076,-0.10383372008800507,0.12919819355010986
1700516293665505500,9.848505615234375,0.1001758724451065,0.30837300419807434,-0.1550028920173645
1700516293675516400,9.858516357421875,-0.10788678377866745,-0.2751074731349945,-0.10850304365158081
1700516293685526300,9.8685263671875,0.15049442648887634,0.08688003569841385,-0.27222833037376404
1700516293695537400,9.878537353515625,0.04337197542190552,-0.5538099408149719,-0.6832286715507507
1700516293705548300,9.88854833984375,0.013430587947368622,0.10170132666826248,-0.38952431082725525
1700516293715559200,9.89855908203125,-0.11400699615478516,-0.2635408341884613,-0.4484001696109772
1700516293725569300,9.9085693359375,-0.1368023157119751,-0.23932257294654846,-0.37687698006629944
1700516293735580400,9.918580322265624,0.09498270601034164,0.14338353276252747,-0.3943427801132202
1700516293745591300,9.92859130859375,0.04012691229581833,-0.07763513922691345,0.07388035207986832
1700516293755601400,9.938601318359375,-0.05204163119196892,0.08007752150297165,0.2218514382839203
1700516293765612300,9.9486123046875,0.06251051276922226,-0.08083013445138931,0.1625327169895172
1700516293775623400,9.95862353515625,0.10579540580511093,0.038167890161275864,0.16743826866149902
1700516293785634300,9.96863427734375,-0.08036568015813828,0.12259915471076965,0.04362444207072258
1700516293795644200,9.97864404296875,-0.06156083196401596,-0.08641611784696579,0.13615943491458893
1700516293805655300,9.9886552734375,0.07849320769309998,0.15654008090496063,-0.1471465677022934
1700516293815666400,9.99866650390625,0.0067937239073216915,-0.14433534443378448,0.06479097902774811
1700516293825676500,10.008676513671874,-0.024967135861516,0.06405089050531387,-0.1326959878206253
1700516293835687400,10.0186875,0.03411083295941353,-0.18766283988952637,-0.34552305936813354
1700516293845698300,10.0286982421875,0.025782061740756035,-0.15115223824977875,-0.13234366476535797
1700516293855709400,10.03870947265625,-0.10208029299974442,0.13979092240333557,-0.12433553487062454
1700516293865719300,10.04871923828125,-0.011863583698868752,-0.1678697019815445,-0.12633955478668213
1700516293875730200,10.058730224609375,0.11031585186719894,0.18342415988445282,-0.17494970560073853
1700516293885741600,10.068741455078126,0.020860539749264717,-0.1058041900396347,0.012560267001390457
1700516293895752400,10.07875244140625,-0.10692644864320755,0.013655624352395535,-0.15386731922626495
1700516293905762600,10.088762451171876,0.031505994498729706,-0.012148275971412659,-0.3477925956249237
1700516293915773400,10.0987734375,0.11633859574794769,-0.19884945452213287,-0.07364732027053833
1700516293925784300,10.108784423828125,-0.11577906459569931,0.06664694100618362,-0.0023254721891134977
1700516293935794400,10.11879443359375,0.03790929913520813,-0.11689253151416779,0.07757015526294708
1700516293945805300,10.128805419921875,0.11704087257385254,0.08633142709732056,-0.000297475082334131
1700516293955816200,10.138816162109375,-0.09751004725694656,0.10055749863386154,0.4353136420249939
1700516293965827600,10.14882763671875,-0.01968448795378208,0.12271979451179504,0.8363252282142639
1700516293975837400,10.15883740234375,0.04487133398652077,0.011687016114592552,0.09654784202575684
1700516293985848300,10.168848388671876,0.01846502721309662,-0.13238999247550964,0.17870450019836426
1700516293995859500,10.178859375,-0.03585893288254738,-0.05741535499691963,-0.45398348569869995
1700516294005869300,10.188869384765624,0.06348949670791626,-0.23118901252746582,-0.6447153687477112
1700516294015880400,10.19888037109375,-0.0023076289799064398,-0.14977245032787323,-0.28430336713790894
1700516294025891300,10.208891357421875,-0.08732931315898895,-0.0843777284026146,0.11150708794593811
1700516294035905800,10.21890576171875,-0.09774599969387054,0.03947390615940094,0.048598162829875946
1700516294045916000,10.228916015625,0.12248677015304565,-0.4625639021396637,0.12074506282806396
1700516294055926800,10.2389267578125,0.09497231990098953,0.09816225618124008,0.23849326372146606
1700516294065937700,10.248937744140624,-0.0787840262055397,-0.007416104432195425,-0.16097716987133026
1700516294075949000,10.258948974609375,-0.031015174463391304,-0.2884347140789032,-0.25232625007629395
1700516294085959000,10.268958984375,0.086177758872509,0.39252784848213196,-0.21463267505168915
1700516294095969800,10.2789697265625,-0.027153057977557182,0.07579569518566132,-0.3090859353542328
1700516294105981000,10.28898095703125,-0.08685420453548431,-0.1328539252281189,-0.3279206156730652
1700516294115990800,10.29899072265625,0.01824078895151615,0.13564197719097137,-0.0891176238656044
1700516294126002000,10.309001953125,0.022127406671643257,0.17183780670166016,0.4141835868358612
1700516294136012800,10.3190126953125,-0.1614605337381363,-0.052499961107969284,0.6144325137138367
1700516294146023700,10.329023681640624,-0.04839922487735748,-0.5075516104698181,0.4240785837173462
1700516294156033800,10.33903369140625,0.1019042581319809,0.20607274770736694,-0.1303984820842743
1700516294166045000,10.349044921875,-0.13860687613487244,-0.10845350474119186,-0.11883903294801712
1700516294176055800,10.359055908203125,0.07773500680923462,-0.45949435234069824,0.05798660218715668
1700516294186066000,10.36906591796875,-0.024948759004473686,0.1012033149600029,-0.30650001764297485
1700516294196076800,10.379076904296875,-0.019825901836156845,-0.13134683668613434,-0.30807259678840637
1700516294206088000,10.389087890625,-0.06839103996753693,0.07437676191329956,-0.40140628814697266
1700516294216098800,10.399098876953126,0.08413857966661453,-0.3193894326686859,-0.3039396405220032
1700516294226108700,10.409108642578126,0.03519180789589882,0.5620694756507874,0.06096295267343521
1700516294236119800,10.419119873046874,-0.048293497413396835,0.06521948426961899,0.010762366466224194
1700516294246131000,10.429130859375,-0.0529007650911808,-0.3054257035255432,-0.03656626492738724
1700516294256141000,10.43914111328125,0.00009960222087102011,0.2868621349334717,0.07891425490379333
1700516294266152000,10.44915185546875,0.02755546197295189,-0.03918974846601486,0.17628315091133118
1700516294276162800,10.459162841796875,-0.10865670442581177,-0.23264309763908386,-0.03434598818421364
1700516294286173700,10.469173583984375,-0.014475611969828606,-0.16406697034835815,-0.18045392632484436
1700516294296183800,10.479183837890625,0.1371690332889557,0.051235489547252655,-0.09546659886837006
1700516294306194700,10.489194580078125,-0.16037289798259735,-0.07127684354782104,-0.03783712536096573
1700516294316205800,10.499205810546876,-0.15977928042411804,-0.29750919342041016,-0.0049007488414645195
1700516294326215700,10.509215576171876,0.11454202234745026,0.2999550402164459,-0.08708776533603668
1700516294336226800,10.519226806640624,-0.06766533106565475,0.17527620494365692,-0.06963793188333511
1700516294346238000,10.529238037109375,-0.046792007982730865,-0.11619079113006592,0.020122045651078224
1700516294356248800,10.539248779296875,0.04701651260256767,-0.1850513517856598,-0.09582293033599854
1700516294366259000,10.549259033203125,-0.019330553710460663,0.25747227668762207,-0.1368587762117386
1700516294376269800,10.559269775390625,-0.23622983694076538,0.16802789270877838,-0.2886491119861603
1700516294386280700,10.56928076171875,0.041192974895238876,-0.4623607099056244,-0.15043744444847107
1700516294396292000,10.5792919921875,0.024561535567045212,0.3892359137535095,-0.20876653492450714
1700516294406301700,10.5893017578125,-0.13151328265666962,0.1839274913072586,-0.06371692568063736
1700516294416312800,10.599312744140626,0.032345157116651535,-0.16947771608829498,0.2535387873649597
1700516294426324000,10.609323974609374,0.04306970536708832,-0.30486351251602173,0.33119577169418335
1700516294436333800,10.619333740234374,-0.13629604876041412,0.15162548422813416,0.10198149085044861
1700516294446345000,10.629344970703125,-0.08847207576036453,0.16843535006046295,-0.0783853530883789
1700516294456355800,10.63935595703125,0.13859809935092926,-0.3546385169029236,0.11888696998357773
1700516294466366700,10.64936669921875,-0.02448270656168461,0.17729222774505615,0.11229272186756134
1700516294476376800,10.659376953125,-0.2117340862751007,0.0125818382948637,0.038714371621608734
1700516294486388000,10.669387939453125,0.022611303254961967,-0.29244890809059143,0.08407279849052429
1700516294496398800,10.67939892578125,0.07930201292037964,0.20281648635864258,-0.11709786206483841
1700516294506409000,10.689408935546876,-0.041558362543582916,0.20472997426986694,-0.1521349400281906
1700516294516419800,10.699419921875,-0.0769302025437355,-0.019337479025125504,-0.18258659541606903
1700516294526430700,10.7094306640625,0.04103398695588112,-0.359765887260437,-0.13142380118370056
1700516294536441900,10.71944189453125,0.042162101715803146,0.37993746995925903,-0.019088739529252052
1700516294546451700,10.72945166015625,-0.09989650547504425,0.0035214978270232677,-0.11395133286714554
1700516294556462800,10.739462890625,0.011137339286506176,-0.387856662273407,-0.0734981819987297
1700516294566474000,10.749473876953125,0.07669104635715485,0.22098325192928314,0.049861300736665726
1700516294576483800,10.75948388671875,-0.02562733180820942,0.0387045182287693,0.17485304176807404
1700516294586495000,10.769494873046876,-0.1046353355050087,-0.023371102288365364,0.16133429110050201
1700516294596505900,10.779505859375,0.11560249328613281,-0.14936232566833496,0.024884045124053955
1700516294606516700,10.789516845703124,-0.009504822082817554,0.4458938539028168,0.2230951339006424
1700516294616526800,10.79952685546875,-0.11926966905593872,-0.1125212162733078,0.3622514307498932
1700516294626537700,10.809537841796875,0.07743780314922333,-0.09925920516252518,0.23073627054691315
1700516294636548900,10.819548828125,0.04397038742899895,0.267152339220047,-0.016139555722475052
1700516294646558700,10.829558837890625,-0.10571204870939255,0.026800189167261124,0.3392065465450287
1700516294656569900,10.83956982421875,0.09083376824855804,-0.3244718313217163,0.16074120998382568
1700516294666581000,10.8495810546875,-0.03386608883738518,0.23419038951396942,-0.5214266777038574
1700516294676591900,10.859591796875,-0.07194183766841888,-0.03892529383301735,-0.14787787199020386
1700516294686602000,10.86960205078125,-0.2441956251859665,-0.15194052457809448,-0.17154139280319214
1700516294696612900,10.87961279296875,-0.0855196937918663,-0.52115398645401,-0.1937692016363144
1700516294706623700,10.889623779296874,0.12869805097579956,0.45259225368499756,-0.05366615951061249
1700516294716633900,10.8996337890625,0.1151694655418396,0.015835953876376152,-0.20102259516716003
1700516294726644700,10.909644775390625,0.04165157303214073,-0.3125115633010864,-0.22682195901870728
1700516294736656000,10.91965576171875,-0.020304473116993904,0.04945623129606247,0.0554366260766983
1700516294746667000,10.9296669921875,0.029797043651342392,0.12795422971248627,0.12462341785430908
1700516294756676900,10.9396767578125,-0.021271200850605965,-0.06925497204065323,-0.16401317715644836
1700516294766687700,10.949687744140626,0.019574500620365143,0.256693571805954,-0.40823090076446533
1700516294776699000,10.959698974609376,0.016025304794311523,0.3514983654022217,-0.1594623625278473
1700516294786708700,10.969708740234376,-0.24991582334041595,0.0463898703455925,0.3617717921733856
1700516294796719900,10.979719970703124,-0.002326271263882518,-0.11857085675001144,0.9775087237358093
1700516294806730800,10.989730712890625,-0.03876710310578346,0.5211880803108215,1.4553234577178955
1700516294816740900,10.999740966796875,-0.09637180715799332,0.211488276720047,1.0818250179290771
1700516294826752000,11.009751953125,0.0519111342728138,-0.6994395852088928,0.06886481493711472
1700516294836763000,11.019762939453125,0.08534951508045197,0.14155447483062744,-0.9208004474639893
1700516294846773800,11.029773681640625,-0.15992549061775208,-0.3864627480506897,-0.9057237505912781
1700516294856784000,11.039783935546875,-0.226133793592453,-0.35042405128479004,-1.0094091892242432
1700516294866794800,11.049794677734376,0.025070199742913246,-0.08756713569164276,-0.7128310203552246
1700516294876806000,11.059805908203124,0.22819428145885468,0.46684813499450684,-0.16845399141311646
1700516294886815700,11.069815673828124,0.15920935571193695,0.2604116201400757,0.10194846987724304
1700516294896826600,11.07982666015625,-0.024704281240701675,-0.04109923169016838,0.198746919631958
1700516294906838000,11.089838134765625,-0.033372070640325546,0.4604530930519104,0.49319159984588623
1700516294916849000,11.099848876953125,-0.021771075204014778,0.2342820018529892,0.14691194891929626
1700516294926859000,11.10985888671875,-0.160379558801651,-0.10645933449268341,0.06139571592211723
1700516294936870000,11.119869873046875,-0.02310851402580738,-0.2264413982629776,0.14012008905410767
1700516294946880800,11.129880859375,0.01648017391562462,0.2432059943675995,0.2841838002204895
1700516294956891000,11.139890869140626,-0.07153836637735367,-0.1352986991405487,0.4325900375843048
1700516294966901800,11.14990185546875,0.018578477203845978,-0.1829647570848465,0.009154615923762321
1700516294976912600,11.15991259765625,-0.004670917987823486,0.274095743894577,-0.11982333660125732
1700516294986922800,11.1699228515625,-0.0707402154803276,-0.001954493811354041,0.014555772766470909
1700516294996934000,11.179933837890625,0.07724551856517792,-0.11942066997289658,-0.10827400535345078
1700516295006944800,11.18994482421875,0.04466520622372627,0.28303197026252747,-0.4628739058971405
1700516295016956000,11.199955810546875,-0.1434391885995865,0.1526409387588501,-0.13923192024230957
1700516295026965800,11.2099658203125,-0.03406236320734024,-0.28482508659362793,-0.12930606305599213
1700516295036973600,11.2199736328125,-0.07940854132175446,0.13788357377052307,-0.25892263650894165
1700516295046984400,11.229984375,0.036379579454660416,0.22333694994449615,-0.19463711977005005
1700516295056994600,11.23999462890625,-0.0036477316170930862,-0.21276207268238068,-0.22791944444179535
1700516295067005400,11.25000537109375,-0.011839348822832108,-0.3388614058494568,-0.08035103231668472
1700516295077016600,11.2600166015625,0.0617951899766922,0.11544403433799744,0.25374650955200195
1700516295087027500,11.27002734375,-0.09966534376144409,0.04676590859889984,0.49431970715522766
1700516295097037600,11.28003759765625,0.008769789710640907,-0.37890657782554626,0.540203332901001
1700516295107048400,11.29004833984375,0.09725198149681091,0.2219931185245514,0.14005936682224274
1700516295117059600,11.3000595703125,-0.10171810537576675,0.2747788429260254,-0.23283004760742188
1700516295127069400,11.3100693359375,0.034870367497205734,-0.1676076352596283,-0.156960591673851
1700516295137080300,11.320080322265625,0.04814222827553749,0.06980464607477188,-0.3845127820968628
1700516295147091500,11.330091552734375,-0.04962987080216408,0.44879430532455444,-0.30002880096435547
1700516295157101300,11.340101318359375,-0.08879804611206055,-0.014933941885828972,-0.13150343298912048
1700516295167112700,11.35011279296875,0.02448909729719162,-0.24130529165267944,-0.006705306936055422
1700516295177123600,11.36012353515625,-0.03668610751628876,0.4027021825313568,0.006453105714172125
1700516295187134500,11.370134521484376,-0.1741880476474762,-0.00833809096366167,-0.01997983269393444
1700516295197144600,11.38014453125,0.05661427602171898,-0.39461150765419006,0.23466576635837555
1700516295207155500,11.390155517578124,0.06180104985833168,0.2626001834869385,0.058398861438035965
1700516295217166300,11.400166259765625,-0.10916057229042053,-0.06976842880249023,0.3543761968612671
1700516295227176400,11.410176513671875,0.09052164107561111,-0.28454676270484924,0.7016063332557678
1700516295237187300,11.420187255859375,0.012533901259303093,-0.03449246287345886,0.11473031342029572
1700516295247198500,11.430198486328125,-0.1150248572230339,0.07736296206712723,-0.42156535387039185
1700516295257208600,11.44020849609375,0.05263631418347359,0.07206327468156815,-0.6023404598236084
1700516295267219500,11.450219482421875,0.025177258998155594,-0.0444558821618557,-0.5927325487136841
1700516295277230600,11.460230712890626,-0.0155544588342309,0.23067794740200043,-0.14487968385219574
1700516295287240400,11.470240478515626,-0.15107101202011108,0.08736686408519745,0.2954241931438446
1700516295297251600,11.48025146484375,-0.0009350358741357923,-0.40552353858947754,0.3786833882331848
1700516295307262500,11.490262451171875,0.028193553909659386,0.2521424889564514,0.07263319194316864
1700516295317273300,11.5002734375,-0.14980360865592957,0.151640385389328,-0.057073939591646194
1700516295327283500,11.510283447265625,0.06564532220363617,-0.3873501121997833,0.23569267988204956
1700516295337294600,11.520294677734375,0.06127827242016792,0.05632106214761734,0.007167365401983261
1700516295347305500,11.530305419921875,-0.13762390613555908,0.2787163257598877,0.311348021030426
1700516295357315600,11.540315673828125,0.07057483494281769,-0.3462969660758972,0.3907187581062317
1700516295367326500,11.550326416015626,0.03972557559609413,-0.025895513594150543,-0.035167839378118515
1700516295377337300,11.56033740234375,0.033551834523677826,0.30007994174957275,-0.1892002820968628
1700516295387347500,11.570347412109374,-0.10661166161298752,-0.10635573416948318,-0.13834083080291748
1700516295397358300,11.5803583984375,0.02202407643198967,-0.3969968855381012,-0.23733799159526825
1700516295407369500,11.590369384765625,0.10080064833164215,0.4173295795917511,-0.25501683354377747
1700516295417380600,11.600380615234375,-0.12890072166919708,-0.012269183062016964,0.017412811517715454
1700516295427390500,11.610390380859375,0.09765705466270447,-0.551715612411499,0.2527797818183899
1700516295437401600,11.620401611328125,0.01858833245933056,0.1156373843550682,0.05339185148477554
1700516295447412500,11.63041259765625,-0.14851197600364685,0.3198091685771942,-0.26168379187583923
1700516295457422600,11.640422607421876,0.14194169640541077,-0.16820845007896423,-0.06697530299425125
1700516295467433500,11.65043359375,0.03622165322303772,0.026400448754429817,-0.0026695525739341974
1700516295477444400,11.6604443359375,-0.05066850408911705,0.17894285917282104,0.22879403829574585
1700516295487454500,11.670454345703124,-0.026677949354052544,0.046670299023389816,0.2778100371360779
1700516295497465300,11.68046533203125,0.04926714673638344,-0.24490855634212494,-0.07024966180324554
1700516295507476500,11.6904765625,-0.02161208540201187,0.18333786725997925,-0.23344551026821136
1700516295517486600,11.700486572265625,-0.08518413454294205,-0.24351438879966736,-0.22624538838863373
1700516295527497500,11.71049755859375,0.02516207844018936,-0.5461602807044983,-0.19337639212608337
1700516295537508600,11.720508544921875,0.05643531307578087,0.1072114109992981,-0.32703858613967896
1700516295547518500,11.7305185546875,-0.019465310499072075,0.0020655477419495583,-0.21255967020988464
1700516295557529300,11.740529296875,0.056474726647138596,-0.31027236580848694,-0.147041916847229
1700516295567540500,11.75054052734375,0.08291511982679367,0.21826443076133728,-0.04107419773936272
1700516295577551400,11.76055126953125,0.0785352885723114,0.24202755093574524,0.17002685368061066
1700516295587561500,11.7705615234375,-0.08964599668979645,-0.07987885177135468,0.09693693369626999
1700516295597572600,11.780572509765625,0.0170277189463377,-0.2762371897697449,-0.016686568036675453
1700516295607583500,11.79058349609375,0.03644935414195061,0.6014754772186279,-0.2013126015663147
1700516295617593600,11.800593505859375,-0.09121459722518921,-0.16855518519878387,-0.34828048944473267
1700516295627604500,11.8106044921875,-0.05494740605354309,-0.19415828585624695,-0.20256295800209045
1700516295637615400,11.820615478515625,0.04602528363466263,0.1751427948474884,0.07545188069343567
1700516295647625500,11.83062548828125,-0.06914631277322769,-0.3637949824333191,0.015429556369781494
1700516295657636400,11.84063623046875,0.018099375069141388,-0.07890280336141586,-0.0199862252920866
1700516295667647500,11.8506474609375,0.07864101231098175,0.39706265926361084,-0.16661161184310913
1700516295677657300,11.8606572265625,-0.046003710478544235,0.22885741293430328,-0.00007297061529243365
1700516295687668500,11.87066845703125,-0.04216423258185387,-0.18096952140331268,0.23780909180641174
1700516295697679600,11.8806796875,0.06605731695890427,0.05915280058979988,0.07910014688968658
1700516295707689500,11.890689453125,-0.07176979631185532,0.41083282232284546,0.3479537069797516
1700516295717700600,11.90070068359375,-0.08537854999303818,-0.12080524861812592,0.6819348931312561
1700516295727711500,11.91071142578125,-0.05278065800666809,-0.504711925983429,0.40269631147384644
1700516295737721300,11.920721435546875,-0.09405139833688736,0.31444740295410156,-0.598420262336731
1700516295747732500,11.930732421875,-0.0006703176186420023,-0.006842725910246372,-0.7874751687049866
1700516295757743600,11.94074365234375,0.05194096267223358,-0.3817359209060669,-0.018339326605200768
1700516295767753500,11.95075341796875,-0.025974076241254807,-0.03519953414797783,0.05768832936882973
1700516295777764600,11.9607646484375,-0.07523137331008911,0.22878497838974,0.23320795595645905
1700516295787775500,11.970775390625,0.033907897770404816,-0.3745424449443817,0.3053463399410248
1700516295797786400,11.980786376953125,0.028114724904298782,0.10140518099069595,0.005571865476667881
1700516295807796500,11.99079638671875,-0.016086824238300323,0.2700868844985962,-0.27145519852638245
1700516295817807400,12.000807373046875,0.052802227437496185,-0.17847813665866852,-0.09595076739788055
1700516295827818500,12.010818603515625,-0.020673586055636406,-0.30509331822395325,0.09986507892608643
1700516295837828400,12.020828369140625,-0.020537232980132103,0.21204008162021637,0.06531908363103867
1700516295847839500,12.030839599609376,-0.00509968725964427,-0.026143986731767654,-0.03381149470806122
1700516295857850600,12.0408505859375,0.006885603070259094,-0.312579482793808,0.1531064659357071
1700516295867860500,12.050860595703124,0.006487993057817221,0.04664979502558708,0.08772079646587372
1700516295877871600,12.06087158203125,-0.08761081099510193,0.15566548705101013,-0.0832192525267601
1700516295887882500,12.070882568359375,0.05079952999949455,-0.45256507396698,-0.020917532965540886
1700516295897892400,12.080892333984375,0.03633164241909981,0.15272216498851776,-0.045343514531850815
1700516295907903500,12.090903564453125,-0.015152587555348873,0.1798025220632553,-0.15255172550678253
1700516295917914400,12.100914306640625,0.06651005148887634,-0.19473034143447876,-0.17817986011505127
1700516295927924500,12.110924560546875,0.05030498281121254,-0.08304295688867569,-0.06530629843473434
1700516295937935600,12.120935546875,-0.003034405643120408,0.18551580607891083,0.04483724758028984
1700516295947946500,12.130946533203126,-0.015949672088027,-0.24327737092971802,0.03898175433278084
