time,seconds_elapsed,z,y,x
1697842578901466000,0.194466064453125,-0.021380282938480377,-0.030543262138962746,-0.0012217304902151227
1697842578913016000,0.20601611328125,-0.01710422709584236,-0.004886921960860491,-0.015882495790719986
1697842578922018000,0.21501806640625,-0.04642575979232788,-0.018936822190880775,-0.01771509274840355
1697842578931521000,0.22452099609375,-0.04642575979232788,-0.018936822190880775,-0.01771509274840355
1697842578941452000,0.2344521484375,-0.05864306539297104,-0.04948008432984352,0.0403171069920063
1697842578951445000,0.244445068359375,-0.06902777403593063,-0.04642575979232788,0.0507018156349659
1697842578961509000,0.254509033203125,-0.07880161702632904,-0.051312681287527084,0.04764748737215996
1697842578971504000,0.264504150390625,-0.07452555745840073,-0.02687807008624077,0.04703662544488907
1697842578981483000,0.27448291015625,-0.06108652427792549,-0.036041051149368286,-0.004886921960860491
1697842578992718000,0.285718017578125,-0.060475658625364304,-0.0403171069920063,-0.03176499158143997
1697842579003230000,0.29622998046875,-0.06963863968849182,0.04886921867728233,0.0012217304902151227
1697842579011464000,0.3044638671875,-0.054367005825042725,0.01160643994808197,-0.030543262138962746
1697842579021463000,0.314463134765625,-0.05314527451992035,0.024434609338641167,-0.018936822190880775
1697842579031430000,0.324429931640625,-0.056810468435287476,0.07452555745840073,-0.02076941914856434
1697842579041518000,0.33451806640625,-0.04459316283464432,0.05253441259264946,-0.025656340643763542
1697842579051671000,0.344671142578125,-0.04642575979232788,0.05192354694008827,-0.030543262138962746
1697842579061432000,0.35443212890625,-0.059864792972803116,0.04948008432984352,-0.03787364438176155
1697842579071403000,0.364403076171875,-0.07696902006864548,0.059864792972803116,-0.025656340643763542
1697842579081766000,0.374765869140625,-0.07147123664617538,0.06352998316287994,-0.03176499158143997
1697842579091447000,0.384447021484375,-0.0659734457731247,0.04764748737215996,-0.08124507963657379
1697842579101673000,0.3946728515625,-0.04703662544488907,0.05375614017248154,-0.07696902006864548
1697842579111518000,0.40451806640625,-0.05192354694008827,0.060475658625364304,-0.10934487730264664
1697842579121524000,0.41452392578125,-0.039095375686883926,0.06658431142568588,-0.05314527451992035
1697842579131502000,0.424502197265625,-0.045204028487205505,0.00366519158706069,-0.11667526513338089
1697842579141593000,0.434593017578125,-0.0403171069920063,0.010995574295520782,-0.0659734457731247
1697842579151552000,0.444552001953125,-0.03726277872920036,-0.003054326167330146,-0.10812314599752426
1697842579161556000,0.454555908203125,-0.031154127791523933,-0.01466076634824276,-0.06658431142568588
1697842579171469000,0.464468994140625,-0.024434609338641167,-0.012828170321881771,-0.09285151958465576
1697842579181438000,0.47443798828125,-0.019547687843441963,-0.009162978269159794,-0.09712757170200348
1697842579191553000,0.484552978515625,-0.018325956538319588,-0.0024434609804302454,-0.1111774742603302
1697842579201469000,0.494468994140625,-0.02382374368607998,0.021380282938480377,-0.06414084881544113
1697842579211442000,0.50444189453125,-0.03420845419168472,0.00427605677396059,-0.06108652427792549
1697842579221447000,0.514447021484375,-0.03848451003432274,0.004886921960860491,-0.03481931984424591
1697842579231424000,0.524424072265625,-0.04642575979232788,0.01771509274840355,-0.039095375686883926
1697842579241444000,0.534444091796875,-0.05375614017248154,0.01466076634824276,-0.003054326167330146
1697842579251447000,0.544447021484375,-0.06536258012056351,0.03848451003432274,0.014049900695681572
1697842579261513000,0.554512939453125,-0.07024950534105301,0.018325956538319588,0.04214970022439957
1697842579271465000,0.56446484375,-0.07696902006864548,0.016493361443281174,0.04398229718208313
1697842579281477000,0.57447705078125,-0.08124507963657379,0.03298672288656235,0.07757988572120667
1697842579291454000,0.584453857421875,-0.0757472887635231,0.009773843921720982,0.0806342139840126
1697842579301653000,0.594653076171875,-0.07330382615327835,0.01710422709584236,0.08307767659425735
1697842579311483000,0.60448291015625,-0.0659734457731247,0.018325956538319588,0.10262536257505417
1697842579321585000,0.6145849609375,-0.059864792972803116,0.04581489413976669,0.10018189996480942
1697842579331431000,0.624430908203125,-0.042760565876960754,0.03420845419168472,0.08307767659425735
1697842579341458000,0.6344580078125,-0.04153883829712868,0.014049900695681572,0.11301007121801376
1697842579351537000,0.644536865234375,-0.04764748737215996,0.022602014243602753,0.11056660860776901
1697842579361587000,0.6545869140625,-0.036651913076639175,0.015271631069481373,0.11667526513338089
1697842579371614000,0.664614013671875,-0.02626720629632473,0.02015855349600315,0.08002334833145142
1697842579381479000,0.67447900390625,-0.019547687843441963,0.016493361443281174,0.0757472887635231
1697842579391846000,0.684845947265625,-0.024434609338641167,0.016493361443281174,0.07819075137376785
1697842579401526000,0.694526123046875,-0.019547687843441963,0.021380282938480377,0.07391469180583954
1697842579411482000,0.704482177734375,-0.015882495790719986,0.0012217304902151227,0.07024950534105301
1697842579421523000,0.71452294921875,-0.02321287989616394,-0.048258353024721146,0.05864306539297104
1697842579431500000,0.7245,-0.024434609338641167,-0.01771509274840355,0.09040805697441101
1697842579441492000,0.734491943359375,-0.025656340643763542,-0.031154127791523933,0.05497787147760391
1697842579451975000,0.744974853515625,-0.033597588539123535,-0.05314527451992035,0.060475658625364304
1697842579461714000,0.7547138671875,-0.036651913076639175,-0.04642575979232788,0.05375614017248154
1697842579471578000,0.764578125,-0.04459316283464432,-0.03848451003432274,0.06230825558304787
1697842579481734000,0.77473388671875,-0.051312681287527084,-0.04642575979232788,0.04153883829712868
1697842579491900000,0.78489990234375,-0.05803219974040985,-0.060475658625364304,0.05314527451992035
1697842579501788000,0.794787841796875,-0.0555887371301651,-0.04398229718208313,0.04337143152952194
1697842579511693000,0.804693115234375,-0.05314527451992035,-0.051312681287527084,0.051312681287527084
1697842579521781000,0.814781005859375,-0.0507018156349659,-0.04459316283464432,0.0507018156349659
1697842579531555000,0.82455517578125,-0.05742133408784866,-0.04948008432984352,0.04764748737215996
1697842579541609000,0.83460888671875,-0.06719517707824707,-0.04642575979232788,0.04886921867728233
1697842579551498000,0.844498046875,-0.07330382615327835,-0.02321287989616394,0.059864792972803116
1697842579561592000,0.854592041015625,-0.07513642311096191,-0.04337143152952194,0.048258353024721146
1697842579571603000,0.86460302734375,-0.0708603709936142,-0.02382374368607998,0.04642575979232788
1697842579581549000,0.874549072265625,-0.056810468435287476,-0.009162978269159794,0.048258353024721146
1697842579591594000,0.884593994140625,-0.048258353024721146,-0.031154127791523933,0.024434609338641167
1697842579601594000,0.894593994140625,-0.04581489413976669,-0.021380282938480377,0.02321287989616394
1697842579611661000,0.9046611328125,-0.054367005825042725,-0.02626720629632473,0.016493361443281174
1697842579621611000,0.914611083984375,-0.05375614017248154,-0.03176499158143997,0.012828170321881771
1697842579631630000,0.924630126953125,-0.05009094998240471,-0.02015855349600315,0.016493361443281174
1697842579641538000,0.9345380859375,-0.03787364438176155,-0.03237585723400116,-0.0024434609804302454
1697842579651636000,0.944635986328125,-0.030543262138962746,-0.029932396486401558,0.01771509274840355
1697842579661543000,0.95454296875,-0.03176499158143997,-0.02932153269648552,0.01466076634824276
1697842579674650000,0.967650146484375,-0.021991148591041565,-0.03481931984424591,-0.006719517521560192
1697842579691573000,0.984572998046875,-0.01466076634824276,-0.04214970022439957,-0.0024434609804302454
1697842579701653000,0.994653076171875,-0.024434609338641167,-0.01710422709584236,-0.027488935738801956
1697842579711943000,1.00494287109375,-0.027488935738801956,0.0012217304902151227,-0.0012217304902151227
1697842579721536000,1.014535888671875,-0.033597588539123535,-0.012217304669320583,-0.015882495790719986
1697842579731502000,1.024502197265625,-0.048258353024721146,0.006108652334660292,0.02871066704392433
1697842579741767000,1.034766845703125,-0.05742133408784866,0.00733038317412138,0.022602014243602753
1697842579751522000,1.04452197265625,-0.04703662544488907,0.003054326167330146,0.02932153269648552
1697842579761542000,1.0545419921875,-0.04581489413976669,-0.006108652334660292,0.028099801391363144
1697842579771526000,1.06452587890625,-0.04703662544488907,0.01038470957428217,0.036041051149368286
1697842579781651000,1.07465087890625,-0.04703662544488907,0.019547687843441963,0.009162978269159794
1697842579791639000,1.08463916015625,-0.045204028487205505,0.00733038317412138,0.016493361443281174
1697842579801987000,1.094987060546875,-0.045204028487205505,0.01466076634824276,0.024434609338641167
1697842579811626000,1.1046259765625,-0.04092797264456749,0.007941247895359993,0.013439035043120384
1697842579821643000,1.11464306640625,-0.0403171069920063,0.02321287989616394,0.012828170321881771
1697842579831625000,1.124625,-0.04092797264456749,0.04337143152952194,0.02015855349600315
1697842579841671000,1.1346708984375,-0.03481931984424591,0.04214970022439957,-0.00427605677396059
1697842579851615000,1.144614990234375,-0.03420845419168472,0.04337143152952194,0.025656340643763542
1697842579861883000,1.1548828125,-0.039095375686883926,0.05803219974040985,0.004886921960860491
1697842579871904000,1.164904052734375,-0.036651913076639175,0.07452555745840073,0.02076941914856434
1697842579882229000,1.17522900390625,-0.03298672288656235,0.07024950534105301,0.009162978269159794
1697842579891790000,1.1847900390625,-0.03481931984424591,0.08002334833145142,-0.005497787147760391
1697842579901727000,1.19472705078125,-0.03481931984424591,0.09285151958465576,-0.010995574295520782
1697842579911840000,1.204840087890625,-0.03298672288656235,0.08307767659425735,-0.0354301854968071
1697842579921788000,1.214787841796875,-0.04092797264456749,0.09285151958465576,-0.01771509274840355
1697842579931520000,1.22452001953125,-0.04459316283464432,0.08735372871160507,-0.02382374368607998
1697842579941617000,1.234616943359375,-0.042760565876960754,0.04764748737215996,-0.019547687843441963
1697842579951620000,1.2446201171875,-0.05009094998240471,0.06108652427792549,-0.0024434609804302454
1697842579961632000,1.254632080078125,-0.051312681287527084,0.04703662544488907,-0.012217304669320583
1697842579971596000,1.264595947265625,-0.04764748737215996,0.04214970022439957,-0.021380282938480377
1697842579981606000,1.27460595703125,-0.04642575979232788,0.05375614017248154,-0.005497787147760391
1697842579991971600,1.2849716796875,-0.03726277872920036,0.04703662544488907,-0.02321287989616394
1697842580004555000,1.297554931640625,-0.03726277872920036,0.04703662544488907,-0.02321287989616394
1697842580021559000,1.31455908203125,-0.0403171069920063,0.02015855349600315,-0.014049900695681572
1697842580031612000,1.32461181640625,-0.04337143152952194,0.036041051149368286,0.006719517521560192
1697842580042021000,1.335021240234375,-0.04153883829712868,0.04214970022439957,-0.02076941914856434
1697842580051693000,1.344693115234375,-0.033597588539123535,0.04337143152952194,-0.022602014243602753
1697842580061900000,1.354900146484375,-0.04214970022439957,0.05314527451992035,-0.01771509274840355
1697842580071628000,1.3646279296875,-0.04214970022439957,0.028099801391363144,0.005497787147760391
1697842580081609000,1.37460888671875,-0.04337143152952194,0.01710422709584236,-0.00427605677396059
1697842580091483000,1.38448291015625,-0.04886921867728233,0.03787364438176155,0.0006108652451075613
1697842580102214000,1.3952138671875,-0.04337143152952194,0.012217304669320583,-0.02015855349600315
1697842580111640000,1.40464013671875,-0.0354301854968071,0.02932153269648552,0.02321287989616394
1697842580122041000,1.415041015625,-0.02626720629632473,-0.00427605677396059,-0.010995574295520782
1697842580131519000,1.42451904296875,-0.02687807008624077,-0.009162978269159794,0.0012217304902151227
1697842580141783000,1.434782958984375,-0.025045474991202354,-0.013439035043120384,-0.015271631069481373
1697842580151516000,1.444515869140625,-0.02321287989616394,-0.02626720629632473,-0.019547687843441963
1697842580161678000,1.454677978515625,-0.02382374368607998,-0.013439035043120384,-0.025656340643763542
1697842580171541000,1.464541015625,-0.028099801391363144,0.0012217304902151227,-0.00855211354792118
1697842580181689000,1.474689208984375,-0.031154127791523933,0.0012217304902151227,-0.015882495790719986
1697842580192192000,1.48519189453125,-0.039095375686883926,-0.01710422709584236,0.00366519158706069
1697842580201770000,1.49477001953125,-0.039095375686883926,-0.01710422709584236,0.013439035043120384
1697842580211705000,1.504705078125,-0.03176499158143997,-0.03237585723400116,0.010995574295520782
1697842580221665000,1.5146650390625,-0.042760565876960754,-0.015271631069481373,0.014049900695681572
1697842580231609000,1.524609130859375,-0.04764748737215996,-0.0006108652451075613,0.04703662544488907
1697842580241723000,1.534722900390625,-0.04398229718208313,-0.004886921960860491,0.029932396486401558
1697842580251911000,1.544910888671875,-0.03726277872920036,-0.006108652334660292,0.004886921960860491
1697842580261699000,1.554698974609375,-0.039706241339445114,0.010995574295520782,0.014049900695681572
1697842580271563000,1.56456298828125,-0.0403171069920063,0.024434609338641167,0.01038470957428217
1697842580281713000,1.574712890625,-0.03726277872920036,-0.003054326167330146,-0.007941247895359993
1697842580291560000,1.584559814453125,-0.04153883829712868,-0.0012217304902151227,0.016493361443281174
1697842580301717000,1.594717041015625,-0.03726277872920036,-0.015882495790719986,-0.0006108652451075613
1697842580311783000,1.604782958984375,-0.03237585723400116,-0.02076941914856434,0.03848451003432274
1697842580321890000,1.61489013671875,-0.036651913076639175,-0.03726277872920036,0.021380282938480377
1697842580332285000,1.625284912109375,-0.0403171069920063,-0.03726277872920036,0.04886921867728233
1697842580341871000,1.63487109375,-0.03481931984424591,-0.03237585723400116,0.022602014243602753
1697842580351893000,1.64489306640625,-0.028099801391363144,-0.039095375686883926,0.01771509274840355
1697842580361876000,1.6548759765625,-0.018936822190880775,-0.018325956538319588,0.009162978269159794
1697842580371875000,1.664875,-0.013439035043120384,-0.04092797264456749,0.001832595793530345
1697842580382321000,1.67532080078125,-0.01771509274840355,-0.036651913076639175,-0.01466076634824276
1697842580392033000,1.685032958984375,-0.02871066704392433,-0.016493361443281174,0.010995574295520782
1697842580402086000,1.6950859375,-0.0354301854968071,0.005497787147760391,-0.004886921960860491
1697842580412059000,1.705058837890625,-0.03848451003432274,0.019547687843441963,-0.013439035043120384
1697842580421925000,1.714925048828125,-0.03726277872920036,0.009773843921720982,0.02015855349600315
1697842580432468000,1.725468017578125,-0.051312681287527084,0.007941247895359993,0.03298672288656235
1697842580441961000,1.7349609375,-0.0555887371301651,0.012217304669320583,0.042760565876960754
1697842580451860000,1.74485986328125,-0.04886921867728233,-0.01038470957428217,0.03420845419168472
1697842580461915000,1.754914794921875,-0.03481931984424591,-0.010995574295520782,0.04459316283464432
1697842580472044000,1.7650439453125,-0.02871066704392433,-0.01710422709584236,0.04092797264456749
1697842580481974000,1.77497412109375,-0.02687807008624077,-0.006108652334660292,0.029932396486401558
1697842580492401000,1.78540087890625,-0.025045474991202354,-0.00366519158706069,0.02871066704392433
1697842580501726000,1.794725830078125,-0.025045474991202354,-0.00855211354792118,0.018936822190880775
1697842580511981000,1.80498095703125,-0.03176499158143997,-0.00855211354792118,0.03237585723400116
1697842580521649000,1.81464892578125,-0.03420845419168472,0.00427605677396059,0.0403171069920063
1697842580531616000,1.824615966796875,-0.039095375686883926,0.013439035043120384,0.039095375686883926
1697842580541556000,1.834555908203125,-0.0403171069920063,0.010995574295520782,0.0507018156349659
1697842580551484000,1.84448388671875,-0.039706241339445114,0.010995574295520782,0.07635815441608429
1697842580561884000,1.8548837890625,-0.04153883829712868,0.00855211354792118,0.0757472887635231
1697842580571459000,1.864458984375,-0.03481931984424591,-0.00733038317412138,0.07941248267889023
1697842580581752000,1.874751953125,-0.0403171069920063,-0.0024434609804302454,0.0806342139840126
1697842580591455000,1.884455078125,-0.04459316283464432,0.022602014243602753,0.056810468435287476
1697842580601468000,1.894468017578125,-0.03726277872920036,0.012828170321881771,0.03726277872920036
1697842580611583000,1.9045830078125,-0.030543262138962746,0.029932396486401558,0.029932396486401558
1697842580621752000,1.914751953125,-0.025045474991202354,0.018325956538319588,0.02382374368607998
1697842580631674000,1.924674072265625,-0.019547687843441963,0.006108652334660292,0.01710422709584236
1697842580641745000,1.934744873046875,-0.013439035043120384,0.010995574295520782,0.018325956538319588
1697842580651741000,1.944740966796875,-0.016493361443281174,0.00427605677396059,0.014049900695681572
1697842580661921000,1.954921142578125,-0.01710422709584236,0.022602014243602753,0.018325956538319588
1697842580671903000,1.964903076171875,-0.02382374368607998,0.04398229718208313,0.00733038317412138
1697842580681745000,1.974744873046875,-0.01710422709584236,0.022602014243602753,-0.01038470957428217
1697842580691880000,1.9848798828125,-0.02932153269648552,0.06169738993048668,0.007941247895359993
1697842580701744000,1.994744140625,-0.02382374368607998,0.04886921867728233,-0.018325956538319588
1697842580711756000,2.004756103515625,-0.022602014243602753,0.021380282938480377,-0.031154127791523933
1697842580721843000,2.014843017578125,-0.03726277872920036,0.045204028487205505,-0.01466076634824276
1697842580731715000,2.024715087890625,-0.051312681287527084,0.039706241339445114,-0.01466076634824276
1697842580741927000,2.034927001953125,-0.056810468435287476,0.03787364438176155,-0.006108652334660292
1697842580751761000,2.044760986328125,-0.059864792972803116,0.021991148591041565,-0.005497787147760391
1697842580761621000,2.05462109375,-0.056810468435287476,0.029932396486401558,-0.01038470957428217
1697842580771729000,2.06472900390625,-0.051312681287527084,0.015882495790719986,-0.012217304669320583
1697842580781715000,2.07471484375,-0.03787364438176155,0.00733038317412138,-0.01771509274840355
1697842580791678000,2.084677978515625,-0.02687807008624077,0.009162978269159794,-0.01771509274840355
1697842580802014000,2.095013916015625,-0.018936822190880775,-0.005497787147760391,-0.02626720629632473
1697842580811812000,2.10481201171875,-0.02321287989616394,0.012217304669320583,-0.028099801391363144
1697842580821932000,2.11493212890625,-0.031154127791523933,0.027488935738801956,-0.009162978269159794
1697842580831879000,2.12487890625,-0.02382374368607998,0.02687807008624077,-0.04703662544488907
1697842580841847000,2.134846923828125,-0.028099801391363144,0.007941247895359993,-0.01160643994808197
1697842580851681000,2.144680908203125,-0.036651913076639175,0.02687807008624077,-0.03237585723400116
1697842580861747000,2.154746826171875,-0.03726277872920036,0.025656340643763542,-0.03176499158143997
1697842580871965000,2.16496484375,-0.033597588539123535,0.02687807008624077,-0.02015855349600315
1697842580882067000,2.17506689453125,-0.039095375686883926,0.027488935738801956,-0.01466076634824276
1697842580891821000,2.184821044921875,-0.04092797264456749,0.05619960278272629,-0.01466076634824276
1697842580901736000,2.19473583984375,-0.04153883829712868,0.05864306539297104,-0.016493361443281174
1697842580911562000,2.20456201171875,-0.04092797264456749,0.042760565876960754,-0.006108652334660292
1697842580921596000,2.214595947265625,-0.04642575979232788,0.04886921867728233,0.006719517521560192
1697842580931451000,2.224450927734375,-0.04764748737215996,0.0354301854968071,-0.0024434609804302454
1697842580941587000,2.2345869140625,-0.04642575979232788,0.031154127791523933,-0.00366519158706069
1697842580951610000,2.244610107421875,-0.051312681287527084,0.025045474991202354,0.0024434609804302454
1697842580961778000,2.25477783203125,-0.05314527451992035,0.03298672288656235,0.015271631069481373
1697842580971475000,2.264474853515625,-0.05619960278272629,0.03787364438176155,0.00733038317412138
1697842580981797000,2.274797119140625,-0.04764748737215996,0.03848451003432274,0.01771509274840355
1697842580992243000,2.285242919921875,-0.03787364438176155,0.025656340643763542,0.01771509274840355
1697842581002242000,2.295241943359375,-0.0354301854968071,-0.0024434609804302454,0.010995574295520782
1697842581011571000,2.304571044921875,-0.03848451003432274,0.00427605677396059,0.03298672288656235
1697842581021538000,2.3145380859375,-0.04153883829712868,-0.004886921960860491,-0.0024434609804302454
1697842581031486000,2.32448583984375,-0.039706241339445114,0.003054326167330146,0.009162978269159794
1697842581041641000,2.334640869140625,-0.03726277872920036,0.029932396486401558,0.00427605677396059
1697842581051489000,2.344489013671875,-0.036041051149368286,0.009773843921720982,-0.001832595793530345
1697842581061806000,2.35480615234375,-0.04092797264456749,-0.010995574295520782,0.02015855349600315
1697842581071485000,2.36448486328125,-0.03848451003432274,-0.03420845419168472,0.00733038317412138
1697842581081708000,2.3747080078125,-0.0403171069920063,-0.009162978269159794,0.01038470957428217
1697842581091686000,2.384685791015625,-0.03848451003432274,-0.007941247895359993,-0.00733038317412138
1697842581101684000,2.39468408203125,-0.04459316283464432,-0.015271631069481373,-0.005497787147760391
1697842581111509000,2.404509033203125,-0.04886921867728233,0.001832595793530345,0.018936822190880775
1697842581121630000,2.4146298828125,-0.04459316283464432,-0.010995574295520782,0.02076941914856434
1697842581131636000,2.424635986328125,-0.031154127791523933,-0.029932396486401558,0.00733038317412138
1697842581141678000,2.434677978515625,-0.03176499158143997,-0.024434609338641167,0.013439035043120384
1697842581151625000,2.444625,-0.03481931984424591,-0.01160643994808197,0.01466076634824276
1697842581161622000,2.4546220703125,-0.03481931984424591,-0.010995574295520782,-0.016493361443281174
1697842581171631000,2.464631103515625,-0.04092797264456749,-0.021991148591041565,-0.009162978269159794
1697842581181685000,2.47468505859375,-0.036651913076639175,-0.0354301854968071,-0.006719517521560192
1697842581191638000,2.484637939453125,-0.03787364438176155,-0.04214970022439957,0.021991148591041565
1697842581201629000,2.49462890625,-0.04642575979232788,-0.05192354694008827,0.04092797264456749
1697842581211639000,2.50463916015625,-0.04642575979232788,-0.039706241339445114,0.06169738993048668
1697842581221767000,2.514766845703125,-0.03848451003432274,-0.04153883829712868,0.04398229718208313
1697842581231766000,2.52476611328125,-0.03298672288656235,-0.05497787147760391,0.05253441259264946
1697842581241765000,2.53476513671875,-0.03481931984424591,-0.06108652427792549,0.029932396486401558
1697842581251957000,2.54495703125,-0.039706241339445114,-0.06475171446800232,0.02015855349600315
1697842581261759000,2.554759033203125,-0.03726277872920036,-0.07452555745840073,0.005497787147760391
1697842581271569000,2.56456884765625,-0.03726277872920036,-0.07941248267889023,0.02015855349600315
1697842581281623000,2.574623046875,-0.03298672288656235,-0.04764748737215996,0.025045474991202354
1697842581291747000,2.5847470703125,-0.02382374368607998,-0.04459316283464432,0.030543262138962746
1697842581302295000,2.595294921875,-0.02382374368607998,-0.054367005825042725,0.02382374368607998
1697842581311840000,2.604840087890625,-0.03237585723400116,-0.03848451003432274,0.03176499158143997
1697842581322176000,2.615176025390625,-0.03298672288656235,-0.025045474991202354,0.031154127791523933
1697842581331885000,2.624885009765625,-0.027488935738801956,-0.04764748737215996,0.016493361443281174
1697842581341932000,2.63493212890625,-0.039095375686883926,-0.05253441259264946,0.04214970022439957
1697842581352077000,2.6450771484375,-0.05314527451992035,-0.033597588539123535,0.05009094998240471
1697842581361888000,2.654887939453125,-0.05192354694008827,-0.048258353024721146,0.0354301854968071
1697842581371807000,2.664806884765625,-0.05497787147760391,-0.04153883829712868,0.02932153269648552
1697842581382014000,2.675013916015625,-0.05803219974040985,-0.0354301854968071,0.012217304669320583
1697842581391893000,2.68489306640625,-0.05864306539297104,-0.039706241339445114,0.005497787147760391
1697842581402454000,2.6954541015625,-0.05253441259264946,-0.060475658625364304,0.012217304669320583
1697842581411870000,2.704869873046875,-0.0555887371301651,-0.07208210229873657,0.0354301854968071
1697842581421864000,2.714864013671875,-0.05192354694008827,-0.07391469180583954,0.036651913076639175
1697842581431867000,2.724866943359375,-0.045204028487205505,-0.08002334833145142,0.04092797264456749
1697842581441952000,2.734951904296875,-0.033597588539123535,-0.06963863968849182,0.03787364438176155
1697842581451890000,2.744889892578125,-0.03237585723400116,-0.07024950534105301,0.04642575979232788
1697842581461941000,2.75494091796875,-0.028099801391363144,-0.07147123664617538,0.04092797264456749
1697842581471940000,2.764940185546875,-0.031154127791523933,-0.06658431142568588,0.04703662544488907
1697842581482061000,2.77506103515625,-0.021991148591041565,-0.06963863968849182,0.03787364438176155
1697842581492355000,2.78535498046875,-0.02321287989616394,-0.05253441259264946,0.02687807008624077
1697842581502271000,2.79527099609375,-0.012217304669320583,-0.04398229718208313,0.00733038317412138
1697842581512036000,2.8050361328125,-0.015271631069481373,-0.03848451003432274,0.015271631069481373
1697842581521774000,2.814774169921875,-0.021991148591041565,-0.004886921960860491,0.03420845419168472
1697842581531879000,2.82487890625,-0.02321287989616394,-0.009162978269159794,0.05009094998240471
1697842581541948000,2.834947998046875,-0.033597588539123535,-0.015882495790719986,0.12217304855585098
1697842581551936000,2.84493603515625,-0.03298672288656235,-0.021991148591041565,0.20402899384498596
1697842581561653000,2.854653076171875,-0.014049900695681572,-0.11789698898792267,0.18325957655906677
1697842581571614000,2.864614013671875,-0.04642575979232788,-0.07269296050071716,0.19058994948863983
1697842581581662000,2.874661865234375,-0.059864792972803116,0.007941247895359993,0.21930062770843506
1697842581591635000,2.884635009765625,-0.04214970022439957,-0.029932396486401558,0.18020524084568024
1697842581601913000,2.8949130859375,-0.001832595793530345,-0.07880161702632904,0.1771509200334549
1697842581611499000,2.9044990234375,0.02871066704392433,-0.06169738993048668,0.17409659922122955
1697842581621689000,2.914689208984375,0.05253441259264946,-0.009773843921720982,0.13927727937698364
1697842581631527000,2.92452685546875,0.09346238523721695,0.05192354694008827,0.14233160018920898
1697842581641692000,2.93469189453125,0.16249015927314758,0.05192354694008827,0.13561208546161652
1697842581651517000,2.944516845703125,0.1417207419872284,-0.07269296050071716,0.17104226350784302
1697842581661975000,2.95497509765625,0.04153883829712868,-0.00427605677396059,0.19425514340400696
1697842581671714000,2.964714111328125,-0.025045474991202354,0.05253441259264946,0.16004669666290283
1697842581681953000,2.974953125,-0.025656340643763542,0.022602014243602753,0.1472185254096985
1697842581691904000,2.984904052734375,-0.00733038317412138,0.031154127791523933,0.08918632566928864
1697842581701796000,2.994796142578125,-0.016493361443281174,-0.0006108652451075613,0.08246681094169617
1697842581712038000,3.005037841796875,-0.07269296050071716,0.030543262138962746,0.08368854224681854
1697842581721725000,3.014724853515625,-0.10323622822761536,0.11728613078594208,0.0708603709936142
1697842581731514000,3.02451416015625,-0.07635815441608429,0.09040805697441101,0.027488935738801956
1697842581741566000,3.03456591796875,-0.02382374368607998,0.07269296050071716,0.009773843921720982
1697842581751536000,3.0445361328125,-0.00855211354792118,0.036651913076639175,0.04398229718208313
1697842581761653000,3.054653076171875,-0.03726277872920036,-0.004886921960860491,0.15271630883216858
1697842581771517000,3.064516845703125,-0.06963863968849182,0.03237585723400116,0.2620611786842346
1697842581781526000,3.074526123046875,-0.08552113175392151,0.016493361443281174,0.28099802136421204
1697842581791648000,3.08464794921875,-0.1459967941045761,-0.15943582355976105,0.24617868661880493
1697842581801683000,3.094682861328125,-0.19364428520202637,-0.0403171069920063,0.2064724564552307
1697842581811774000,3.10477392578125,-0.18325957655906677,0.13744467496871948,0.13805554807186127
1697842581821671000,3.1146708984375,-0.09834930300712585,-0.08002334833145142,0.14294247329235077
1697842581831612000,3.12461181640625,-0.05375614017248154,-0.15454891324043274,0.13805554807186127
1697842581841669000,3.134669189453125,-0.05192354694008827,-0.033597588539123535,0.08307767659425735
1697842581851620000,3.1446201171875,-0.05619960278272629,-0.01038470957428217,0.0024434609804302454
1697842581861667000,3.1546669921875,-0.07880161702632904,0.01771509274840355,-0.05253441259264946
1697842581871530000,3.164530029296875,-0.08124507963657379,0.08552113175392151,-0.009773843921720982
1697842581881706000,3.1747060546875,-0.05803219974040985,0.08674286305904388,0.06902777403593063
1697842581892206000,3.1852060546875,-0.027488935738801956,-0.012828170321881771,0.07452555745840073
1697842581901868000,3.194867919921875,-0.03726277872920036,0.00427605677396059,0.00855211354792118
1697842581911758000,3.204758056640625,-0.03726277872920036,0.060475658625364304,-0.051312681287527084
1697842581921821000,3.214821044921875,0.00366519158706069,0.05192354694008827,-0.06414084881544113
1697842581931632000,3.224632080078125,0.05314527451992035,-0.08796459436416626,-0.059864792972803116
1697842581941674000,3.234674072265625,0.06841690838336945,-0.0354301854968071,-0.022602014243602753
1697842581951627000,3.244626953125,0.09834930300712585,0.05009094998240471,-0.0507018156349659
1697842581961660000,3.254659912109375,0.1014036312699318,-0.05009094998240471,-0.09712757170200348
1697842581971878000,3.2648779296875,0.05314527451992035,-0.06536258012056351,-0.16554448008537292
1697842581981758000,3.274758056640625,-0.006719517521560192,-0.025045474991202354,-0.2376265823841095
1697842581991770000,3.28477001953125,-0.03176499158143997,-0.01466076634824276,-0.19792033731937408
1697842582003362000,3.296362060546875,0.004886921960860491,-0.02321287989616394,-0.07391469180583954
1697842582011505000,3.3045048828125,0.03481931984424591,-0.04703662544488907,-0.03420845419168472
1697842582021683000,3.314682861328125,0.04703662544488907,-0.06108652427792549,-0.07513642311096191
1697842582031591000,3.3245908203125,0.03787364438176155,0.01038470957428217,-0.13500121235847473
1697842582041633000,3.334633056640625,0.03298672288656235,-0.027488935738801956,-0.13561208546161652
1697842582051619000,3.344619140625,0.01710422709584236,-0.10812314599752426,-0.192422553896904
1697842582061793000,3.35479296875,0.01466076634824276,-0.08979719132184982,-0.23640485107898712
1697842582071868000,3.364867919921875,-0.010995574295520782,-0.09712757170200348,-0.1875356286764145
1697842582081664000,3.3746640625,-0.03726277872920036,-0.10445795953273773,-0.05375614017248154
1697842582091902000,3.38490185546875,-0.021991148591041565,-0.019547687843441963,0.00366519158706069
1697842582101841000,3.3948408203125,-0.00733038317412138,0.006719517521560192,-0.029932396486401558
1697842582111766000,3.40476611328125,-0.03176499158143997,-0.015271631069481373,-0.11911872029304504
1697842582121952000,3.414951904296875,-0.06352998316287994,0.05253441259264946,-0.12034045159816742
1697842582132711000,3.4257109375,-0.0659734457731247,0.10873401165008545,0.019547687843441963
1697842582141596000,3.434595947265625,-0.045204028487205505,0.04703662544488907,0.06658431142568588
1697842582151623000,3.444622802734375,-0.03237585723400116,-0.00733038317412138,0.024434609338641167
1697842582161802000,3.454802001953125,-0.048258353024721146,-0.022602014243602753,0.02687807008624077
1697842582171626000,3.4646259765625,-0.08124507963657379,-0.03298672288656235,0.03481931984424591
1697842582181730000,3.47472998046875,-0.10384709388017654,0.02382374368607998,-0.03848451003432274
1697842582191739000,3.48473876953125,-0.08674286305904388,0.01710422709584236,-0.029932396486401558
1697842582202113000,3.495113037109375,-0.08979719132184982,-0.01160643994808197,0.007941247895359993
1697842582211916000,3.504916015625,-0.09834930300712585,0.054367005825042725,0.06719517707824707
1697842582221793000,3.51479296875,-0.08307767659425735,0.14782938361167908,0.1569923609495163
1697842582231909000,3.5249091796875,-0.0403171069920063,0.13255776464939117,0.10018189996480942
1697842582241824000,3.534823974609375,-0.00733038317412138,0.009773843921720982,0.056810468435287476
1697842582251873000,3.544873046875,-0.042760565876960754,-0.03726277872920036,0.06475171446800232
1697842582261709000,3.554708984375,-0.06475171446800232,0.00366519158706069,0.03298672288656235
1697842582271682000,3.56468212890625,-0.04703662544488907,-0.006108652334660292,0.03848451003432274
1697842582281760000,3.574760009765625,0.001832595793530345,-0.08002334833145142,0.08674286305904388
1697842582291703000,3.584703125,-0.007941247895359993,-0.0757472887635231,0.03848451003432274
1697842582302058000,3.59505810546875,-0.018325956538319588,0.09957103431224823,-0.012217304669320583
1697842582312238000,3.605238037109375,-0.04153883829712868,0.08002334833145142,0.01466076634824276
1697842582322492000,3.615491943359375,-0.09040805697441101,-0.08491026610136032,0.13927727937698364
1697842582332748000,3.625748046875,-0.10262536257505417,-0.02076941914856434,0.1667662113904953
1697842582341926000,3.63492578125,-0.06169738993048668,-0.027488935738801956,0.13316862285137177
1697842582351685000,3.64468505859375,-0.036651913076639175,-0.056810468435287476,0.14966198801994324
1697842582364708000,3.6577080078125,-0.05314527451992035,-0.06352998316287994,0.1411098688840866
1697842582381932000,3.67493212890625,-0.02687807008624077,0.00366519158706069,-0.0354301854968071
1697842582391683000,3.68468310546875,-0.015882495790719986,-0.025045474991202354,0.03848451003432274
1697842582402011000,3.695010986328125,-0.033597588539123535,-0.030543262138962746,0.13805554807186127
1697842582411699000,3.704698974609375,-0.054367005825042725,0.004886921960860491,0.1215621829032898
1697842582421935000,3.71493505859375,-0.05497787147760391,0.007941247895359993,0.08796459436416626
1697842582431678000,3.724677978515625,-0.05314527451992035,0.0012217304902151227,0.08185594528913498
1697842582441853000,3.73485302734375,-0.06352998316287994,0.010995574295520782,0.07635815441608429
1697842582452082000,3.74508203125,-0.0708603709936142,0.02687807008624077,0.00855211354792118
1697842582461929000,3.754928955078125,-0.06536258012056351,0.015271631069481373,-0.010995574295520782
1697842582471831000,3.7648310546875,-0.06719517707824707,0.025656340643763542,-0.031154127791523933
1697842582481736000,3.77473583984375,-0.04092797264456749,0.02932153269648552,-0.022602014243602753
1697842582491817000,3.78481689453125,-0.02321287989616394,0.015882495790719986,-0.009162978269159794
1697842582501968000,3.7949677734375,-0.02015855349600315,0.02076941914856434,0.006108652334660292
1697842582511961000,3.804961181640625,-0.0555887371301651,0.05009094998240471,0.004886921960860491
1697842582521834000,3.814833984375,-0.06963863968849182,0.04886921867728233,0.03298672288656235
1697842582532133000,3.825133056640625,-0.07391469180583954,0.0403171069920063,0.006108652334660292
1697842582541885000,3.834885009765625,-0.05192354694008827,-0.021380282938480377,0.00733038317412138
1697842582551945000,3.844945068359375,-0.06719517707824707,-0.10384709388017654,0.027488935738801956
1697842582561852000,3.854851806640625,-0.06658431142568588,-0.042760565876960754,-0.01466076634824276
1697842582571833000,3.8648330078125,-0.039706241339445114,0.031154127791523933,-0.04886921867728233
1697842582581947000,3.87494677734375,0.003054326167330146,0.07024950534105301,-0.05925392732024193
1697842582591847000,3.884846923828125,0.0024434609804302454,0.018325956538319588,-0.05253441259264946
1697842582601909000,3.894908935546875,-0.0354301854968071,0.0012217304902151227,-0.02932153269648552
1697842582611832000,3.90483203125,-0.05192354694008827,0.05803219974040985,-0.03237585723400116
1697842582621882000,3.914882080078125,-0.05314527451992035,-0.0012217304902151227,-0.016493361443281174
1697842582632090000,3.925090087890625,-0.07757988572120667,-0.036651913076639175,0.01771509274840355
1697842582641831000,3.934830810546875,-0.08002334833145142,-0.004886921960860491,0.009162978269159794
1697842582652445000,3.94544482421875,-0.05925392732024193,-0.00427605677396059,-0.01038470957428217
1697842582661845000,3.954844970703125,-0.03237585723400116,0.01160643994808197,-0.033597588539123535
1697842582671927000,3.964927001953125,-0.01771509274840355,0.03420845419168472,0.006719517521560192
1697842582681995000,3.9749951171875,-0.02321287989616394,0.05375614017248154,0.001832595793530345
1697842582692052000,3.985052001953125,-0.014049900695681572,0.06780604273080826,-0.04153883829712868
1697842582702032000,3.995031982421875,-0.025656340643763542,-0.019547687843441963,-0.006719517521560192
1697842582711875000,4.004875,-0.03787364438176155,-0.08246681094169617,0.0507018156349659
1697842582721929000,4.014928955078125,-0.04398229718208313,-0.04398229718208313,0.03481931984424591
1697842582732039000,4.025038818359375,-0.004886921960860491,0.003054326167330146,-0.05497787147760391
1697842582741832000,4.03483203125,0.018325956538319588,-0.05925392732024193,-0.07941248267889023
1697842582752105000,4.04510498046875,-0.021991148591041565,0.060475658625364304,0.013439035043120384
1697842582762012000,4.055011962890625,-0.01466076634824276,-0.027488935738801956,-0.02321287989616394
1697842582771830000,4.064830078125,-0.03481931984424591,0.00427605677396059,-0.04459316283464432
1697842582782181000,4.07518115234375,-0.022602014243602753,0.10995574295520782,0.0403171069920063
1697842582791703000,4.084703125,-0.03726277872920036,0.06963863968849182,0.1814269721508026
1697842582801757000,4.0947568359375,-0.025045474991202354,-0.04886921867728233,0.02871066704392433
1697842582811818000,4.10481787109375,-0.04153883829712868,-0.06352998316287994,-0.042760565876960754
1697842582821702000,4.114701904296875,-0.051312681287527084,0.039095375686883926,-0.00855211354792118
1697842582832370000,4.125369873046875,-0.0757472887635231,0.04764748737215996,0.0507018156349659
1697842582841894000,4.134893798828125,-0.08307767659425735,0.06719517707824707,0.08429940044879913
1697842582851868000,4.144867919921875,-0.0555887371301651,0.018936822190880775,0.0354301854968071
1697842582861958000,4.1549580078125,-0.07024950534105301,0.016493361443281174,0.01710422709584236
1697842582871863000,4.164863037109375,-0.0910189226269722,0.1765400618314743,0.06352998316287994
1697842582882230000,4.17522998046875,-0.05314527451992035,0.018936822190880775,0.06780604273080826
1697842582892542000,4.1855419921875,-0.0757472887635231,-0.13866640627384186,0.06902777403593063
1697842582902069000,4.195069091796875,-0.14477506279945374,-0.06108652427792549,0.10384709388017654
1697842582911978000,4.20497802734375,-0.1569923609495163,0.07635815441608429,0.11301007121801376
1697842582922041000,4.215041015625,-0.08979719132184982,0.01038470957428217,-0.021991148591041565
1697842582931920000,4.224919921875,-0.04398229718208313,-0.07880161702632904,-0.04642575979232788
1697842582941654000,4.234654052734375,-0.05803219974040985,-0.0555887371301651,-0.02076941914856434
1697842582951645000,4.24464501953125,-0.060475658625364304,0.015271631069481373,0.018936822190880775
1697842582961946000,4.254946044921875,-0.04153883829712868,0.00733038317412138,0.010995574295520782
1697842582971847000,4.264846923828125,-0.04153883829712868,-0.04153883829712868,0.07391469180583954
1697842582982060000,4.27506005859375,-0.08857546001672745,-0.09957103431224823,0.0910189226269722
1697842582991917000,4.2849169921875,-0.15943582355976105,-0.05497787147760391,0.14049901068210602
1697842583001091600,4.294091552734375,-0.1466076523065567,-0.00427605677396059,0.09468411654233932
1697842583013552000,4.30655224609375,-0.09224065393209457,-0.014049900695681572,0.05925392732024193
1697842583031480000,4.32447998046875,-0.05253441259264946,0.02015855349600315,0.05253441259264946
1697842583041528000,4.334528076171875,-0.06108652427792549,0.02015855349600315,0.02321287989616394
1697842583051479000,4.34447900390625,-0.05253441259264946,0.019547687843441963,0.04214970022439957
1697842583061784000,4.3547841796875,-0.056810468435287476,-0.001832595793530345,0.09040805697441101
1697842583071770000,4.36477001953125,-0.06658431142568588,0.00427605677396059,0.09285151958465576
1697842583081904000,4.374904052734375,-0.07330382615327835,0.010995574295520782,0.10201449692249298
1697842583091732000,4.38473193359375,-0.08796459436416626,0.022602014243602753,0.09896016865968704
1697842583101947000,4.39494677734375,-0.08185594528913498,0.021380282938480377,0.08918632566928864
1697842583111925000,4.404925048828125,-0.06352998316287994,0.033597588539123535,0.0757472887635231
1697842583121751000,4.4147509765625,-0.033597588539123535,0.03787364438176155,0.0403171069920063
1697842583132052000,4.425052001953125,-0.01771509274840355,0.04153883829712868,0.021380282938480377
1697842583141645000,4.43464501953125,-0.021991148591041565,0.06902777403593063,0.028099801391363144
1697842583151554000,4.444553955078125,-0.021991148591041565,0.0659734457731247,-0.00366519158706069
1697842583161884000,4.4548837890625,-0.012828170321881771,0.06475171446800232,-0.03848451003432274
1697842583171648000,4.46464794921875,-0.0006108652451075613,0.08429940044879913,-0.06475171446800232
1697842583182049000,4.475049072265625,0.02626720629632473,0.08796459436416626,-0.14049901068210602
1697842583191805000,4.484804931640625,0.04703662544488907,0.08246681094169617,-0.18509216606616974
1697842583201870000,4.4948701171875,0.056810468435287476,0.05009094998240471,-0.22418753802776337
1697842583211738000,4.504738037109375,0.0403171069920063,0.016493361443281174,-0.2932153046131134
1697842583222158000,4.515157958984375,0.07269296050071716,0.00855211354792118,-0.29565876722335815
1697842583231677000,4.524677001953125,0.05497787147760391,-0.03298672288656235,-0.3341432809829712
1697842583241785000,4.53478515625,0.025045474991202354,-0.06658431142568588,-0.32131510972976685
1697842583251701000,4.544700927734375,-0.0403171069920063,-0.05742133408784866,-0.2932153046131134
1697842583261958000,4.5549580078125,-0.039095375686883926,-0.10751228034496307,-0.2828305959701538
1697842583271691000,4.56469091796875,-0.06841690838336945,-0.07941248267889023,-0.12095131725072861
1697842583281918000,4.57491796875,-0.03176499158143997,-0.08124507963657379,-0.15027284622192383
1697842583291688000,4.58468798828125,-0.01771509274840355,-0.036651913076639175,-0.1508837193250656
1697842583302100000,4.595099853515625,0.01160643994808197,0.01038470957428217,-0.07024950534105301
1697842583311899000,4.60489892578125,0.03420845419168472,0.027488935738801956,-0.05314527451992035
1697842583321661000,4.614660888671875,0.036041051149368286,0.010995574295520782,-0.07941248267889023
1697842583331836000,4.6248359375,0.001832595793530345,-0.007941247895359993,-0.08124507963657379
1697842583341705000,4.634705078125,-0.06658431142568588,-0.04642575979232788,-0.10323622822761536
1697842583351740000,4.644739990234375,-0.13316862285137177,-0.14049901068210602,-0.14416420459747314
1697842583362082000,4.65508203125,-0.17104226350784302,-0.1869247704744339,-0.15454891324043274
1697842583372034000,4.665033935546875,-0.18509216606616974,-0.15821409225463867,-0.1765400618314743
1697842583382336000,4.6753359375,-0.17409659922122955,-0.09346238523721695,-0.04092797264456749
1697842583391966000,4.684966064453125,-0.21135938167572021,-0.07635815441608429,0.16859880089759827
1697842583401894000,4.694893798828125,-0.21319197118282318,-0.06475171446800232,0.15271630883216858
1697842583411670000,4.704669921875,-0.1918116807937622,-0.028099801391363144,0.1569923609495163
1697842583422381000,4.715381103515625,-0.048258353024721146,0.07330382615327835,0.08429940044879913
1697842583432105000,4.72510498046875,-0.09834930300712585,0.09346238523721695,0.18448130786418915
1697842583441935000,4.73493505859375,-0.039706241339445114,-0.012828170321881771,0.027488935738801956
1697842583451807000,4.744806884765625,0.05619960278272629,0.014049900695681572,0.07452555745840073
1697842583461842000,4.754842041015625,0.16920967400074005,0.04214970022439957,0.00366519158706069
1697842583472063000,4.76506298828125,0.23640485107898712,0.03176499158143997,-0.04459316283464432
1697842583481786000,4.7747861328125,0.36590829491615295,0.10934487730264664,-0.03848451003432274
1697842583491858000,4.78485791015625,0.4202753007411957,0.12950342893600464,0.027488935738801956
1697842583502192000,4.795192138671875,-0.033597588539123535,0.13866640627384186,-0.10384709388017654
1697842583512047000,4.805047119140625,-0.030543262138962746,0.09712757170200348,-0.010995574295520782
1697842583522154000,4.815154052734375,0.15821409225463867,0.0555887371301651,0.23090706765651703
1697842583532195000,4.825195068359375,0.02015855349600315,0.006108652334660292,0.00855211354792118
1697842583541729000,4.83472900390625,-0.031154127791523933,0.012217304669320583,-0.02382374368607998
1697842583551605000,4.84460498046875,-0.018936822190880775,0.015271631069481373,0.022602014243602753
1697842583561517000,4.85451708984375,-0.02626720629632473,0.018325956538319588,-0.00427605677396059
1697842583571653000,4.864653076171875,-0.0507018156349659,0.04459316283464432,0.02076941914856434
1697842583581899000,4.87489892578125,-0.09529497474431992,0.060475658625364304,0.04153883829712868
1697842583591954000,4.884953857421875,-0.13927727937698364,0.06169738993048668,0.06658431142568588
1697842583601926000,4.89492578125,-0.21991148591041565,0.02015855349600315,0.10262536257505417
1697842583612117000,4.905116943359375,-0.2431243658065796,-0.02015855349600315,0.1160643994808197
1697842583621941000,4.91494091796875,-0.22968533635139465,-0.05253441259264946,0.09529497474431992
1697842583631717000,4.924717041015625,-0.20402899384498596,-0.08002334833145142,0.09407325088977814
1697842583641840000,4.934840087890625,-0.19364428520202637,-0.09957103431224823,0.08674286305904388
1697842583652306000,4.945305908203125,-0.2125810980796814,-0.12522737681865692,0.08429940044879913
1697842583661692000,4.95469189453125,-0.19547687470912933,-0.09773843735456467,0.07330382615327835
1697842583671648000,4.96464794921875,-0.15332718193531036,-0.031154127791523933,0.06414084881544113
1697842583682630000,4.9756298828125,-0.09957103431224823,0.016493361443281174,0.08185594528913498
1697842583691573000,4.984572998046875,-0.07941248267889023,0.015271631069481373,0.10018189996480942
1697842583701627000,4.994626953125,-0.08002334833145142,0.00733038317412138,0.11972958594560623
1697842583711621000,5.00462109375,-0.09040805697441101,-0.001832595793530345,0.13927727937698364
1697842583721931000,5.014930908203125,-0.08491026610136032,-0.013439035043120384,0.14294247329235077
1697842583731967000,5.024967041015625,-0.0659734457731247,-0.024434609338641167,0.12217304855585098
1697842583742121000,5.035120849609375,-0.04214970022439957,-0.02687807008624077,0.0861319974064827
1697842583751818000,5.04481787109375,-0.01771509274840355,-0.01710422709584236,0.06658431142568588
1697842583762104000,5.05510400390625,0.0006108652451075613,-0.02015855349600315,0.04398229718208313
1697842583771812000,5.06481201171875,0.012828170321881771,-0.019547687843441963,0.018936822190880775
1697842583781958000,5.0749580078125,0.012217304669320583,-0.015882495790719986,0.01710422709584236
1697842583791903000,5.084903076171875,0.00427605677396059,-0.0012217304902151227,0.022602014243602753
1697842583801865000,5.094864990234375,-0.001832595793530345,0.0006108652451075613,0.02015855349600315
1697842583812045000,5.105045166015625,-0.006108652334660292,-0.00366519158706069,0.00733038317412138
1697842583821929000,5.114928955078125,-0.00427605677396059,-0.00366519158706069,-0.00855211354792118
1697842583831936000,5.12493603515625,-0.006719517521560192,-0.005497787147760391,-0.02871066704392433
1697842583841923000,5.134923095703125,-0.012828170321881771,-0.016493361443281174,-0.03420845419168472
1697842583852086000,5.1450859375,-0.024434609338641167,-0.015882495790719986,-0.0354301854968071
1697842583861798000,5.1547978515625,-0.042760565876960754,-0.005497787147760391,-0.02626720629632473
1697842583872015000,5.16501513671875,-0.0555887371301651,0.003054326167330146,-0.012828170321881771
1697842583881960000,5.1749599609375,-0.06352998316287994,0.0012217304902151227,-0.01038470957428217
1697842583891551000,5.184551025390625,-0.056810468435287476,0.001832595793530345,-0.015882495790719986
1697842583901737000,5.194737060546875,-0.04642575979232788,0.001832595793530345,-0.029932396486401558
1697842583911635000,5.204635009765625,-0.0403171069920063,0.0012217304902151227,-0.03787364438176155
1697842583921792000,5.2147919921875,-0.04214970022439957,-0.001832595793530345,-0.04398229718208313
1697842583932624000,5.225623779296875,-0.05375614017248154,-0.00427605677396059,-0.04214970022439957
1697842583942058000,5.23505810546875,-0.06902777403593063,-0.00427605677396059,-0.036041051149368286
1697842583951575000,5.244574951171875,-0.07819075137376785,-0.0006108652451075613,-0.02382374368607998
1697842583963786000,5.256785888671875,-0.059864792972803116,-0.00855211354792118,-0.016493361443281174
1697842583971870000,5.264869873046875,-0.059864792972803116,-0.00855211354792118,-0.016493361443281174
1697842583982332000,5.275331787109375,-0.04214970022439957,-0.007941247895359993,-0.021380282938480377
1697842583991626000,5.2846259765625,-0.02687807008624077,-0.00366519158706069,-0.021991148591041565
1697842584001632000,5.294632080078125,-0.022602014243602753,-0.0006108652451075613,-0.02687807008624077
1697842584011551000,5.304551025390625,-0.028099801391363144,0.00366519158706069,-0.02321287989616394
1697842584021645000,5.31464501953125,-0.0354301854968071,0.01038470957428217,-0.01771509274840355
1697842584031507000,5.3245068359375,-0.04092797264456749,0.019547687843441963,-0.01160643994808197
1697842584041523000,5.33452294921875,-0.0403171069920063,0.018936822190880775,0.001832595793530345
1697842584051592000,5.344592041015625,-0.036651913076639175,0.015271631069481373,0.006719517521560192
1697842584061568000,5.354568115234375,-0.03298672288656235,0.013439035043120384,0.01160643994808197
1697842584071480000,5.36447998046875,-0.031154127791523933,0.00733038317412138,0.012828170321881771
1697842584081473000,5.37447314453125,-0.02932153269648552,0.003054326167330146,0.009162978269159794
1697842584091459000,5.384458984375,-0.029932396486401558,0.006108652334660292,0.0006108652451075613
1697842584101462000,5.3944619140625,-0.03420845419168472,0.015271631069481373,-0.006108652334660292
1697842584111552000,5.404552001953125,-0.03298672288656235,0.015882495790719986,-0.00733038317412138
1697842584121646000,5.41464599609375,-0.02932153269648552,0.013439035043120384,-0.007941247895359993
1697842584131453000,5.424452880859375,-0.024434609338641167,0.013439035043120384,-0.006108652334660292
1697842584141578000,5.434577880859375,-0.024434609338641167,0.012217304669320583,0.003054326167330146
1697842584151576000,5.444576171875,-0.027488935738801956,0.007941247895359993,0.009162978269159794
1697842584161586000,5.4545859375,-0.02932153269648552,-0.0006108652451075613,0.012217304669320583
1697842584171598000,5.46459814453125,-0.03237585723400116,-0.004886921960860491,0.010995574295520782
1697842584181583000,5.4745830078125,-0.03420845419168472,-0.001832595793530345,0.007941247895359993
1697842584191983000,5.484983154296875,-0.03237585723400116,-0.003054326167330146,0.01038470957428217
1697842584202440000,5.49543994140625,-0.02932153269648552,-0.005497787147760391,0.013439035043120384
1697842584211654000,5.50465380859375,-0.028099801391363144,-0.006108652334660292,0.013439035043120384
1697842584222091000,5.515091064453125,-0.033597588539123535,-0.003054326167330146,0.02015855349600315
1697842584231869000,5.524868896484375,-0.039706241339445114,0.0006108652451075613,0.030543262138962746
1697842584242329000,5.5353291015625,-0.045204028487205505,-0.0024434609804302454,0.033597588539123535
1697842584251867000,5.544866943359375,-0.048258353024721146,-0.0024434609804302454,0.03787364438176155
1697842584262030000,5.555030029296875,-0.04642575979232788,0.0006108652451075613,0.04092797264456749
1697842584272121000,5.56512109375,-0.04153883829712868,-0.0006108652451075613,0.042760565876960754
1697842584281828000,5.574828125,-0.039706241339445114,-0.009162978269159794,0.03848451003432274
1697842584292078000,5.585078125,-0.03848451003432274,-0.013439035043120384,0.03726277872920036
1697842584302058000,5.59505810546875,-0.04153883829712868,-0.012217304669320583,0.04459316283464432
1697842584311685000,5.60468505859375,-0.042760565876960754,-0.009162978269159794,0.05375614017248154
1697842584322731000,5.61573095703125,-0.04459316283464432,-0.00855211354792118,0.05864306539297104
1697842584331701000,5.624700927734375,-0.042760565876960754,-0.009162978269159794,0.05497787147760391
1697842584341732000,5.634732177734375,-0.0354301854968071,-0.006719517521560192,0.05009094998240471
1697842584351573000,5.644572998046875,-0.027488935738801956,-0.001832595793530345,0.04886921867728233
1697842584361841000,5.6548408203125,-0.018936822190880775,-0.006719517521560192,0.039706241339445114
1697842584371584000,5.664583984375,-0.01466076634824276,-0.00855211354792118,0.0354301854968071
1697842584382072000,5.675072021484375,-0.015882495790719986,-0.00855211354792118,0.036651913076639175
1697842584391916000,5.684916015625,-0.02076941914856434,-0.0012217304902151227,0.04398229718208313
1697842584401652000,5.69465185546875,-0.02687807008624077,-0.0006108652451075613,0.04092797264456749
1697842584411670000,5.704669921875,-0.03176499158143997,0.0012217304902151227,0.029932396486401558
1697842584421851000,5.714850830078125,-0.03237585723400116,0.004886921960860491,0.02871066704392433
1697842584431650000,5.724650146484375,-0.03298672288656235,0.00733038317412138,0.02382374368607998
1697842584441853000,5.73485302734375,-0.025656340643763542,0.00733038317412138,0.014049900695681572
1697842584451619000,5.744619140625,-0.02015855349600315,-0.001832595793530345,0.0024434609804302454
1697842584461823000,5.754822998046875,-0.013439035043120384,0.00733038317412138,-0.01710422709584236
1697842584472008000,5.765008056640625,-0.016493361443281174,0.009773843921720982,-0.028099801391363144
1697842584482252000,5.775251953125,-0.021380282938480377,0.00855211354792118,-0.042760565876960754
1697842584491772000,5.78477197265625,-0.029932396486401558,0.006719517521560192,-0.05009094998240471
1697842584501578000,5.794577880859375,-0.0403171069920063,0.01038470957428217,-0.04764748737215996
1697842584511779000,5.804779052734375,-0.05009094998240471,0.01160643994808197,-0.045204028487205505
1697842584521791000,5.814791015625,-0.054367005825042725,0.00427605677396059,-0.05192354694008827
1697842584532007000,5.8250068359375,-0.051312681287527084,0.005497787147760391,-0.0555887371301651
1697842584541572000,5.834572021484375,-0.04153883829712868,0.0024434609804302454,-0.06475171446800232
1697842584551612000,5.84461181640625,-0.036041051149368286,-0.0006108652451075613,-0.07330382615327835
1697842584561525000,5.85452490234375,-0.03420845419168472,-0.003054326167330146,-0.07819075137376785
1697842584571472000,5.864471923828125,-0.03420845419168472,-0.01038470957428217,-0.0861319974064827
1697842584581630000,5.8746298828125,-0.03726277872920036,-0.010995574295520782,-0.07941248267889023
1697842584591438000,5.88443798828125,-0.04214970022439957,-0.010995574295520782,-0.07452555745840073
1697842584601568000,5.894568115234375,-0.04459316283464432,-0.01038470957428217,-0.07330382615327835
1697842584611491000,5.904490966796875,-0.04948008432984352,-0.00733038317412138,-0.07269296050071716
1697842584621474000,5.91447412109375,-0.05497787147760391,-0.0024434609804302454,-0.06230825558304787
1697842584631585000,5.9245849609375,-0.060475658625364304,0.00427605677396059,-0.04764748737215996
1697842584641930000,5.934929931640625,-0.060475658625364304,-0.00366519158706069,-0.04092797264456749
1697842584652151000,5.945151123046875,-0.05864306539297104,-0.006719517521560192,-0.03848451003432274
1697842584661755000,5.9547548828125,-0.05619960278272629,-0.006719517521560192,-0.03481931984424591
1697842584671693000,5.964693115234375,-0.0555887371301651,-0.0024434609804302454,-0.029932396486401558
1697842584681749000,5.9747490234375,-0.05497787147760391,-0.003054326167330146,-0.02382374368607998
1697842584691566000,5.984566162109375,-0.05619960278272629,-0.0006108652451075613,-0.016493361443281174
1697842584701660000,5.994659912109375,-0.056810468435287476,0.004886921960860491,-0.009162978269159794
1697842584711566000,6.004566162109375,-0.056810468435287476,0.010995574295520782,0.005497787147760391
1697842584721622000,6.0146220703125,-0.05192354694008827,0.013439035043120384,0.015271631069481373
1697842584732062000,6.02506201171875,-0.04398229718208313,0.01160643994808197,0.01771509274840355
1697842584741999000,6.0349990234375,-0.03848451003432274,0.00427605677396059,0.014049900695681572
1697842584751545000,6.044545166015625,-0.039095375686883926,0.0012217304902151227,0.021380282938480377
1697842584761816000,6.054816162109375,-0.04092797264456749,-0.001832595793530345,0.031154127791523933
1697842584772169000,6.0651689453125,-0.04214970022439957,-0.006719517521560192,0.03237585723400116
1697842584782038000,6.0750380859375,-0.04092797264456749,-0.006108652334660292,0.03298672288656235
1697842584791844000,6.084843994140625,-0.04581489413976669,-0.0006108652451075613,0.03848451003432274
1697842584802161000,6.095160888671875,-0.042760565876960754,0.0012217304902151227,0.04153883829712868
1697842584811575000,6.104574951171875,-0.03848451003432274,0.0012217304902151227,0.03481931984424591
1697842584822229000,6.11522900390625,-0.03298672288656235,-0.0024434609804302454,0.031154127791523933
1697842584831797000,6.124796875,-0.028099801391363144,-0.003054326167330146,0.036651913076639175
1697842584841861000,6.134861083984375,-0.024434609338641167,-0.00427605677396059,0.04764748737215996
1697842584851563000,6.14456298828125,-0.022602014243602753,-0.009773843921720982,0.05009094998240471
1697842584861823000,6.154822998046875,-0.018936822190880775,-0.013439035043120384,0.048258353024721146
1697842584872022000,6.16502197265625,-0.015882495790719986,-0.015271631069481373,0.04153883829712868
1697842584881660000,6.174659912109375,-0.01466076634824276,-0.01160643994808197,0.04092797264456749
1697842584892283000,6.185282958984375,-0.018325956538319588,-0.010995574295520782,0.04214970022439957
1697842584902081000,6.1950810546875,-0.025045474991202354,-0.007941247895359993,0.04459316283464432
1697842584911797000,6.204796875,-0.03176499158143997,-0.001832595793530345,0.05009094998240471
1697842584922062000,6.21506201171875,-0.0354301854968071,-0.001832595793530345,0.05009094998240471
1697842584932763000,6.225762939453125,-0.0354301854968071,-0.003054326167330146,0.04642575979232788
1697842584941888000,6.234887939453125,-0.033597588539123535,-0.004886921960860491,0.04459316283464432
1697842584951703000,6.244703125,-0.03237585723400116,-0.001832595793530345,0.04459316283464432
1697842584961878000,6.2548779296875,-0.02932153269648552,-0.00366519158706069,0.04153883829712868
1697842584972039000,6.265038818359375,-0.030543262138962746,-0.003054326167330146,0.0354301854968071
1697842584981760000,6.274760009765625,-0.03237585723400116,-0.0024434609804302454,0.03298672288656235
1697842584991796000,6.2847958984375,-0.03848451003432274,0.001832595793530345,0.03237585723400116
1697842585001868000,6.294867919921875,-0.042760565876960754,0.004886921960860491,0.03481931984424591
1697842585012055000,6.305054931640625,-0.04459316283464432,0.004886921960860491,0.03298672288656235
1697842585022171000,6.3151708984375,-0.04092797264456749,0.0024434609804302454,0.02687807008624077
1697842585031544000,6.3245439453125,-0.03726277872920036,0.0012217304902151227,0.021380282938480377
1697842585041493000,6.334492919921875,-0.0354301854968071,-0.0006108652451075613,0.02076941914856434
1697842585051454000,6.344453857421875,-0.03420845419168472,-0.00427605677396059,0.015882495790719986
1697842585061674000,6.354674072265625,-0.03481931984424591,-0.006108652334660292,0.015882495790719986
1697842585071589000,6.364589111328125,-0.039095375686883926,-0.005497787147760391,0.012828170321881771
1697842585081597000,6.374596923828125,-0.04153883829712868,0.0006108652451075613,0.018325956538319588
1697842585091573000,6.384572998046875,-0.04092797264456749,0.0006108652451075613,0.01466076634824276
1697842585102337000,6.3953369140625,-0.04092797264456749,0.001832595793530345,0.010995574295520782
1697842585112089000,6.405089111328125,-0.04092797264456749,0.0006108652451075613,0.01038470957428217
1697842585122229000,6.41522900390625,-0.039706241339445114,-0.0006108652451075613,0.01466076634824276
1697842585131764000,6.424763916015625,-0.03848451003432274,-0.003054326167330146,0.013439035043120384
1697842585141636000,6.434635986328125,-0.03420845419168472,-0.005497787147760391,0.006719517521560192
1697842585151616000,6.444615966796875,-0.02932153269648552,-0.006719517521560192,0.001832595793530345
1697842585161518000,6.45451806640625,-0.02871066704392433,-0.00366519158706069,0.00366519158706069
1697842585171682000,6.46468212890625,-0.033597588539123535,-0.001832595793530345,0.00733038317412138
1697842585181591000,6.474591064453125,-0.03848451003432274,-0.00427605677396059,0.006719517521560192
1697842585191759000,6.484759033203125,-0.03848451003432274,-0.009162978269159794,0.006108652334660292
1697842585202032000,6.4950322265625,-0.036651913076639175,-0.010995574295520782,0.004886921960860491
1697842585211816000,6.50481591796875,-0.036041051149368286,-0.01160643994808197,0.00366519158706069
1697842585222032000,6.515031982421875,-0.03481931984424591,-0.012828170321881771,0.001832595793530345
1697842585232205000,6.525205078125,-0.0354301854968071,-0.01160643994808197,0.001832595793530345
1697842585241798000,6.5347978515625,-0.03420845419168472,-0.00855211354792118,0.0024434609804302454
1697842585251707000,6.544706787109375,-0.033597588539123535,-0.006719517521560192,0.004886921960860491
1697842585261749000,6.5547490234375,-0.03176499158143997,-0.00855211354792118,0.006108652334660292
1697842585271617000,6.564616943359375,-0.031154127791523933,-0.00733038317412138,0.0024434609804302454
1697842585281902000,6.574902099609375,-0.03237585723400116,-0.00733038317412138,-0.0006108652451075613
1697842585291710000,6.5847099609375,-0.03726277872920036,-0.001832595793530345,0.006719517521560192
1697842585302170000,6.595170166015625,-0.04398229718208313,0.0006108652451075613,0.012217304669320583
1697842585311746000,6.60474609375,-0.04337143152952194,-0.001832595793530345,0.01160643994808197
1697842585322417000,6.6154169921875,-0.04337143152952194,0.0006108652451075613,0.015882495790719986
1697842585331751000,6.6247509765625,-0.04092797264456749,-0.0024434609804302454,0.01771509274840355
1697842585341902000,6.634902099609375,-0.036651913076639175,-0.006719517521560192,0.012828170321881771
1697842585352165000,6.6451650390625,-0.03298672288656235,-0.00855211354792118,0.01038470957428217
1697842585361886000,6.654885986328125,-0.03481931984424591,-0.007941247895359993,0.01160643994808197
1697842585372115000,6.665114990234375,-0.039706241339445114,-0.006108652334660292,0.018325956538319588
1697842585382460000,6.6754599609375,-0.04153883829712868,-0.006108652334660292,0.015271631069481373
1697842585391865000,6.684864990234375,-0.039706241339445114,-0.004886921960860491,0.013439035043120384
1697842585402093000,6.695093017578125,-0.039706241339445114,-0.0012217304902151227,0.016493361443281174
1697842585411854000,6.70485400390625,-0.04092797264456749,0.004886921960860491,0.024434609338641167
1697842585422285000,6.71528515625,-0.04092797264456749,0.00427605677396059,0.02382374368607998
1697842585432118000,6.725117919921875,-0.039706241339445114,0.00366519158706069,0.02626720629632473
1697842585441896000,6.73489599609375,-0.03848451003432274,0.001832595793530345,0.02871066704392433
1697842585451557000,6.74455712890625,-0.039706241339445114,0.001832595793530345,0.028099801391363144
1697842585461818000,6.754818115234375,-0.03848451003432274,0.0006108652451075613,0.02626720629632473
1697842585471936000,6.76493603515625,-0.03420845419168472,-0.00366519158706069,0.018325956538319588
1697842585481988000,6.774988037109375,-0.03176499158143997,-0.005497787147760391,0.013439035043120384
1697842585491922000,6.784921875,-0.033597588539123535,-0.006108652334660292,0.01710422709584236
1697842585501762000,6.794761962890625,-0.036651913076639175,-0.006719517521560192,0.02382374368607998
1697842585511854000,6.80485400390625,-0.03848451003432274,-0.00733038317412138,0.02076941914856434
1697842585522193000,6.81519287109375,-0.036651913076639175,-0.006719517521560192,0.01771509274840355
1697842585534743000,6.827742919921875,-0.036041051149368286,-0.00366519158706069,0.019547687843441963
1697842585552249000,6.8452490234375,-0.03420845419168472,-0.00427605677396059,0.02076941914856434
1697842585564950000,6.857949951171875,-0.03298672288656235,-0.005497787147760391,0.016493361443281174
1697842585581532000,6.874531982421875,-0.03848451003432274,-0.0024434609804302454,0.02015855349600315
1697842585591885000,6.884885009765625,-0.0403171069920063,-0.00427605677396059,0.016493361443281174
1697842585601518000,6.89451806640625,-0.036651913076639175,-0.00366519158706069,0.006719517521560192
1697842585611631000,6.904631103515625,-0.03787364438176155,-0.0012217304902151227,0.007941247895359993
1697842585621538000,6.9145380859375,-0.04214970022439957,0.005497787147760391,0.01466076634824276
1697842585631451000,6.924450927734375,-0.04337143152952194,0.0024434609804302454,0.007941247895359993
1697842585641466000,6.934466064453125,-0.04153883829712868,-0.0012217304902151227,0.007941247895359993
1697842585651549000,6.944548828125,-0.042760565876960754,-0.0006108652451075613,0.007941247895359993
1697842585662498000,6.955498046875,-0.04153883829712868,0.0024434609804302454,0.007941247895359993
1697842585671550000,6.964550048828125,-0.0403171069920063,-0.005497787147760391,-0.00733038317412138
1697842585681562000,6.97456201171875,-0.04153883829712868,-0.001832595793530345,-0.009773843921720982
1697842585691560000,6.984559814453125,-0.04214970022439957,0.005497787147760391,-0.006108652334660292
1697842585701613000,6.994613037109375,-0.04398229718208313,-0.0024434609804302454,-0.015882495790719986
1697842585711749000,7.0047490234375,-0.04703662544488907,0.001832595793530345,-0.01771509274840355
1697842585722409000,7.015408935546875,-0.04886921867728233,-0.003054326167330146,-0.02321287989616394
1697842585731692000,7.024692138671875,-0.048258353024721146,0.001832595793530345,-0.02687807008624077
1697842585741800000,7.034800048828125,-0.051312681287527084,0.0006108652451075613,-0.031154127791523933
1697842585751862000,7.044862060546875,-0.05375614017248154,0.003054326167330146,-0.033597588539123535
1697842585761854000,7.05485400390625,-0.0555887371301651,0.003054326167330146,-0.04153883829712868
1697842585771918000,7.06491796875,-0.05619960278272629,0.00427605677396059,-0.0403171069920063
1697842585782255000,7.075255126953125,-0.05619960278272629,-0.0006108652451075613,-0.039706241339445114
1697842585791602000,7.084601806640625,-0.05803219974040985,-0.0006108652451075613,-0.042760565876960754
1697842585802236000,7.09523583984375,-0.056810468435287476,-0.0012217304902151227,-0.04398229718208313
1697842585812339000,7.1053388671875,-0.05619960278272629,-0.004886921960860491,-0.04886921867728233
1697842585821966000,7.114966064453125,-0.05619960278272629,-0.004886921960860491,-0.05192354694008827
1697842585832022000,7.12502197265625,-0.05619960278272629,-0.00427605677396059,-0.0555887371301651
1697842585841925000,7.134925048828125,-0.05192354694008827,-0.010995574295520782,-0.05619960278272629
1697842585851924000,7.144924072265625,-0.0507018156349659,-0.006108652334660292,-0.051312681287527084
1697842585861758000,7.154758056640625,-0.051312681287527084,-0.005497787147760391,-0.05497787147760391
1697842585871812000,7.16481201171875,-0.05253441259264946,-0.006719517521560192,-0.04948008432984352
1697842585882365000,7.175364990234375,-0.0507018156349659,-0.00855211354792118,-0.04764748737215996
1697842585891897000,7.18489697265625,-0.05375614017248154,-0.00427605677396059,-0.03848451003432274
1697842585901868000,7.194867919921875,-0.048258353024721146,-0.00855211354792118,-0.03848451003432274
1697842585912125000,7.205125,-0.04459316283464432,-0.00733038317412138,-0.03237585723400116
1697842585921837000,7.214837158203125,-0.04092797264456749,-0.00366519158706069,-0.024434609338641167
1697842585931441000,7.22444091796875,-0.039706241339445114,-0.0012217304902151227,-0.02382374368607998
1697842585941495000,7.2344951171875,-0.04398229718208313,0.004886921960860491,-0.018936822190880775
1697842585951464000,7.2444638671875,-0.04703662544488907,0.005497787147760391,-0.018325956538319588
1697842585961600000,7.25460009765625,-0.04337143152952194,0.01038470957428217,-0.025656340643763542
1697842585971469000,7.264468994140625,-0.03726277872920036,0.010995574295520782,-0.03298672288656235
1697842585981690000,7.274690185546875,-0.036651913076639175,0.009773843921720982,-0.03298672288656235
1697842585991585000,7.2845849609375,-0.03848451003432274,0.014049900695681572,-0.02382374368607998
1697842586001932000,7.29493212890625,-0.04459316283464432,0.009162978269159794,-0.01466076634824276
1697842586011505400,7.30450537109375,-0.04886921867728233,0.01160643994808197,-0.00733038317412138
1697842586024701000,7.317700927734375,-0.04581489413976669,0.01038470957428217,-0.009773843921720982
1697842586041493000,7.334492919921875,-0.039706241339445114,0.005497787147760391,-0.010995574295520782
1697842586051470000,7.344469970703125,-0.03420845419168472,0.01160643994808197,-0.005497787147760391
1697842586061706000,7.3547060546875,-0.036651913076639175,0.00855211354792118,0.0006108652451075613
1697842586071471000,7.36447119140625,-0.042760565876960754,0.0012217304902151227,0.01038470957428217
1697842586081412000,7.374412109375,-0.04886921867728233,0.015271631069481373,0.025656340643763542
1697842586091395000,7.38439501953125,-0.05497787147760391,0.015271631069481373,0.02932153269648552
1697842586101390000,7.39439013671875,-0.05009094998240471,0.012828170321881771,0.025656340643763542
1697842586112204000,7.4052041015625,-0.0403171069920063,0.01710422709584236,0.027488935738801956
1697842586122274000,7.415274169921875,-0.036041051149368286,0.012217304669320583,0.019547687843441963
1697842586131806000,7.424805908203125,-0.030543262138962746,0.009162978269159794,0.016493361443281174
1697842586141980000,7.43497998046875,-0.029932396486401558,0.00733038317412138,0.015882495790719986
1697842586151692000,7.444692138671875,-0.03237585723400116,0.001832595793530345,0.02932153269648552
1697842586161856000,7.45485595703125,-0.036041051149368286,-0.0012217304902151227,0.028099801391363144
1697842586171748000,7.464748046875,-0.039095375686883926,0.01038470957428217,0.022602014243602753
1697842586181638000,7.474637939453125,-0.0354301854968071,0.0006108652451075613,0.02015855349600315
1697842586191618000,7.4846181640625,-0.031154127791523933,-0.004886921960860491,0.021380282938480377
1697842586201499000,7.494498779296875,-0.036041051149368286,-0.003054326167330146,0.03298672288656235
1697842586211623000,7.504622802734375,-0.039706241339445114,-0.012828170321881771,0.018325956538319588
1697842586221583000,7.5145830078125,-0.04337143152952194,-0.012828170321881771,0.03237585723400116
1697842586231796000,7.5247958984375,-0.04703662544488907,-0.012828170321881771,0.02015855349600315
1697842586241919000,7.5349189453125,-0.05009094998240471,-0.018325956538319588,0.025045474991202354
1697842586251963000,7.544962890625,-0.04948008432984352,-0.007941247895359993,0.024434609338641167
1697842586261752000,7.554751953125,-0.054367005825042725,-0.010995574295520782,0.027488935738801956
1697842586271648000,7.56464794921875,-0.05375614017248154,-0.00855211354792118,0.0354301854968071
1697842586282182000,7.575181884765625,-0.054367005825042725,-0.01038470957428217,0.04581489413976669
1697842586291681000,7.584680908203125,-0.05314527451992035,-0.012217304669320583,0.039095375686883926
1697842586301935000,7.59493505859375,-0.04948008432984352,-0.005497787147760391,0.03481931984424591
1697842586312034000,7.605033935546875,-0.04337143152952194,-0.0012217304902151227,0.03176499158143997
1697842586321648000,7.614648193359375,-0.039706241339445114,-0.003054326167330146,0.02871066704392433
1697842586331781000,7.624781005859375,-0.04092797264456749,-0.010995574295520782,0.031154127791523933
1697842586341802000,7.634802001953125,-0.04398229718208313,-0.00733038317412138,0.03848451003432274
1697842586351636000,7.644635986328125,-0.048258353024721146,-0.003054326167330146,0.039706241339445114
1697842586361776000,7.654776123046875,-0.04337143152952194,-0.014049900695681572,0.0354301854968071
1697842586371595000,7.664594970703125,-0.039706241339445114,-0.00733038317412138,0.04214970022439957
1697842586381511000,7.674510986328125,-0.036041051149368286,-0.015882495790719986,0.033597588539123535
1697842586392021000,7.68502099609375,-0.03787364438176155,-0.02015855349600315,0.02871066704392433
1697842586401578000,7.694577880859375,-0.04398229718208313,-0.013439035043120384,0.04153883829712868
1697842586411930000,7.70493017578125,-0.05497787147760391,-0.01160643994808197,0.04153883829712868
1697842586421732000,7.714732177734375,-0.05803219974040985,-0.015882495790719986,0.045204028487205505
1697842586431905000,7.724905029296875,-0.06108652427792549,-0.012828170321881771,0.04886921867728233
1697842586441731000,7.73473095703125,-0.05619960278272629,-0.012828170321881771,0.04092797264456749
1697842586451592000,7.744592041015625,-0.05314527451992035,-0.021380282938480377,0.04398229718208313
1697842586461616000,7.7546162109375,-0.051312681287527084,-0.01710422709584236,0.05314527451992035
1697842586472119000,7.765119140625,-0.04703662544488907,-0.02321287989616394,0.036041051149368286
1697842586481799000,7.774798828125,-0.04214970022439957,-0.03298672288656235,0.03848451003432274
1697842586492224000,7.78522412109375,-0.04398229718208313,-0.03787364438176155,0.03726277872920036
1697842586501542000,7.7945419921875,-0.05009094998240471,-0.02871066704392433,0.04337143152952194
1697842586511956000,7.8049560546875,-0.048258353024721146,-0.036041051149368286,0.04337143152952194
1697842586521707000,7.81470703125,-0.05497787147760391,-0.033597588539123535,0.042760565876960754
1697842586531604000,7.82460400390625,-0.0555887371301651,-0.021380282938480377,0.04459316283464432
1697842586542159000,7.8351591796875,-0.05253441259264946,-0.03176499158143997,0.03420845419168472
1697842586551986000,7.84498583984375,-0.054367005825042725,-0.02321287989616394,0.03481931984424591
1697842586561837000,7.854837158203125,-0.05192354694008827,-0.016493361443281174,0.03237585723400116
1697842586571645000,7.86464501953125,-0.04886921867728233,-0.027488935738801956,0.02015855349600315
1697842586581597000,7.874596923828125,-0.05009094998240471,-0.006108652334660292,0.0403171069920063
1697842586591739000,7.88473876953125,-0.04642575979232788,-0.01160643994808197,0.025656340643763542
1697842586601615000,7.894614990234375,-0.05375614017248154,-0.007941247895359993,0.03726277872920036
1697842586611842000,7.904842041015625,-0.05742133408784866,-0.009773843921720982,0.0403171069920063
1697842586621573000,7.914572998046875,-0.06536258012056351,-0.009773843921720982,0.054367005825042725
1697842586631752000,7.924751953125,-0.06658431142568588,-0.005497787147760391,0.05497787147760391
1697842586641846000,7.934845947265625,-0.056810468435287476,-0.005497787147760391,0.04337143152952194
1697842586652453000,7.945453125,-0.056810468435287476,-0.006108652334660292,0.045204028487205505
1697842586662320000,7.955320068359375,-0.0555887371301651,-0.01160643994808197,0.02687807008624077
1697842586671599000,7.96459912109375,-0.054367005825042725,0.0012217304902151227,0.04337143152952194
1697842586681769000,7.97476904296875,-0.05375614017248154,-0.001832595793530345,0.02626720629632473
1697842586692190000,7.98518994140625,-0.05009094998240471,-0.0024434609804302454,0.024434609338641167
1697842586701781000,7.994781005859375,-0.05253441259264946,0.004886921960860491,0.028099801391363144
1697842586711737000,8.004737060546875,-0.05375614017248154,0.00427605677396059,0.03481931984424591
1697842586721599000,8.014598876953125,-0.05742133408784866,0.014049900695681572,0.036041051149368286
1697842586732144000,8.02514404296875,-0.05803219974040985,0.009162978269159794,0.028099801391363144
1697842586742597000,8.03559716796875,-0.06536258012056351,0.01160643994808197,0.02871066704392433
1697842586752157000,8.045156982421876,-0.06963863968849182,0.02382374368607998,0.027488935738801956
1697842586762268000,8.055267822265625,-0.07391469180583954,0.024434609338641167,0.028099801391363144
1697842586772214000,8.065214111328125,-0.07452555745840073,0.025045474991202354,0.039095375686883926
1697842586782415000,8.0754150390625,-0.07452555745840073,0.02687807008624077,0.02382374368607998
1697842586791792000,8.084792236328125,-0.07024950534105301,0.03481931984424591,0.02626720629632473
1697842586801819000,8.09481884765625,-0.07452555745840073,0.04153883829712868,0.01466076634824276
1697842586813566000,8.10656591796875,-0.07513642311096191,0.05314527451992035,0.021991148591041565
1697842586821735000,8.11473486328125,-0.07880161702632904,0.05192354694008827,0.029932396486401558
1697842586831735000,8.124735107421875,-0.0806342139840126,0.03787364438176155,0.04153883829712868
1697842586841599000,8.134598876953126,-0.08002334833145142,0.04214970022439957,0.03298672288656235
1697842586851765000,8.144764892578126,-0.07696902006864548,0.05375614017248154,0.03237585723400116
1697842586862195000,8.15519482421875,-0.060475658625364304,0.04581489413976669,0.006108652334660292
1697842586871827000,8.164826904296875,-0.054367005825042725,0.031154127791523933,0.010995574295520782
1697842586882769000,8.175768798828125,-0.05253441259264946,0.03420845419168472,0.007941247895359993
1697842586891657000,8.184656982421876,-0.05375614017248154,0.03176499158143997,0.012217304669320583
1697842586901855000,8.19485498046875,-0.05253441259264946,0.03237585723400116,-0.004886921960860491
1697842586911619000,8.204619140625,-0.05497787147760391,0.03237585723400116,0.012828170321881771
1697842586923405000,8.216405029296874,-0.054367005825042725,0.027488935738801956,0.01710422709584236
1697842586931587000,8.224587158203125,-0.05253441259264946,0.010995574295520782,0.01038470957428217
1697842586941469000,8.234468994140625,-0.04642575979232788,0.010995574295520782,0.0012217304902151227
1697842586951539000,8.2445390625,-0.039095375686883926,0.004886921960860491,0.0006108652451075613
1697842586961564000,8.25456396484375,-0.042760565876960754,0.00733038317412138,0.0006108652451075613
1697842586971469000,8.264468994140625,-0.04214970022439957,-0.0006108652451075613,0.012828170321881771
1697842586981510000,8.274510009765624,-0.05009094998240471,-0.010995574295520782,-0.005497787147760391
1697842586991753000,8.2847529296875,-0.05253441259264946,-0.0012217304902151227,0.009162978269159794
1697842587001924000,8.294924072265625,-0.05192354694008827,-0.016493361443281174,0.005497787147760391
1697842587013844000,8.306843994140625,-0.05314527451992035,-0.025045474991202354,0.00733038317412138
1697842587031615000,8.324614990234375,-0.04459316283464432,-0.025656340643763542,-0.0012217304902151227
1697842587041578000,8.334577880859374,-0.04948008432984352,-0.031154127791523933,-0.0012217304902151227
1697842587051587000,8.344587158203124,-0.04703662544488907,-0.033597588539123535,0.006719517521560192
1697842587061602000,8.35460205078125,-0.05009094998240471,-0.0354301854968071,0.015882495790719986
1697842587071914000,8.3649140625,-0.04886921867728233,-0.029932396486401558,0.001832595793530345
1697842587081587000,8.3745869140625,-0.048258353024721146,-0.029932396486401558,-0.009773843921720982
1697842587091594000,8.384593994140625,-0.054367005825042725,-0.030543262138962746,0.004886921960860491
1697842587101615000,8.394614990234375,-0.06658431142568588,-0.02932153269648552,0.018936822190880775
1697842587111463000,8.404462890625,-0.07452555745840073,-0.03237585723400116,0.03298672288656235
1697842587121565000,8.41456494140625,-0.07757988572120667,-0.022602014243602753,0.013439035043120384
1697842587131604000,8.42460400390625,-0.08552113175392151,-0.01710422709584236,0.015882495790719986
1697842587141602000,8.43460205078125,-0.08918632566928864,-0.009162978269159794,0.02871066704392433
1697842587151617000,8.444616943359375,-0.08979719132184982,-0.02076941914856434,0.04153883829712868
1697842587161579000,8.4545791015625,-0.08857546001672745,-0.016493361443281174,0.029932396486401558
1697842587171759000,8.464759033203125,-0.0910189226269722,-0.01160643994808197,0.029932396486401558
1697842587181643000,8.47464306640625,-0.08246681094169617,-0.012217304669320583,0.02015855349600315
1697842587191743000,8.484742919921874,-0.07757988572120667,-0.003054326167330146,0.0354301854968071
1697842587201853000,8.49485302734375,-0.07024950534105301,-0.021380282938480377,0.022602014243602753
1697842587211640000,8.50464013671875,-0.06841690838336945,-0.025045474991202354,0.02382374368607998
1697842587221894000,8.514893798828124,-0.06780604273080826,-0.004886921960860491,0.01771509274840355
1697842587231933000,8.524932861328125,-0.0659734457731247,-0.00427605677396059,0.009162978269159794
1697842587241751000,8.5347509765625,-0.060475658625364304,-0.006108652334660292,0.0012217304902151227
1697842587254167000,8.5471669921875,-0.059864792972803116,-0.004886921960860491,0.015271631069481373
1697842587271480000,8.56447998046875,-0.060475658625364304,0.0012217304902151227,0.014049900695681572
1697842587281613000,8.574613037109375,-0.06169738993048668,0.009162978269159794,0.0012217304902151227
1697842587291459000,8.584458984375,-0.06414084881544113,0.00733038317412138,0.009773843921720982
1697842587301609000,8.59460888671875,-0.07024950534105301,0.0006108652451075613,0.014049900695681572
1697842587311599000,8.60459912109375,-0.06902777403593063,0.003054326167330146,0.009773843921720982
1697842587321557000,8.614556884765625,-0.0659734457731247,-0.0024434609804302454,0.00427605677396059
1697842587331555000,8.62455517578125,-0.05864306539297104,-0.00733038317412138,-0.003054326167330146
1697842587341756000,8.634755859375,-0.056810468435287476,-0.01038470957428217,-0.0024434609804302454
1697842587351499000,8.6444990234375,-0.05192354694008827,-0.010995574295520782,0.004886921960860491
1697842587361546000,8.6545458984375,-0.0555887371301651,-0.02871066704392433,-0.012217304669320583
1697842587371450000,8.6644501953125,-0.05742133408784866,-0.02321287989616394,-0.00427605677396059
1697842587381530000,8.674530029296875,-0.05803219974040985,-0.022602014243602753,-0.007941247895359993
1697842587391563000,8.68456298828125,-0.06291911751031876,-0.021991148591041565,-0.01466076634824276
1697842587401564000,8.69456396484375,-0.05925392732024193,-0.01771509274840355,-0.010995574295520782
1697842587411573000,8.704572998046874,-0.05803219974040985,-0.02626720629632473,-0.012828170321881771
1697842587421539000,8.7145390625,-0.06169738993048668,-0.022602014243602753,-0.018936822190880775
1697842587431600000,8.72460009765625,-0.06475171446800232,-0.019547687843441963,-0.012828170321881771
1697842587441627000,8.734626953125,-0.06414084881544113,-0.015271631069481373,-0.022602014243602753
1697842587451462000,8.7444619140625,-0.07330382615327835,-0.00427605677396059,0.00733038317412138
1697842587461915000,8.754914794921875,-0.06719517707824707,-0.025045474991202354,0.025045474991202354
1697842587471587000,8.764587158203126,-0.08124507963657379,-0.012217304669320583,-0.06780604273080826
1697842587483906000,8.776906005859376,-0.07452555745840073,-0.00366519158706069,0.04153883829712868
1697842587501564000,8.79456396484375,-0.07208210229873657,0.006108652334660292,0.00855211354792118
1697842587511429000,8.80442919921875,-0.07635815441608429,0.0024434609804302454,0.01160643994808197
1697842587521436000,8.814435791015624,-0.08002334833145142,0.0024434609804302454,0.016493361443281174
1697842587531448000,8.824447998046875,-0.0806342139840126,-0.006108652334660292,0.033597588539123535
1697842587541912000,8.834912109375,-0.07452555745840073,-0.0024434609804302454,0.036651913076639175
1697842587551704000,8.8447041015625,-0.07147123664617538,-0.005497787147760391,0.03237585723400116
1697842587561629000,8.85462890625,-0.06108652427792549,-0.00366519158706069,0.015271631069481373
1697842587571575000,8.864574951171875,-0.051312681287527084,-0.01466076634824276,0.025045474991202354
1697842587581474000,8.87447412109375,-0.039095375686883926,-0.021380282938480377,0.009162978269159794
1697842587591401000,8.88440087890625,-0.04153883829712868,-0.02626720629632473,0.02382374368607998
1697842587601469000,8.894468994140626,-0.039095375686883926,-0.018936822190880775,0.02871066704392433
1697842587611530000,8.904530029296875,-0.03298672288656235,-0.029932396486401558,0.02321287989616394
1697842587621410000,8.91441015625,-0.02687807008624077,-0.021991148591041565,0.031154127791523933
1697842587631515000,8.924514892578125,-0.022602014243602753,-0.02076941914856434,0.039095375686883926
1697842587641449000,8.934448974609374,-0.01466076634824276,-0.0403171069920063,0.01710422709584236
1697842587651431000,8.944430908203126,-0.021380282938480377,-0.036651913076639175,0.04153883829712868
1697842587661473000,8.95447314453125,-0.021991148591041565,-0.0403171069920063,0.03481931984424591
1697842587671429000,8.96442919921875,-0.019547687843441963,-0.04581489413976669,0.042760565876960754
1697842587681585000,8.9745849609375,-0.014049900695681572,-0.042760565876960754,0.04398229718208313
1697842587691421000,8.9844208984375,-0.014049900695681572,-0.05314527451992035,0.031154127791523933
1697842587701409000,8.994408935546875,-0.016493361443281174,-0.05314527451992035,0.03420845419168472
1697842587711437000,9.00443701171875,-0.02015855349600315,-0.05619960278272629,0.045204028487205505
1697842587721684000,9.01468408203125,-0.02382374368607998,-0.05314527451992035,0.04153883829712868
1697842587731506000,9.024505859375,-0.022602014243602753,-0.05253441259264946,0.04092797264456749
1697842587741506000,9.034506103515625,-0.027488935738801956,-0.03237585723400116,0.051312681287527084
1697842587751456000,9.0444560546875,-0.018936822190880775,-0.03848451003432274,0.042760565876960754
1697842587761614000,9.054614013671875,-0.027488935738801956,-0.04642575979232788,0.04337143152952194
1697842587771449000,9.064448974609375,-0.03420845419168472,-0.018936822190880775,0.051312681287527084
1697842587781488000,9.074488037109376,-0.03237585723400116,-0.022602014243602753,0.04398229718208313
1697842587791429000,9.08442919921875,-0.033597588539123535,-0.025656340643763542,0.039095375686883926
1697842587801499000,9.094498779296876,-0.03848451003432274,-0.018936822190880775,0.03787364438176155
1697842587811544000,9.1045439453125,-0.04092797264456749,-0.01160643994808197,0.05742133408784866
1697842587821488000,9.114488037109375,-0.03848451003432274,-0.012828170321881771,0.05375614017248154
1697842587831472000,9.12447216796875,-0.039706241339445114,0.0012217304902151227,0.05864306539297104
1697842587841450000,9.134449951171876,-0.03481931984424591,0.009773843921720982,0.05375614017248154
1697842587851595000,9.144594970703125,-0.03481931984424591,0.012217304669320583,0.04337143152952194
1697842587861510000,9.154510009765625,-0.02871066704392433,0.005497787147760391,0.05375614017248154
1697842587871514000,9.16451416015625,-0.02871066704392433,0.00855211354792118,0.03848451003432274
1697842587881529000,9.174529052734375,-0.02382374368607998,0.01038470957428217,0.03176499158143997
1697842587891504000,9.184504150390625,-0.014049900695681572,-0.0006108652451075613,0.031154127791523933
1697842587901549000,9.194549072265625,-0.01771509274840355,-0.0024434609804302454,0.03420845419168472
1697842587911524000,9.204524169921875,-0.013439035043120384,-0.003054326167330146,0.03420845419168472
1697842587921778000,9.21477783203125,-0.015271631069481373,0.00855211354792118,0.030543262138962746
1697842587931645000,9.22464501953125,-0.004886921960860491,0.00366519158706069,0.031154127791523933
