time,seconds_elapsed,z,y,x
1700516283880310000,0.06331005859375,-0.0031112534925341606,-0.022745490074157715,0.08661941438913345
1700516283890320100,0.073320068359375,0.019960088655352592,0.1252269148826599,0.05171249806880951
1700516283900330000,0.083330078125,-0.00205147173255682,-0.0869726911187172,0.011417271569371223
1700516283910340000,0.093340087890625,-0.01727689616382122,0.005933241453021765,-0.23482656478881836
1700516283920351000,0.10335107421875,-0.0001794035779312253,-0.03855859488248825,0.002269861288368702
1700516283930361000,0.113361083984375,0.01967741549015045,0.025586089119315147,0.10778861492872238
1700516283940371000,0.123370849609375,-0.02539711818099022,-0.034549418836832047,-0.020850323140621185
1700516283950381000,0.133381103515625,0.004313419107347727,-0.018127547577023506,-0.21440660953521729
1700516283960391200,0.14339111328125,-0.020799657329916954,-0.0059648905880749226,0.05394095554947853
1700516283970401000,0.153401123046875,-0.01108501199632883,-0.03106651082634926,0.07705481350421906
1700516283980411100,0.1634111328125,0.004991958383470774,0.08303715288639069,0.036413904279470444
1700516283990421000,0.1734208984375,-0.027416745200753212,-0.12836015224456787,-0.01685933768749237
1700516284000431000,0.18343115234375,-0.046625327318906784,0.05623072758316994,-0.2831815481185913
1700516284010441000,0.19344091796875,-0.032946307212114334,-0.09931643307209015,-0.08952051401138306
1700516284020446700,0.20344677734375,-0.01069533172994852,-0.014088093303143978,0.04547911137342453
1700516284030456800,0.213456787109375,-0.05964381620287895,-0.14552274346351624,-0.03736903890967369
1700516284040467700,0.2234677734375,-0.02335532009601593,-0.013033147901296616,-0.213348850607872
1700516284050477800,0.233477783203125,-0.02127581089735031,-0.04064950346946716,-0.01988481916487217
1700516284060487700,0.24348779296875,-0.007810601498931646,-0.020855288952589035,0.05863342434167862
1700516284070497800,0.253497802734375,0.015468742698431015,0.13777317106723785,0.15893647074699402
1700516284080507600,0.263507568359375,-0.01898297294974327,-0.20375539362430573,0.04697291553020477
1700516284090517800,0.273517822265625,-0.023368848487734795,-0.0010493280133232474,-0.27516937255859375
1700516284100527900,0.28352783203125,-0.02527753636240959,-0.04563623666763306,-0.08021081238985062
1700516284110537700,0.293537841796875,0.004449793137609959,-0.02739095315337181,0.08386900275945663
1700516284120547800,0.3035478515625,-0.04669834300875664,-0.08290241658687592,0.0011882418766617775
1700516284130557700,0.3135576171875,0.03916428983211517,-0.05337410047650337,-0.15693466365337372
1700516284140567800,0.32356787109375,-0.015384170226752758,0.0012989998795092106,-0.0165565088391304
1700516284150578700,0.33357861328125,0.03173243626952171,0.009796267375349998,-0.0069456216879189014
1700516284160588800,0.3435888671875,0.031984902918338776,0.10262074321508408,0.13487249612808228
1700516284170598700,0.3535986328125,-0.003770974464714527,-0.14183208346366882,-0.015816014260053635
1700516284180608800,0.36360888671875,0.008564520627260208,0.021419959142804146,-0.25388771295547485
1700516284190619000,0.373618896484375,-0.0010019197361543775,-0.00716299656778574,-0.10365825146436691
1700516284200628700,0.383628662109375,0.029704859480261803,0.04105832800269127,0.0737125426530838
1700516284210638800,0.393638916015625,-0.00945837702602148,-0.0262644961476326,-0.04287922382354736
1700516284220648700,0.403648681640625,0.017580166459083557,0.004869719967246056,-0.1182597354054451
1700516284230658800,0.413658935546875,-0.011838167905807495,-0.014346434734761715,0.018768560141324997
1700516284240668700,0.423668701171875,0.013652278110384941,0.026583421975374222,0.08911436051130295
1700516284250679800,0.4336796875,0.02557673677802086,0.04264511913061142,0.25889351963996887
1700516284260689700,0.443689697265625,-0.02177879400551319,-0.09315212815999985,-0.0060071274638175964
1700516284270699800,0.45369970703125,-0.0007184509886428714,0.059602707624435425,-0.158484548330307
1700516284280709600,0.463709716796875,-0.00929995533078909,-0.016763970255851746,0.06123742833733559
1700516284290719700,0.4737197265625,0.012495923787355423,0.039767250418663025,0.2036791443824768
1700516284300729900,0.483729736328125,0.006098744925111532,-0.07219390571117401,-0.007606988772749901
1700516284310739700,0.49373974609375,-0.006451509892940521,0.06341469287872314,-0.06125027313828468
1700516284320749800,0.503749755859375,-0.003216035198420286,-0.024308765307068825,0.054865941405296326
1700516284330759700,0.513759765625,-0.0027636652812361717,0.054016031324863434,0.07185844331979752
1700516284340769800,0.523769775390625,0.013417435809969902,-0.08094923943281174,0.157293438911438
1700516284350780700,0.53378076171875,-0.02519989386200905,-0.029851660132408142,-0.1888410598039627
1700516284360790800,0.543790771484375,-0.011405253782868385,-0.0301376823335886,-0.11194734275341034
1700516284370800600,0.553800537109375,-0.0035793965216726065,-0.016850199550390244,0.06804050505161285
1700516284380810800,0.563810791015625,-0.022094223648309708,-0.060240548104047775,0.06516028940677643
1700516284390820900,0.57382080078125,0.004385158885270357,-0.07960487902164459,-0.18701469898223877
1700516284400830700,0.583830810546875,-0.005485847592353821,0.022318024188280106,-0.07576273381710052
1700516284410840800,0.5938408203125,-0.01643197052180767,-0.037674158811569214,0.07801380008459091
1700516284420850700,0.6038505859375,0.02009754627943039,0.10540176928043365,0.11871489137411118
1700516284430861800,0.61386181640625,-0.0034774504601955414,-0.13400255143642426,0.07631787657737732
1700516284440871700,0.62387158203125,-0.01274152286350727,0.016656190156936646,-0.21940724551677704
1700516284450881800,0.6338818359375,-0.020013922825455666,-0.007595193572342396,-0.09135401248931885
1700516284460891600,0.6438916015625,0.008788696490228176,0.007714787032455206,0.09358574450016022
1700516284470901800,0.65390185546875,-0.0340125635266304,-0.05793819949030876,0.08771008253097534
1700516284480911600,0.66391162109375,0.006391584407538176,-0.03716501221060753,-0.1541941612958908
1700516284490921700,0.673921630859375,-0.014656602405011654,0.007417461834847927,-0.04655475541949272
1700516284500931800,0.683931884765625,-0.012366283684968948,-0.02731654979288578,0.06868981570005417
1700516284510941700,0.693941650390625,0.03081383928656578,0.11301453411579132,0.15359605848789215
1700516284520952600,0.70395263671875,-0.019394205883145332,-0.15230074524879456,0.08900747448205948
1700516284530962700,0.713962646484375,0.0013021236518397927,0.045874472707509995,-0.22927965223789215
1700516284540972800,0.723972900390625,-0.004005023743957281,-0.056544579565525055,-0.04581262916326523
1700516284550982700,0.733982666015625,0.013832459226250648,0.03223053365945816,0.11877316236495972
1700516284560992800,0.74399267578125,-0.020775850862264633,-0.05846075341105461,0.06630569696426392
1700516284571002600,0.754002685546875,0.022072015330195427,0.013874857686460018,-0.15563718974590302
1700516284581012700,0.7640126953125,-0.008621715009212494,0.0005755637539550662,-0.005854081362485886
1700516284591022800,0.77402294921875,0.010925455950200558,-0.032705824822187424,0.034303512424230576
1700516284601033700,0.78403369140625,0.04190601035952568,0.08551003038883209,0.1469469666481018
1700516284611043600,0.794043701171875,-0.028213096782565117,-0.10567506402730942,0.01583573967218399
1700516284621053700,0.8040537109375,0.016070745885372162,0.05923692137002945,-0.20604152977466583
1700516284631063800,0.814063720703125,-0.012835901230573654,-0.04642603173851967,-0.036838896572589874
1700516284641073700,0.82407373046875,0.02893764339387417,0.04946587607264519,0.11659460514783859
1700516284651083800,0.834083740234375,-0.02327202446758747,-0.05882378667593002,0.034355998039245605
1700516284661093600,0.84409375,0.025453701615333557,0.051893673837184906,-0.14979439973831177
1700516284671103700,0.854103759765625,-0.01630173623561859,-0.020741278305649757,0.004133475944399834
1700516284681114600,0.864114501953125,0.025440119206905365,0.007082096301019192,0.055048856884241104
1700516284691124700,0.874124755859375,0.04170973598957062,0.07721327990293503,0.18692827224731445
1700516284701134600,0.884134521484375,-0.03247874230146408,-0.10701701790094376,-0.011392265558242798
1700516284711144700,0.894144775390625,0.021779388189315796,0.06978006660938263,-0.21737514436244965
1700516284721154800,0.90415478515625,-0.013374073430895805,-0.05461539328098297,-0.02382832206785679
1700516284731164700,0.91416455078125,0.023798653855919838,0.04623657464981079,0.1220540851354599
1700516284741174800,0.9241748046875,-0.012269602157175541,-0.08675369620323181,-0.010583316907286644
1700516284751185700,0.934185546875,0.021954165771603584,0.05931468307971954,-0.17208950221538544
1700516284761195800,0.94419580078125,-0.014409701339900494,-0.03257236257195473,0.004871428478509188
1700516284771205600,0.95420556640625,0.026453737169504166,0.012522955425083637,0.05131009966135025
1700516284781215700,0.9642158203125,0.026646817103028297,0.02135027013719082,0.19134709239006042
1700516284791225600,0.9742255859375,-0.020720243453979492,-0.054590776562690735,-0.07574381679296494
1700516284801235700,0.984235595703125,0.022647203877568245,0.045774441212415695,-0.20897617936134338
1700516284811245600,0.99424560546875,-0.011470949277281761,-0.027479030191898346,-0.006336543243378401
1700516284821255700,1.004255615234375,0.01843315362930298,0.03297578915953636,0.1400236040353775
1700516284831266600,1.0142666015625,-0.0022734797094017267,-0.06113661453127861,-0.03160414472222328
1700516284841276700,1.024276611328125,0.027376025915145874,0.054244305938482285,-0.14489635825157166
1700516284851286500,1.03428662109375,-0.016074933111667633,-0.048103321343660355,0.004715520888566971
1700516284861296600,1.044296630859375,0.02467409521341324,0.03178884834051132,0.06268294900655746
1700516284871306800,1.054306640625,0.02155388332903385,0.000534927356056869,0.20805110037326813
1700516284881316600,1.064316650390625,-0.023435963317751884,-0.04652579501271248,-0.10948638617992401
1700516284891326700,1.07432666015625,0.016478504985570908,0.025934278964996338,-0.19454389810562134
1700516284901337600,1.084337646484375,-0.008129636757075787,-0.027817899361252785,-0.004290333017706871
1700516284911347700,1.09434765625,0.0031468961387872696,0.018651407212018967,0.1456897258758545
1700516284921357600,1.104357666015625,-0.0037834476679563522,-0.06603391468524933,-0.04734337702393532
1700516284931367700,1.11436767578125,0.011151544749736786,0.06619889289140701,-0.11148835718631744
1700516284941377500,1.12437744140625,-0.017198603600263596,-0.056484419852495193,0.03271356225013733
1700516284951387600,1.1343876953125,0.010500195436179638,0.06730625778436661,0.08920733630657196
1700516284961397800,1.144397705078125,0.01624809391796589,-0.027594953775405884,0.21505208313465118
1700516284971408600,1.15440869140625,-0.017284488305449486,-0.013201012276113033,-0.1320534497499466
1700516284981418500,1.16441845703125,0.0058567821979522705,0.007113313768059015,-0.13348649442195892
1700516284991428600,1.1744287109375,-0.007507950998842716,0.012656809762120247,0.05747868865728378
1700516285001438700,1.184438720703125,-0.000746451667509973,0.025867421180009842,0.1708100438117981
1700516285011448600,1.194448486328125,0.01218697614967823,-0.03353159874677658,-0.07826239615678787
1700516285021459200,1.204459228515625,0.0010576257482171059,0.06473558396100998,-0.07898704707622528
1700516285031470300,1.21447021484375,-0.01891901157796383,-0.02418576553463936,0.0689435675740242
1700516285041480200,1.224480224609375,0.011340274475514889,0.09745728224515915,0.12418583780527115
1700516285051490300,1.234490234375,0.017115050926804543,-0.04701676592230797,0.16197237372398376
1700516285061500200,1.244500244140625,-0.011440693400800228,0.03248205408453941,-0.20333370566368103
1700516285071510000,1.254510009765625,-0.0015842958819121122,-0.014947221614420414,-0.06678057461977005
1700516285081520000,1.26452001953125,0.00032465788535773754,0.03738868609070778,0.10826927423477173
1700516285091530000,1.274530029296875,-0.011294154450297356,0.004801613278687,0.13084353506565094
1700516285101541400,1.284541259765625,0.014123587869107723,-0.002002230379730463,-0.17300930619239807
1700516285111551200,1.29455126953125,-0.003000382101163268,0.03867054358124733,-0.04437417536973953
1700516285121561300,1.304561279296875,-0.020004132762551308,-0.013660037890076637,0.12102171033620834
1700516285131571200,1.3145712890625,0.019207097589969635,0.11946846544742584,0.12299551069736481
1700516285141581300,1.324581298828125,0.008121423423290253,-0.052858028560876846,0.07700297981500626
1700516285151591400,1.33459130859375,-0.007593423128128052,0.0447126068174839,-0.2320992350578308
1700516285161602300,1.344602294921875,-0.0049955095164477825,-0.03056456707417965,0.009923258796334267
1700516285171612200,1.354612060546875,0.011902452446520329,0.03874204307794571,0.15237772464752197
1700516285181622300,1.364622314453125,-0.02156709134578705,-0.0016285490710288286,0.051192525774240494
1700516285191632400,1.37463232421875,0.01227610930800438,0.017839156091213226,-0.2207566499710083
1700516285201642200,1.384642333984375,-0.005160938017070293,0.02117370069026947,0.025729306042194366
1700516285211652400,1.39465234375,-0.008074367418885231,-0.004016780760139227,0.14867697656154633
1700516285221663200,1.404663330078125,0.028289232403039932,0.14006316661834717,0.10263330489397049
1700516285231673300,1.41467333984375,-0.009087671525776386,-0.05197305977344513,-0.021696489304304123
1700516285241683200,1.42468310546875,-0.006755542010068893,0.04749041423201561,-0.19438649713993073
1700516285251693300,1.434693359375,-0.003296955954283476,-0.0377371571958065,0.05852896720170975
1700516285261703200,1.444703125,0.019857099279761314,0.02972443960607052,0.1232866570353508
1700516285271713300,1.45471337890625,-0.030726149678230286,-0.0324653685092926,-0.011981804855167866
1700516285281724200,1.46472412109375,0.00976668018847704,0.0235116146504879,-0.21537567675113678
1700516285291734300,1.474734375,-0.007121449336409569,0.0008660859894007444,0.07182138413190842
1700516285301744000,1.484744140625,-0.004023926332592964,-0.008975625038146973,0.14043372869491577
1700516285311754200,1.494754150390625,0.038037680089473724,0.12310758978128433,0.06492366641759872
1700516285321764400,1.504764404296875,-0.024355655536055565,-0.07804602384567261,-0.02464137226343155
1700516285331774200,1.514774169921875,0.0024391859769821167,0.04239633306860924,-0.17927779257297516
1700516285341785000,1.52478515625,0.00349699379876256,-0.05984694883227348,0.0905584841966629
1700516285351795200,1.534795166015625,0.022592656314373016,0.021734463050961494,0.11433785408735275
1700516285361805300,1.544805419921875,-0.02064030058681965,-0.0340808629989624,-0.04474367946386337
1700516285371815200,1.554815185546875,0.0064889248460531235,0.014764657244086266,-0.19359181821346283
1700516285381825300,1.5648251953125,-0.006251371465623379,-0.014263266697525978,0.10415224730968475
1700516285391835100,1.574835205078125,0.006545054726302624,-0.01619594916701317,0.11215037852525711
1700516285401846300,1.58484619140625,0.043858602643013,0.09419074654579163,0.06416954100131989
1700516285411856100,1.594856201171875,-0.036263417452573776,-0.07684977352619171,-0.05202719196677208
1700516285421866200,1.6048662109375,0.003508496331050992,0.026510437950491905,-0.1620229333639145
1700516285431876000,1.6148759765625,-0.012900949455797672,-0.05585276708006859,0.0826367735862732
1700516285441886200,1.62488623046875,0.017424464225769043,0.019105631858110428,0.10739671438932419
1700516285451896000,1.63489599609375,-0.02063995972275734,-0.06492940336465836,-0.07164128869771957
1700516285461907200,1.6449072265625,0.004407068714499474,0.03482196107506752,-0.1847452074289322
1700516285471917000,1.6549169921875,-0.004578220658004284,-0.0018240605713799596,0.11493954807519913
1700516285481927200,1.66492724609375,0.02290959656238556,-0.011032206937670708,0.09911557286977768
1700516285491937300,1.674937255859375,0.04191168025135994,0.07415779680013657,0.10187122225761414
1700516285501947100,1.684947021484375,-0.02476401813328266,-0.048522841185331345,-0.10173676162958145
1700516285511958000,1.6949580078125,0.008012444712221622,0.04831549897789955,-0.13187019526958466
1700516285521968000,1.704968017578125,-0.011538885533809662,-0.027120400220155716,0.10372662544250488
1700516285531978200,1.714978271484375,0.023615509271621704,0.029093820601701736,0.11467933654785156
1700516285541988000,1.724988037109375,-0.0064361318945884705,-0.06902049481868744,-0.11697999387979507
1700516285551998200,1.734998291015625,0.008591895923018456,0.059537939727306366,-0.16784578561782837
1700516285562008000,1.745008056640625,-0.0024748698342591524,-0.023126846179366112,0.13945291936397552
1700516285572019200,1.755019287109375,0.025420071557164192,-0.000729316147044301,0.08869269490242004
1700516285582029000,1.765029052734375,0.03366415202617645,0.017490169033408165,0.09564940631389618
1700516285592039200,1.7750390625,-0.018878798931837082,-0.031226392835378647,-0.16122376918792725
1700516285602049000,1.785049072265625,-0.001752275973558426,0.021969985216856003,-0.08273588865995407
1700516285612059100,1.79505908203125,-0.007527477107942104,-0.021494882181286812,0.1261688768863678
1700516285622070000,1.805070068359375,0.015536297112703323,0.024787662550807,0.09057120233774185
1700516285632080100,1.815080078125,0.003754580859094858,-0.07367192208766937,-0.1523861587047577
1700516285642090000,1.825090087890625,0.002249895129352808,0.06198817491531372,-0.11732431501150131
1700516285652100000,1.83510009765625,-0.00034584628883749247,-0.040366195142269135,0.16114087402820587
1700516285662110200,1.845110107421875,0.010103864595293999,0.03631153702735901,0.08116747438907623
1700516285672121300,1.855121337890625,0.01990409381687641,-0.03363625332713127,0.08350245654582977
1700516285682131200,1.865131103515625,-0.009507856331765652,-0.014644717797636986,-0.18789495527744293
1700516285692141300,1.875141357421875,-0.006837737746536732,-0.021531427279114723,-0.03133779391646385
1700516285702151400,1.8851513671875,-0.0057951100170612335,-0.007166602183133364,0.13099731504917145
1700516285712161300,1.895161376953125,-0.002586881397292018,0.01982247643172741,0.06696474552154541
1700516285722172200,1.905172119140625,0.008511575870215893,-0.06669270247220993,-0.18628643453121185
1700516285732182300,1.915182373046875,-0.0031356874387711287,0.041501328349113464,-0.07360771298408508
1700516285742192400,1.9251923828125,-0.00754162110388279,-0.05697384476661682,0.16095073521137238
1700516285752202200,1.9352021484375,-0.007360777817666531,0.07016616314649582,0.07096509635448456
1700516285762212400,1.94521240234375,0.009702627547085285,-0.057308971881866455,0.05180178955197334
1700516285772223200,1.95522314453125,-0.0086594233289361,-0.009127839468419552,-0.2091650664806366
1700516285782233300,1.9652333984375,-0.004740049131214619,-0.03682977333664894,0.0008949642069637775
1700516285792243200,1.9752431640625,-0.0048217084258794785,-0.0026294738054275513,0.12126018106937408
1700516285802253300,1.98525341796875,-0.011419422924518585,0.011260242201387882,0.05051437392830849
1700516285812263200,1.99526318359375,0.001986047253012657,-0.04888547211885452,-0.2032686322927475
1700516285822274300,2.0052744140625,-0.0033732978627085686,0.029017847031354904,-0.038817111402750015
1700516285832284200,2.0152841796875,-0.013206138275563717,-0.04908858612179756,0.16426332294940948
1700516285842294300,2.025294189453125,-0.004824105184525251,0.09505553543567657,0.06983081251382828
1700516285852304100,2.03530419921875,0.006089412607252598,-0.05860660970211029,0.04063500463962555
1700516285862314200,2.045314208984375,-0.012896528467535973,0.001302529824897647,-0.2139807641506195
1700516285872325000,2.0553251953125,-0.001820472301915288,-0.033289916813373566,0.019501224160194397
1700516285882335200,2.065335205078125,0.0008887614822015166,0.02064415253698826,0.12734246253967285
1700516285892345000,2.075344970703125,-0.016653267666697502,0.01909901760518551,0.03837050497531891
1700516285902355200,2.085355224609375,0.006786278448998928,-0.03408750519156456,-0.20796522498130798
1700516285912365300,2.095365234375,-0.001583667704835534,0.034226931631565094,-0.0018810671754181385
1700516285922376200,2.105376220703125,-0.01584596000611782,-0.03741103410720825,0.16617505252361298
1700516285932386000,2.115385986328125,0.0033678370527923107,0.12041637301445007,0.06071940436959267
1700516285942396200,2.125396240234375,-0.0008724479121156037,-0.05796908214688301,0.033633459359407425
1700516285952406300,2.13540625,-0.006945977918803692,0.015219352208077908,-0.22084467113018036
1700516285962416000,2.145416015625,-0.006430656649172306,-0.040971748530864716,0.032387860119342804
1700516285972427000,2.155427001953125,0.00889521837234497,0.025721227750182152,0.12844373285770416
1700516285982437000,2.16543701171875,-0.026766637340188026,0.0038404297083616257,0.018745725974440575
1700516285992447200,2.175447265625,0.005816259421408176,-0.014884392730891705,-0.2195219099521637
1700516286002457000,2.18545703125,-0.008093963377177715,0.02283315919339657,0.03104347363114357
1700516286012467200,2.19546728515625,-0.012976621277630329,-0.014045131392776966,0.16757796704769135
1700516286022482200,2.205482177734375,0.0116653423756361,0.14052313566207886,0.07055555284023285
1700516286032492300,2.2154921875,-0.019445953890681267,-0.07556664198637009,-0.008658399805426598
1700516286042502100,2.225502197265625,-0.0022304814774543047,0.031158732250332832,-0.2242325097322464
1700516286052512300,2.23551220703125,-0.004416756331920624,-0.05051076039671898,0.05945561081171036
1700516286062523100,2.245523193359375,0.022091282531619072,0.023048946633934975,0.13105735182762146
1700516286072533200,2.255533203125,-0.029392585158348083,-0.021394647657871246,-0.02798331156373024
1700516286082543000,2.265543212890625,0.007454645354300737,0.013979056850075722,-0.225811168551445
1700516286092553200,2.27555322265625,-0.008342651650309563,0.005004272796213627,0.07365713268518448
1700516286102563000,2.28556298828125,0.011835852637887001,-0.012814671732485294,0.14943844079971313
1700516286112574200,2.29557421875,0.03041888028383255,0.10935055464506149,0.09263899177312851
1700516286122584000,2.305583984375,-0.017027465626597404,-0.035295043140649796,-0.07396996021270752
1700516286132594200,2.31559423828125,-0.005831900052726269,0.03951955586671829,-0.16354824602603912
1700516286142604000,2.32560400390625,-0.006743766367435455,-0.045309316366910934,0.08037600666284561
1700516286152615200,2.335615234375,0.027954593300819397,0.024815991520881653,0.12403285503387451
1700516286162625000,2.345625,-0.030177684500813484,-0.06442441046237946,-0.05871006101369858
1700516286172635100,2.35563525390625,0.0068627311848104,0.04477030038833618,-0.20584772527217865
1700516286182645000,2.36564501953125,-0.008750849403440952,-0.006946958135813475,0.10348881781101227
1700516286192655000,2.375655029296875,0.015283189713954926,0.00030837615486234426,0.12735314667224884
1700516286202666200,2.385666259765625,0.038028985261917114,0.08858684450387955,0.08426453173160553
1700516286212676400,2.39567626953125,-0.029608074575662613,-0.055022723972797394,-0.09432854503393173
1700516286222686200,2.405686279296875,0.003035090398043394,0.04539096727967262,-0.14528733491897583
1700516286232696300,2.4156962890625,-0.003942170180380344,-0.04704129695892334,0.1076662614941597
1700516286242707200,2.425707275390625,0.026717737317085266,0.03575904294848442,0.1111251711845398
1700516286252717300,2.43571728515625,-0.016338834539055824,-0.06457727402448654,-0.08658723533153534
1700516286262727200,2.44572705078125,0.009175579994916916,0.05201112851500511,-0.1765618622303009
1700516286272737300,2.4557373046875,-0.003361484967172146,-0.020526766777038574,0.13490265607833862
1700516286282748200,2.465748046875,0.019846100360155106,0.00040807551704347134,0.09931110590696335
1700516286292758300,2.47575830078125,0.04306666925549507,0.04926992207765579,0.08207537233829498
1700516286302768000,2.48576806640625,-0.029663730412721634,-0.04566032066941261,-0.11554636061191559
1700516286312778200,2.4957783203125,0.006475044414401054,0.03706281632184982,-0.10915178805589676
1700516286322789000,2.5057890625,-0.012717558071017265,-0.03859705850481987,0.10592243820428848
1700516286332799200,2.51579931640625,0.019648445770144463,0.04376090317964554,0.09425701200962067
1700516286342809000,2.52580908203125,-0.009069486521184444,-0.07654180377721786,-0.10399961471557617
1700516286352819200,2.535819091796875,0.008294952102005482,0.0545925535261631,-0.14915479719638824
1700516286362829300,2.545829345703125,-0.0008298367029055953,-0.027332140132784843,0.1456661969423294
1700516286372840200,2.555840087890625,0.018922343850135803,0.010454989969730377,0.07602649927139282
1700516286382850000,2.56585009765625,0.03589387238025665,0.011066984385251999,0.08706609904766083
1700516286392860200,2.575860107421875,-0.029870782047510147,-0.037417780607938766,-0.1354052573442459
1700516286402870300,2.585870361328125,0.0038911765441298485,0.02417953498661518,-0.08857835829257965
1700516286412881200,2.595881103515625,-0.011230859905481339,-0.030070850625634193,0.10955337435007095
1700516286422891300,2.605891357421875,0.015983715653419495,0.030316060408949852,0.08759801089763641
1700516286432901000,2.615901123046875,-0.0034893169067800045,-0.07698296010494232,-0.1351458579301834
1700516286442911200,2.6259111328125,0.006700736470520496,0.0546853169798851,-0.1213831678032875
1700516286452922000,2.635922119140625,-0.0022296663373708725,-0.03971266746520996,0.16021943092346191
1700516286462932200,2.64593212890625,0.015305384993553162,0.026795782148838043,0.06498691439628601
1700516286472942000,2.655942138671875,0.03057028353214264,-0.01534136850386858,0.08563359081745148
1700516286482952200,2.6659521484375,-0.025101765990257263,-0.02986571565270424,-0.1674330234527588
1700516286492963000,2.675963134765625,0.0008694556308910251,0.0006884359754621983,-0.05521058663725853
1700516286502973200,2.68597314453125,-0.011103850789368153,-0.016754470765590668,0.11621389538049698
1700516286512983000,2.695983154296875,0.0038419319316744804,0.02326180972158909,0.06626003235578537
1700516286522993200,2.7059931640625,0.00013800733722746372,-0.07680992782115936,-0.16343574225902557
1700516286533004300,2.71600439453125,0.003906643483787775,0.05121392756700516,-0.08104315400123596
1700516286543014400,2.726014404296875,-0.00805627554655075,-0.04907166585326195,0.16889478266239166
1700516286553024300,2.736024169921875,0.0008632823592051864,0.07663899660110474,0.06770392507314682
1700516286563034400,2.746034423828125,0.014061642810702324,-0.0481300950050354,0.06575395911931992
1700516286573045200,2.756045166015625,-0.011302569881081581,-0.002348759211599827,-0.19179582595825195
1700516286583055400,2.766055419921875,-0.009114516898989677,-0.02906159684062004,-0.01575288735330105
1700516286593065200,2.776065185546875,-0.003176126629114151,0.0014084565918892622,0.11133623868227005
1700516286603075300,2.786075439453125,-0.0057367561385035515,0.013636360876262188,0.045360419899225235
1700516286613086200,2.796086181640625,0.0065412381663918495,-0.06321532279253006,-0.1833355724811554
1700516286623096300,2.806096435546875,-0.002630155999213457,0.03553682565689087,-0.04342746362090111
1700516286633106200,2.816106201171875,-0.003454837016761303,-0.05124847590923309,0.1644829362630844
1700516286643117300,2.826117431640625,-0.010715147480368614,0.07999343425035477,0.05127301439642906
1700516286653127200,2.836127197265625,0.017018921673297882,-0.05807526409626007,0.05505279079079628
1700516286663137300,2.84613720703125,-0.015683097764849663,-0.004799525719136,-0.2025127112865448
1700516286673147100,2.856147216796875,-0.0017665582709014416,-0.03399871662259102,0.006597490049898624
1700516286683158300,2.866158203125,-0.006483549252152443,0.0037270886823534966,0.1096988394856453
1700516286693168000,2.876168212890625,-0.008716193027794361,0.011512364260852337,0.02936248853802681
1700516286703178200,2.88617822265625,0.0013316471595317125,-0.057184141129255295,-0.2022227942943573
1700516286713188000,2.89618798828125,-0.00009689992293715477,0.030260849744081497,-0.016564974561333656
1700516286723199200,2.90619921875,-0.01394826639443636,-0.058817360550165176,0.15687258541584015
1700516286733209000,2.916208984375,-0.008862895891070366,0.09072580188512802,0.04169991612434387
1700516286743219200,2.92621923828125,-0.00013997824862599373,-0.07419151067733765,0.029632335528731346
1700516286753229000,2.93622900390625,-0.015671323984861374,-0.006383769679814577,-0.20883335173130035
1700516286763240200,2.946240234375,-0.006411779671907425,-0.04958237335085869,0.018236294388771057
1700516286773250000,2.95625,0.004348761402070522,0.006758511066436768,0.10412703454494476
1700516286783260200,2.96626025390625,-0.02518409676849842,0.001182650332339108,0.02936943992972374
1700516286793271300,2.976271240234375,0.006612448021769524,-0.03470318019390106,-0.20553815364837646
1700516286803281400,2.986281494140625,-0.006416001822799444,0.035929445177316666,-0.00492515042424202
1700516286813291000,2.996291015625,-0.01567167602479458,-0.036494310945272446,0.15630915760993958
1700516286823301000,3.006301025390625,0.004329196177423,0.13021105527877808,0.06884963065385818
1700516286833312300,3.016312255859375,-0.004642137326300144,-0.07663413137197495,0.01249220035970211
1700516286843322400,3.026322265625,-0.009770054370164871,0.02118537202477455,-0.2222803682088852
1700516286853332200,3.036332275390625,-0.005853246431797743,-0.04433353617787361,0.039506684988737106
1700516286863343400,3.04634326171875,0.00910279992967844,0.010556346736848354,0.12197493016719818
1700516286873353200,3.056353271484375,-0.02884797938168049,0.0027512379456311464,0.02136523276567459
1700516286883363300,3.06636328125,0.009902878664433956,-0.009025259874761105,-0.22619901597499847
1700516286893373200,3.076373291015625,-0.013232664205133915,0.019547348842024803,0.023523828014731407
1700516286903384300,3.08638427734375,-0.012055015191435814,-0.01945437863469124,0.16316641867160797
1700516286913394200,3.096394287109375,0.017355356365442276,0.1394156664609909,0.06958446651697159
1700516286923404300,3.106404296875,-0.020488694310188293,-0.06780143827199936,-0.0176716148853302
1700516286933414100,3.1164140625,-0.004705956671386957,0.030331915244460106,-0.20921045541763306
1700516286943425300,3.12642529296875,-0.007500944193452597,-0.04985666647553444,0.05927266553044319
1700516286953435100,3.13643505859375,0.01769356057047844,0.016622411087155342,0.12078449130058289
1700516286963445200,3.1464453125,-0.028725603595376015,-0.012092855758965015,-0.004289535339921713
1700516286973456100,3.1564560546875,0.013271412812173367,0.0065805986523628235,-0.22606834769248962
1700516286983466200,3.16646630859375,-0.01384675782173872,0.01185339130461216,0.05535401031374931
1700516286993476000,3.17647607421875,-0.008417779579758644,-0.0029906476847827435,0.15803974866867065
1700516287003487200,3.1864873046875,0.031053462997078896,0.13463538885116577,0.07151924818754196
1700516287013497000,3.1964970703125,-0.0268146563321352,-0.06524249911308289,-0.035866040736436844
1700516287023504000,3.20650390625,-0.004514677450060844,0.03611288592219353,-0.19767677783966064
1700516287033513700,3.216513671875,-0.00821501761674881,-0.05826777592301369,0.07390253990888596
1700516287043524900,3.22652490234375,0.025258786976337433,0.0215599425137043,0.12608104944229126
1700516287053534700,3.23653466796875,-0.0305926650762558,-0.028164498507976532,-0.022790679708123207
1700516287063544800,3.246544921875,0.014674683101475239,0.0311835128813982,-0.22182202339172363
1700516287073555700,3.2565556640625,-0.01155125442892313,0.0015444491291418672,0.08219825476408005
1700516287083565800,3.26656591796875,0.004683375358581543,0.0006325828144326806,0.15002655982971191
1700516287093575700,3.27657568359375,0.04374079406261444,0.12019082903862,0.08078520745038986
1700516287103586600,3.286586669921875,-0.03075634129345417,-0.057571712881326675,-0.07365310192108154
1700516287113596700,3.2965966796875,0.0028068984393030405,0.04653778672218323,-0.17554426193237305
1700516287123606800,3.306606689453125,-0.007173564285039902,-0.05459096282720566,0.08795713633298874
1700516287133616600,3.31661669921875,0.027024388313293457,0.02465209737420082,0.11498361825942993
1700516287143627500,3.32662744140625,-0.027570948004722595,-0.06563758105039597,-0.06079459562897682
1700516287153637600,3.3366376953125,0.013266043737530708,0.04928290471434593,-0.22131063044071198
1700516287163647700,3.346647705078125,-0.013365034013986588,-0.015413002111017704,0.10861189663410187
1700516287173658600,3.35665869140625,0.020805513486266136,-0.005785058718174696,0.13490819931030273
1700516287183668700,3.366668701171875,0.04478488117456436,0.08159724622964859,0.08965364843606949
1700516287193678600,3.3766787109375,-0.022886434569954872,-0.03689280152320862,-0.11272060871124268
1700516287203689500,3.386689453125,0.00703364796936512,0.04457729309797287,-0.14056901633739471
1700516287213699600,3.396699462890625,-0.009125028736889362,-0.044461652636528015,0.10644590854644775
1700516287223709700,3.406709716796875,0.024060621857643127,0.0384950153529644,0.11267583817243576
1700516287233719600,3.416719482421875,-0.019940298050642014,-0.08085349947214127,-0.09259483218193054
1700516287243730700,3.426730712890625,0.010897775180637836,0.054596204310655594,-0.19944192469120026
1700516287253740800,3.43674072265625,-0.007334111258387566,-0.02184457704424858,0.12962765991687775
1700516287263751000,3.4467509765625,0.027137579396367073,-0.002721482887864113,0.1104305237531662
1700516287273761800,3.45676171875,0.03957495838403702,0.03437378630042076,0.07861826568841934
1700516287283771600,3.466771728515625,-0.021164821460843086,-0.024221882224082947,-0.14261585474014282
1700516287293781800,3.47678173828125,0.0035697496496140957,0.02738424949347973,-0.10154202580451965
1700516287303792600,3.486792724609375,-0.009159627370536327,-0.04104061424732208,0.1016334593296051
1700516287313802800,3.496802734375,0.021398145705461502,0.035928383469581604,0.09233787655830383
1700516287323812600,3.5068125,-0.01386982947587967,-0.08214552700519562,-0.1099449172616005
1700516287333823700,3.51682373046875,0.01748538389801979,0.04426741600036621,-0.1824779361486435
1700516287343833600,3.52683349609375,-0.010478340089321136,-0.035005833953619,0.12151950597763062
1700516287353843700,3.53684375,0.023492109030485153,-0.010347527451813221,0.09658999741077423
1700516287363854600,3.5468544921875,0.04029745236039162,0.03198714554309845,0.06970085948705673
1700516287373864700,3.55686474609375,-0.03344980999827385,-0.041815243661403656,-0.13717201352119446
1700516287383874600,3.56687451171875,0.011427916586399078,0.024371767416596413,-0.11417748034000397
1700516287393885700,3.5768857421875,-0.015280844643712044,-0.04501713439822197,0.08689186722040176
1700516287403895600,3.5868955078125,0.018946368247270584,0.029491189867258072,0.09546751528978348
1700516287413905700,3.59690576171875,-0.022060995921492577,-0.08394451439380646,-0.10079790651798248
1700516287423916500,3.60691650390625,0.02244229055941105,0.0535169392824173,-0.1940266638994217
1700516287433926700,3.6169267578125,-0.015912391245365143,-0.02304968424141407,0.10312675684690475
1700516287443936500,3.6269365234375,0.02503024786710739,-0.0003214688040316105,0.10804028809070587
1700516287453948000,3.636947998046875,0.0483456514775753,0.051188960671424866,0.10308688879013062
1700516287463957800,3.646957763671875,-0.03306505084037781,-0.01212370116263628,-0.1350737363100052
1700516287473967900,3.6569677734375,0.01685783453285694,0.04757056012749672,-0.12718036770820618
1700516287483978800,3.666978759765625,-0.01606149785220623,-0.022501464933156967,0.08358539640903473
1700516287493988900,3.67698876953125,0.018937375396490097,0.05369916930794716,0.12046561390161514
1700516287503998700,3.686998779296875,-0.019823335111141205,-0.058003127574920654,-0.07066812366247177
1700516287514009600,3.697009521484375,0.019852621480822563,0.06524181365966797,-0.20023585855960846
1700516287524019700,3.707019775390625,-0.01525050401687622,-0.0032672053202986717,0.09486689418554306
1700516287534029800,3.71702978515625,0.017953328788280487,0.02095857635140419,0.12333832681179047
1700516287544040700,3.727040771484375,0.04523980990052223,0.12330678850412369,0.09641429781913757
1700516287554050600,3.737050537109375,-0.04260899871587753,-0.04372451826930046,-0.11049505323171616
1700516287564060700,3.747060791015625,0.010546095669269562,0.0749797597527504,-0.1688915193080902
1700516287574071600,3.757071533203125,-0.013392343185842037,-0.029555197805166245,0.0827149972319603
1700516287584081700,3.76708154296875,0.014815859496593475,0.054858751595020294,0.1128995344042778
1700516287594091800,3.777091796875,-0.03213513642549515,-0.023069601505994797,-0.07812181860208511
1700516287604102700,3.7871025390625,-0.00869908556342125,0.061187390238046646,-0.22897407412528992
1700516287614112500,3.797112548828125,-0.010969133116304874,0.010383961722254753,0.059184640645980835
1700516287624122600,3.80712255859375,-0.005346933379769325,-0.028012162074446678,0.07283147424459457
1700516287634133500,3.817133544921875,0.04359531030058861,0.08596005290746689,0.09441293030977249
1700516287644143600,3.8271435546875,-0.05338876321911812,-0.09044666588306427,-0.10350095480680466
1700516287654154800,3.83715478515625,0.02569589950144291,0.08345465362071991,-0.2349153608083725
1700516287664164900,3.847164794921875,-0.015300003811717033,-0.04794997721910477,0.017831411212682724
1700516287674174700,3.8571748046875,0.017841443419456482,0.0640401616692543,0.14500299096107483
1700516287684185900,3.867185791015625,-0.015817714855074883,-0.04319547489285469,0.0004761633463203907
1700516287694195700,3.87719580078125,0.0034032079856842756,0.12085364013910294,-0.19644363224506378
1700516287704205800,3.887205810546875,0.0029422149527817965,0.03753850609064102,0.07050923258066177
1700516287714216700,3.897216796875,0.024413548409938812,0.0407903790473938,0.14399181306362152
1700516287724226800,3.907226806640625,0.04935644567012787,0.13179165124893188,0.19268079102039337
1700516287734236700,3.917236572265625,-0.02144080586731434,-0.029688173905014992,-0.04952247813344002
1700516287744247600,3.92724755859375,0.007247831206768751,0.11926215887069702,-0.19693110883235931
1700516287754257700,3.937257568359375,0.0012771418550983071,0.012460049241781235,0.09307731688022614
1700516287764267800,3.947267822265625,0.047103218734264374,0.07502835243940353,0.19323454797267914
1700516287774278700,3.957278564453125,0.005570565816015005,0.00908749271184206,-0.06003401800990105
1700516287784288800,3.967288818359375,0.009328819811344147,0.13717995584011078,-0.16766060888767242
1700516287794299600,3.977299560546875,0.015328110195696354,0.022963177412748337,0.13828325271606445
1700516287804309500,3.9873095703125,0.04914785921573639,0.05220868065953255,0.1365351527929306
1700516287814319600,3.997319580078125,0.036331430077552795,0.12384499609470367,0.14920742809772491
1700516287824330800,4.007330810546875,-0.006220556329935789,-0.007021942175924778,-0.0550096221268177
1700516287834340600,4.017340576171875,-0.00006550841499119997,0.10769124329090118,-0.10643500089645386
1700516287844350500,4.0273505859375,0.008908012881875038,0.007441867142915726,0.11737412214279175
1700516287854361900,4.03736181640625,0.032278116792440414,0.058856017887592316,0.1267022341489792
1700516287864371700,4.047371826171875,-0.006498307920992374,-0.02121485024690628,-0.08398496359586716
1700516287874381800,4.0573818359375,0.0028771585784852505,0.0931299477815628,-0.10489469766616821
1700516287884392700,4.067392822265625,0.012048819102346897,-0.014428740367293358,0.1401696503162384
1700516287894402800,4.07740283203125,0.04296625405550003,0.027006851509213448,0.062063928693532944
1700516287904413700,4.08741357421875,0.01919407956302166,0.039557795971632004,0.12524928152561188
1700516287914423800,4.097423828125,-0.0050918348133563995,-0.03075401857495308,-0.09712374955415726
1700516287924433700,4.10743359375,-0.007662318181246519,0.03687242791056633,-0.07841584086418152
1700516287934444500,4.117444580078125,0.0036283819936215878,-0.030178451910614967,0.08948938548564911
1700516287944454700,4.12745458984375,0.02049844339489937,0.030563458800315857,0.06662135571241379
1700516287954464800,4.13746484375,-0.005731871351599693,-0.072295181453228,-0.11637474596500397
1700516287964475600,4.1474755859375,-0.006069560069590807,0.06682568788528442,-0.07423475384712219
1700516287974485800,4.15748583984375,0.0038601537235081196,-0.05291983112692833,0.14272014796733856
1700516287984496600,4.16749658203125,0.01353621669113636,0.00683883810415864,0.02981410175561905
1700516287994506500,4.177506591796875,0.003550396766513586,-0.018461216241121292,0.12528249621391296
1700516288004516600,4.1875166015625,-0.016176169738173485,-0.044955942779779434,-0.12133580446243286
1700516288014527700,4.19752783203125,-0.01940126158297062,0.015166027471423149,-0.06465978175401688
1700516288024537900,4.207537841796875,-0.004123506136238575,0.0033336025662720203,0.07930032163858414
1700516288034547700,4.217547607421875,0.00992678478360176,0.021716009825468063,0.05191350355744362
1700516288044558800,4.227558837890625,-0.0008877794025465846,-0.04983087629079819,-0.15090644359588623
1700516288054568700,4.237568603515625,0.010765600949525833,0.05507221817970276,-0.004910660907626152
1700516288064579800,4.247579833984375,0.01167586911469698,-0.03312155604362488,0.143209308385849
1700516288074590000,4.25758984375,0.014615113846957684,0.05325698107481003,0.04034614935517311
1700516288084600000,4.26760009765625,0.011331170797348022,-0.03887161612510681,0.13618266582489014
1700516288094611000,4.27761083984375,0.002826359122991562,0.012204967439174652,-0.13070477545261383
1700516288104621000,4.28762109375,-0.01595638319849968,-0.005400391295552254,-0.004408619832247496
1700516288114632000,4.2976318359375,0.003122719470411539,0.022399503737688065,0.09768281877040863
1700516288124641800,4.307641845703125,0.0006094945129007101,0.019752321764826775,0.04146641492843628
1700516288134652000,4.31765185546875,-0.002505151554942131,-0.05406665802001953,-0.1674351692199707
1700516288144662800,4.327662841796875,0.0002874392084777355,0.047554776072502136,0.014134896919131279
1700516288154673000,4.3376728515625,-0.014866886660456657,-0.046831149607896805,0.10900125652551651
1700516288164683800,4.347683837890625,-0.01975351944565773,0.09236002713441849,0.00973938312381506
1700516288174694000,4.35769384765625,-0.000011062133125960827,-0.08812694996595383,0.06394094973802567
1700516288184703700,4.367703857421875,-0.009213615208864212,-0.0014455834170803428,-0.17318902909755707
1700516288194715000,4.37771484375,-0.011053246445953846,-0.05993027985095978,0.032614707946777344
1700516288204724700,4.387724853515625,0.0012614764273166656,0.020374681800603867,0.09562909603118896
1700516288214736000,4.39773583984375,-0.018244445323944092,-0.008386892266571522,0.001980869099497795
1700516288224745700,4.407745849609375,-0.00383168226107955,-0.0449552908539772,-0.18755364418029785
1700516288234755800,4.417755859375,0.002997813280671835,-0.010107187554240227,0.060277801007032394
1700516288244767000,4.42776708984375,-0.010651953518390656,-0.028745586052536964,0.12243598699569702
1700516288254776800,4.43777685546875,-0.002213636413216591,0.11899375170469284,0.03574312850832939
1700516288264788000,4.4477880859375,-0.006507717538625002,-0.07870734483003616,0.02352960593998432
1700516288274797800,4.4577978515625,-0.01204789336770773,0.010826351121068,-0.14502806961536407
1700516288284808000,4.467807861328125,-0.004452291876077652,-0.05745629966259003,0.06660588830709457
1700516288294818800,4.47781884765625,0.0023359719198197126,0.024623848497867584,0.09432867169380188
1700516288304829000,4.487828857421875,-0.029458709061145782,-0.017722276970744133,-0.019495636224746704
1700516288314839800,4.49783984375,0.008687303401529789,0.0008556487737223506,-0.1731521040201187
1700516288324850000,4.507849853515625,0.004457671195268631,-0.0005329234409146011,0.09373845160007477
1700516288334859800,4.51785986328125,-0.012718607671558857,0.012438395991921425,0.10616365075111389
1700516288344871000,4.527870849609375,0.007994660176336765,0.12415587157011032,0.017738981172442436
1700516288354880800,4.537880859375,-0.01138995960354805,-0.06178370490670204,-0.011238813400268555
1700516288364891600,4.5478916015625,-0.0033866288140416145,0.04135653004050255,-0.13714240491390228
1700516288374901800,4.55790185546875,-0.0006997198797762394,-0.04772806540131569,0.08313891291618347
1700516288384913000,4.567912841796875,0.009233870543539524,0.044955264776945114,0.07608286291360855
1700516288394923000,4.577923095703125,-0.03264616057276726,-0.03411130607128143,-0.05499599501490593
1700516288404932900,4.587932861328125,0.006795523688197136,0.03166531026363373,-0.1661752462387085
1700516288414944000,4.597944091796875,-0.0014433644246309996,-0.01659158617258072,0.11379743367433548
1700516288424953900,4.607953857421875,-0.002178929513320327,0.019723013043403625,0.08087517321109772
1700516288434965000,4.617965087890625,0.01376332901418209,0.08217475563287735,0.028264429420232773
1700516288444974800,4.627974853515625,-0.016350630670785904,-0.05324618145823479,-0.04942290484905243
1700516288454985000,4.63798486328125,0.002279468346387148,0.03268461674451828,-0.11313584446907043
1700516288464995800,4.647995849609375,-0.00045559799764305353,-0.060012299567461014,0.07481168955564499
1700516288475006000,4.658005859375,0.01289194356650114,0.03597089648246765,0.0599689707159996
1700516288485016800,4.668016845703125,-0.0247462447732687,-0.060057632625103,-0.06708857417106628
1700516288495027000,4.67802685546875,0.0036692002322524786,0.02799101546406746,-0.14923745393753052
1700516288505037800,4.688037841796875,-0.0005002449033781886,-0.025896985083818436,0.10992753505706787
1700516288515047700,4.698047607421875,0.011922779493033886,-0.004787729121744633,0.06003732234239578
1700516288525057800,4.708057861328125,0.024981055408716202,0.06657353788614273,0.06292419135570526
1700516288535068700,4.718068603515625,-0.01185791939496994,-0.032250549644231796,-0.06152847781777382
1700516288545078800,4.728078857421875,0.006079801823943853,0.0384230874478817,-0.10235553979873657
1700516288555090000,4.73808984375,-0.0002812021994031966,-0.04241383075714111,0.08813721686601639
1700516288565100000,4.74810009765625,0.01950288936495781,0.0424608439207077,0.08274777233600616
1700516288575111000,4.75811083984375,-0.02110046148300171,-0.05799461901187897,-0.09638367593288422
1700516288585121000,4.76812109375,0.008153562434017658,0.05525177717208862,-0.12502649426460266
1700516288595131000,4.778130859375,0.006091875955462456,-0.02957218326628208,0.14213798940181732
1700516288605141800,4.788141845703125,0.028895193710923195,0.018313849344849586,0.05014493688941002
1700516288615151900,4.79815185546875,0.021410688757896423,0.0736275240778923,0.05149436742067337
1700516288625162800,4.808162841796875,-0.014808835461735725,-0.03096413053572178,-0.06378109008073807
1700516288635172900,4.8181728515625,0.010468784719705582,0.058495696634054184,-0.09076007455587387
1700516288645183700,4.828183837890625,-0.00014604255557060242,-0.01776471734046936,0.08469616621732712
1700516288655193900,4.83819384765625,0.01831081323325634,0.03731415793299675,0.06887167692184448
1700516288665203700,4.84820361328125,-0.015736103057861328,-0.05095897987484932,-0.10466628521680832
1700516288675214800,4.85821484375,0.0032347626984119415,0.06109004467725754,-0.1038818359375
1700516288685224700,4.868224609375,0.0035884305834770203,-0.04275698959827423,0.1384732723236084
1700516288695235800,4.87823583984375,0.03448157757520676,0.01863715797662735,0.023231811821460724
1700516288705246000,4.888245849609375,0.01778089627623558,0.012203757651150227,0.07253491878509521
1700516288715256800,4.8982568359375,-0.004663694649934769,-0.03928876295685768,-0.08391404151916504
1700516288725267000,4.908266845703125,-0.003809618763625622,-0.010000384412705898,-0.04450751096010208
1700516288735277800,4.91827783203125,-0.007131638471037149,-0.03650059178471565,0.0717659667134285
1700516288745288000,4.928287841796875,0.01159278117120266,0.01334100216627121,0.0472869910299778
1700516288755297800,4.9382978515625,-0.008824340999126434,-0.07429853081703186,-0.12488722056150436
1700516288765309000,4.948308837890625,-0.0036660642363131046,0.03111817128956318,-0.0819980725646019
1700516288775318800,4.95831884765625,0.005332447122782469,-0.05813060700893402,0.12221342325210571
1700516288785330000,4.968329833984375,0.03349697217345238,0.016387036070227623,0.01833016611635685
1700516288795339800,4.97833984375,0.01903928816318512,-0.003951041493564844,0.07847416400909424
1700516288805350700,4.9883505859375,-0.005722516216337681,-0.02586805820465088,-0.10849598795175552
1700516288815360800,4.99836083984375,-0.004061988089233637,-0.010165097191929817,-0.01298525556921959
1700516288825371600,5.00837158203125,-0.0033724959939718246,-0.005437720566987991,0.07961685210466385
1700516288835381800,5.0183818359375,0.0105562349781394,0.030217060819268227,0.04732990637421608
1700516288845393000,5.028392822265625,-0.004285828210413456,-0.048251647502183914,-0.1358817219734192
1700516288855403000,5.038403076171875,-0.006523594725877047,0.031850896775722504,-0.041278064250946045
1700516288865412900,5.048412841796875,-0.002442300785332918,-0.03298642113804817,0.11827483773231506
1700516288875424000,5.058424072265625,-0.011671619489789009,0.04543979465961456,-0.005679701920598745
1700516288885433900,5.068433837890625,0.005923619028180838,0.009607759304344654,0.13741087913513184
1700516288895445000,5.078445068359375,-0.019750166684389114,-0.03207996487617493,-0.13326095044612885
1700516288905454800,5.088454833984375,-0.009692472405731678,0.01056762970983982,-0.022851882502436638
1700516288915465700,5.0984658203125,0.00013525120448321104,0.037204112857580185,0.11215993762016296
1700516288925475800,5.108475830078125,-0.00785423256456852,0.012219667434692383,0.041883908212184906
1700516288935486700,5.11848681640625,0.008801045827567577,-0.04008546471595764,-0.18255868554115295
1700516288945496800,5.128496826171875,-0.00791055615991354,0.02358299493789673,0.012021992355585098
1700516288955507700,5.1385078125,-0.009601231664419174,-0.023846175521612167,0.12344544380903244
1700516288965517800,5.148517822265625,0.04157966375350952,0.1951833814382553,-0.036696821451187134
1700516288975527700,5.158527587890625,0.022658705711364746,-0.2395816296339035,0.237688347697258
1700516288985539000,5.1685390625,-0.011183412745594978,0.032594501972198486,-0.4187116026878357
1700516288995549000,5.178548828125,-0.0398469939827919,-0.016609081998467445,0.07846624404191971
1700516289005559800,5.188559814453125,0.052940733730793,0.0027305276598781347,0.2928544282913208
1700516289015570000,5.19856982421875,-0.03105728141963482,-0.03716059401631355,-0.2365233153104782
1700516289025580300,5.208580322265625,0.036229878664016724,0.06281660497188568,-0.2026284635066986
1700516289035590100,5.218590087890625,-0.006014067679643631,-0.09031248092651367,0.16287262737751007
1700516289045601000,5.22860107421875,-0.013206732459366322,0.27659282088279724,0.3057008981704712
1700516289055611100,5.238611083984375,-0.02824787236750126,-0.11166030168533325,-0.010818002745509148
1700516289065622000,5.2486220703125,-0.028358394280076027,0.011460830457508564,-0.32295140624046326
1700516289075632000,5.258632080078125,0.033737391233444214,0.13944847881793976,0.240934818983078
1700516289085643300,5.268643310546875,-0.008278767578303814,-0.127386674284935,0.10968810319900513
1700516289095653400,5.2786533203125,0.05105800926685333,0.054658323526382446,-0.22955192625522614
1700516289105664300,5.288664306640625,0.015749555081129074,-0.004899011459201574,0.012690534815192223
1700516289115674400,5.29867431640625,-0.0026430818252265453,-0.028423674404621124,0.34965479373931885
1700516289125685200,5.308685302734375,-0.006961663719266653,0.07292851060628891,-0.18208207190036774
1700516289135695000,5.318695068359375,-0.005186082329601049,-0.04227564483880997,-0.05615009739995003
1700516289145705200,5.328705322265625,-0.0029096119105815887,0.03125450015068054,0.06420347839593887
1700516289155716000,5.338716064453125,-0.017028529196977615,-0.019664015620946884,-0.12266218662261963
1700516289165726200,5.348726318359375,0.028828440234065056,-0.00907795038074255,0.04487115889787674
1700516289175737000,5.358737060546875,0.003270035143941641,0.06554020196199417,0.09565399587154388
1700516289185747200,5.368747314453125,-0.0013721208088099957,-0.02358621545135975,-0.05154690891504288
1700516289195758000,5.378758056640625,0.03649216517806053,0.07910177856683731,-0.08652215451002121
1700516289205768200,5.388768310546875,0.007313241250813007,0.0007883312646299601,0.2513669431209564
1700516289215779300,5.398779296875,0.026013363152742386,-0.007764759007841349,-0.09309421479701996
1700516289225789200,5.4087890625,-0.021111538633704185,0.07125788182020187,-0.10634130984544754
1700516289235800300,5.41880029296875,0.009718744084239006,0.025654416531324387,0.0652397871017456
1700516289245810200,5.42881005859375,-0.026028068736195564,-0.07259944826364517,0.2165459394454956
1700516289255821300,5.4388212890625,-0.02949349395930767,0.08028912544250488,-0.2914666533470154
1700516289265831200,5.4488310546875,-0.029341960325837135,0.01864439807832241,0.08016921579837799
1700516289275842300,5.45884228515625,0.010514815337955952,-0.00417758384719491,0.1666427105665207
1700516289285852200,5.46885205078125,-0.010275950655341148,-0.05285404250025749,-0.23738598823547363
1700516289295863000,5.478863037109375,0.030651472508907318,-0.035717759281396866,0.0025821176823228598
1700516289305873200,5.488873046875,0.007924054749310017,0.05835814028978348,0.18243657052516937
1700516289315884000,5.498884033203125,-0.01105225645005703,-0.13465939462184906,-0.07354437559843063
1700516289325894100,5.50889404296875,0.009637841954827309,0.009479673579335213,-0.2686195969581604
1700516289335905000,5.518905029296875,0.01216292567551136,-0.003326485399156809,0.21438413858413696
1700516289345915100,5.5289150390625,0.00021731678862124681,-0.06830628216266632,-0.05351654812693596
1700516289355926300,5.53892626953125,-0.0491303987801075,0.08804505318403244,-0.19743755459785461
1700516289365936400,5.548936279296875,-0.00723461527377367,0.053414907306432724,-0.0326097272336483
1700516289375947300,5.558947265625,-0.07529555261135101,0.049722883850336075,0.29631897807121277
1700516289385957000,5.56895703125,-0.018617890775203705,-0.009279183112084866,-0.3576253056526184
1700516289395968300,5.57896826171875,-0.04730622097849846,0.143656924366951,-0.05469764769077301
1700516289405978000,5.58897802734375,0.02207391895353794,0.1416904479265213,0.21128715574741364
1700516289415989200,5.5989892578125,-0.028243809938430786,0.04575629159808159,-0.21190722286701202
1700516289425999000,5.6089990234375,-0.023740669712424278,-0.053435537964105606,-0.141954243183136
1700516289436010200,5.61901025390625,-0.023906176909804344,0.21903692185878754,0.4381166696548462
1700516289446020000,5.62902001953125,0.06730788201093674,-0.3343319892883301,-0.0767432153224945
1700516289456031000,5.639031005859375,-0.02283903770148754,0.07491496205329895,-0.23936259746551514
1700516289466041000,5.649041015625,0.10552718490362167,-0.06930878758430481,0.37691977620124817
1700516289476052200,5.65905224609375,0.006018925923854113,-0.011696523055434227,-0.3129824101924896
1700516289486062300,5.669062255859375,-0.036883268505334854,-0.10306904464960098,-0.13252633810043335
1700516289496073200,5.6790732421875,0.056790679693222046,0.06621110439300537,0.7512849569320679
1700516289506083300,5.689083251953125,-0.025654930621385574,0.09464407712221146,-0.18289335072040558
1700516289516094200,5.69909423828125,-0.03606420010328293,0.10510753840208054,0.1092924177646637
1700516289526104300,5.709104248046875,0.03943561762571335,-0.14671429991722107,0.1380460411310196
1700516289536115200,5.719115234375,-0.060006894171237946,0.08739916235208511,-0.11327140033245087
1700516289546125000,5.729125,0.028311781585216522,0.17653968930244446,0.08914162963628769
1700516289556136200,5.73913623046875,0.04839619621634483,-0.27776703238487244,-0.06880191713571548
1700516289566146000,5.74914599609375,-0.16454936563968658,0.11395997554063797,-0.2019309401512146
1700516289576157200,5.7591572265625,0.12071965634822845,-0.12226404249668121,0.15383388102054596
1700516289586167000,5.7691669921875,-0.09145758301019669,0.06751148402690887,-0.04368159547448158
1700516289596178200,5.77917822265625,-0.09079094231128693,0.18670807778835297,0.3810752034187317
1700516289606188300,5.789188232421875,0.16767150163650513,-0.5655307769775391,0.07634112983942032
1700516289616199200,5.79919921875,-0.11826491355895996,0.32641613483428955,-0.45217645168304443
1700516289626209300,5.809209228515625,0.11341758072376251,-0.22999970614910126,0.18038661777973175
1700516289636220200,5.81922021484375,-0.03088371269404888,0.2255067378282547,-0.5490635633468628
1700516289646230300,5.829230224609375,-0.04921264946460724,0.17840926349163055,0.17056380212306976
1700516289656241200,5.8392412109375,0.2228984832763672,-0.41686663031578064,0.08564017713069916
1700516289666251300,5.849251220703125,-0.10868263989686966,0.3464147746562958,-0.3774358630180359
1700516289676262100,5.85926220703125,0.08029718697071075,-0.2251257747411728,0.5190157294273376
1700516289686272300,5.869272216796875,0.008228584192693233,0.15263350307941437,-0.3991064131259918
1700516289696283100,5.879283203125,-0.10038882493972778,0.2774757742881775,0.1686696708202362
1700516289706293000,5.88929296875,0.09446588158607483,-0.7792375087738037,0.11764004081487656
1700516289716304400,5.899304443359375,-0.054367419332265854,0.6109097003936768,-0.49043765664100647
1700516289726314200,5.909314208984375,-0.0637180432677269,-0.36383065581321716,0.6704153418540955
1700516289736325400,5.919325439453125,0.014065521769225597,-0.06716199219226837,-0.013706599362194538
1700516289746335200,5.929335205078125,-0.12680238485336304,0.478862464427948,0.47906768321990967
1700516289756346000,5.93934619140625,0.21364569664001465,-1.134117603302002,0.28180599212646484
1700516289766356200,5.949356201171875,-0.035601671785116196,1.009490728378296,-0.8505874276161194
1700516289776367000,5.9593671875,-0.054630495607852936,-0.3724977970123291,0.1466847062110901
1700516289786377200,5.969377197265625,0.02826864831149578,-0.4104449152946472,-0.5067434310913086
1700516289796388000,5.97938818359375,-0.0471024364233017,0.6806839108467102,0.3122785687446594
1700516289806398200,5.989398193359375,0.04597557336091995,-1.0540645122528076,-0.035428814589977264
1700516289816409000,5.9994091796875,0.010178427211940289,1.0648446083068848,-0.08435428142547607
1700516289826419200,6.009419189453125,0.024732070043683052,-0.7174724340438843,0.26645275950431824
1700516289836430000,6.01943017578125,-0.01484403945505619,0.678853452205658,-0.1204906553030014
1700516289846441200,6.029441162109375,0.05671989172697067,-0.4926612079143524,0.7071415185928345
1700516289856451300,6.039451416015625,0.01770910434424877,0.24456271529197693,-0.10560432076454163
1700516289866462200,6.049462158203125,-0.012521236203610897,-0.03620263189077377,0.5111448764801025
1700516289876472300,6.059472412109375,0.0050811986438930035,-0.21889811754226685,-0.10443898290395737
1700516289886483200,6.069483154296875,-0.034902703016996384,0.4880097806453705,-0.17635871469974518
1700516289896493300,6.079493408203125,0.05077868700027466,-0.6889094114303589,-0.16595111787319183
1700516289906504200,6.089504150390625,0.021984858438372612,0.48734304308891296,-0.8398565649986267
1700516289916514000,6.09951416015625,-0.03689610958099365,-0.17354853451251984,0.25990667939186096
1700516289926525200,6.109525146484375,0.04188844934105873,-0.395246297121048,-0.10104086995124817
1700516289936535000,6.11953515625,-0.033826421946287155,0.39195093512535095,0.43373775482177734
1700516289946546200,6.129546142578125,0.0968189388513565,-0.7163504958152771,0.16633054614067078
1700516289956556000,6.13955615234375,0.02886177785694599,0.6128621697425842,-0.4649234116077423
1700516289966567200,6.149567138671875,0.012196249328553677,-0.40313005447387695,-0.14287427067756653
1700516289976577300,6.159577392578125,0.05228446051478386,0.33546677231788635,-0.5303226113319397
1700516289986588200,6.169588134765625,-0.00384032865986228,-0.2111763209104538,0.3209371268749237
1700516289996599300,6.179599365234375,0.04789983108639717,0.12982280552387238,0.047910936176776886
1700516290006609200,6.189609130859375,0.05215103551745415,0.13604794442653656,0.6274142265319824
1700516290016620000,6.1996201171875,0.005747002083808184,-0.44267788529396057,0.3628729581832886
1700516290026630400,6.20963037109375,-0.0340142585337162,0.5235009789466858,0.2379978746175766
1700516290036641300,6.219641357421875,0.04506102576851845,-0.971756637096405,-0.30104631185531616
1700516290046651400,6.2296513671875,-0.048407137393951416,0.8390397429466248,-0.7732052803039551
1700516290056662300,6.239662353515625,-0.04814884439110756,-0.48473435640335083,0.052101824432611465
1700516290066672400,6.24967236328125,0.04066278412938118,0.20988118648529053,-0.06855642050504684
1700516290076683300,6.259683349609375,0.0065027764067053795,-0.2769968509674072,0.5784291625022888
1700516290086693400,6.269693359375,0.04994399473071098,-0.17371493577957153,-0.10067134350538254
1700516290096704300,6.279704345703125,0.08679110556840897,0.026064934208989143,0.10423417389392853
1700516290106715100,6.289715087890625,-0.0048426794819533825,-0.2444712221622467,-0.16245077550411224
1700516290116725200,6.299725341796875,-0.010965269058942795,0.37646156549453735,0.28228482604026794
1700516290126736400,6.309736328125,-0.019930534064769745,-0.773852527141571,0.1074536144733429
1700516290136746500,6.31974658203125,0.046399734914302826,0.7281298637390137,-0.16417570412158966
1700516290146757400,6.32975732421875,-0.0012519393349066377,-0.3664349317550659,0.25292325019836426
1700516290156767500,6.339767578125,0.0255474504083395,0.5108204483985901,0.03673503175377846
1700516290166778400,6.3497783203125,0.09557591378688812,-0.3672729730606079,0.3985214829444885
1700516290176788200,6.359788330078125,-0.01773502305150032,0.48449596762657166,-0.11806325614452362
1700516290186799400,6.36979931640625,-0.02741161920130253,-0.05461491644382477,0.5513302683830261
1700516290196809200,6.379809326171875,-0.02035427838563919,-0.10956642031669617,-0.0049260822124779224
1700516290206820400,6.3898203125,-0.025419611483812332,0.020830469205975533,0.293268084526062
1700516290216831200,6.399831298828125,-0.08801261335611343,-0.1663389801979065,-0.4938961863517761
1700516290226841000,6.409841064453125,-0.0635237842798233,0.10206717252731323,-0.10166794806718826
1700516290236852500,6.4198525390625,-0.0888996571302414,-0.3722251057624817,-0.1426786631345749
1700516290246862300,6.4298623046875,-0.04608854651451111,0.2039545774459839,-0.04962487891316414
1700516290256873500,6.43987353515625,0.03233829885721207,-0.7511731386184692,-0.4137606620788574
1700516290266883300,6.44988330078125,-0.0008971500210464001,0.6058104634284973,-0.8270547986030579
1700516290276894200,6.459894287109375,0.082262322306633,-0.591865062713623,-0.4253600239753723
1700516290286904300,6.469904296875,0.036423999816179276,0.4457075595855713,-0.33657342195510864
1700516290296915200,6.479915283203125,0.17119689285755157,-0.2680284380912781,-0.032424524426460266
1700516290306926300,6.48992626953125,-0.0021642388310283422,-0.2990707755088806,-0.6533008813858032
1700516290316936200,6.499936279296875,0.020981814712285995,0.5464890003204346,0.35204216837882996
1700516290326947300,6.509947265625,-0.0589686743915081,-0.3390975594520569,0.02069219946861267
1700516290336957200,6.519957275390625,0.04918815568089485,0.07440374791622162,0.4429667592048645
1700516290346968300,6.52996826171875,-0.036120083183050156,0.478727787733078,0.42088621854782104
1700516290356978400,6.539978515625,-0.005490098614245653,0.2112465500831604,0.7607738375663757
1700516290366989300,6.5499892578125,-0.05984841287136078,0.23272573947906494,0.6082362532615662
1700516290377000400,6.56000048828125,0.16430407762527466,-0.40176549553871155,0.629383385181427
1700516290387010300,6.57001025390625,-0.011196639388799667,0.39458784461021423,-0.21810001134872437
1700516290397021200,6.580021240234375,-0.01782354526221752,-0.2091861367225647,0.09734556078910828
1700516290407031300,6.59003125,0.020321710035204887,0.3157176077365875,-0.2142924815416336
1700516290417042200,6.600042236328125,0.1844128966331482,-0.6301105618476868,-0.05592288821935654
1700516290427052300,6.61005224609375,-0.07043963670730591,0.46770331263542175,-0.47694388031959534
1700516290437063200,6.620063232421875,0.030511043965816498,-0.45159825682640076,-0.04545845836400986
1700516290447074300,6.63007421875,-0.02832750417292118,0.36363181471824646,-0.44345536828041077
1700516290457084400,6.64008447265625,0.1254889965057373,-0.8115850687026978,-0.2632220387458801
1700516290467095300,6.65009521484375,-0.0072823562659323215,0.37751075625419617,-0.6413326263427734
1700516290477105400,6.66010546875,0.04705967754125595,-0.29615405201911926,-0.25115102529525757
1700516290487116300,6.6701162109375,-0.013448942452669144,0.32190147042274475,-0.11566484719514847
1700516290497126400,6.68012646484375,0.08724924176931381,-0.08848504722118378,0.16324158012866974
1700516290507137300,6.69013720703125,-0.04255163297057152,-0.47739070653915405,-0.6648420095443726
1700516290517148200,6.700148193359375,-0.06005121022462845,0.4849797189235687,0.1440705507993698
1700516290527158300,6.710158203125,0.04778764024376869,-0.2803265154361725,-0.06432153284549713
1700516290537169200,6.720169189453125,-0.006493112538009882,0.05465967208147049,0.08378194272518158
1700516290547179300,6.73017919921875,0.0006846390897408128,0.5080348253250122,0.32519668340682983
1700516290557190400,6.7401904296875,-0.06290499120950699,-0.17989905178546906,0.42652177810668945
1700516290567200500,6.750200439453125,0.025010479614138603,0.359879732131958,0.6192521452903748
1700516290577211400,6.76021142578125,-0.0031317700631916523,-0.288400262594223,-0.2831750810146332
1700516290587222300,6.77022216796875,0.025747016072273254,0.4107668697834015,0.31305980682373047
1700516290597232400,6.780232421875,-0.004118719138205051,0.056150007992982864,0.43615517020225525
1700516290607243300,6.7902431640625,0.14003205299377441,-0.714133620262146,0.09837765991687775
1700516290617253400,6.80025341796875,-0.029507650062441826,0.5021875500679016,-0.25725430250167847
1700516290627264300,6.81026416015625,-0.04103274643421173,-0.4120258092880249,0.026073269546031952
1700516290637275100,6.820275146484375,0.030941151082515717,0.2655601501464844,0.13488389551639557
1700516290647285200,6.83028515625,-0.05183655023574829,-0.11680717766284943,-0.10605096071958542
1700516290657296400,6.84029638671875,0.019667942076921463,0.29027602076530457,0.1885102093219757
1700516290667306500,6.850306396484375,-0.035143639892339706,-0.12876386940479279,0.18537166714668274
1700516290677317400,6.8603173828125,0.17530350387096405,-0.34107452630996704,0.44932329654693604
1700516290687327500,6.870327392578125,-0.06593786180019379,0.6114857196807861,-0.3317307233810425
1700516290697338400,6.88033837890625,-0.06841779500246048,-0.371000200510025,0.1863669604063034
1700516290707349200,6.890349365234375,-0.10410735011100769,0.4257930815219879,0.3323175013065338
1700516290717359400,6.900359375,0.10341966152191162,-0.5979059934616089,-0.16524754464626312
1700516290727370200,6.910370361328125,-0.11514037847518921,0.4411747455596924,-0.3428950309753418
1700516290737380400,6.92038037109375,-0.09557795524597168,-0.34778541326522827,-0.03438599035143852
1700516290747391200,6.93039111328125,0.031234316527843475,0.03376247361302376,-0.07071416825056076
1700516290757402400,6.94040234375,0.030543707311153412,-0.4517814815044403,-0.8055297136306763
1700516290767412500,6.95041259765625,-0.07744001597166061,0.17628750205039978,-0.6316330432891846
1700516290777423400,6.96042333984375,-0.1325533241033554,0.03917577117681503,-0.29499179124832153
1700516290787433500,6.97043359375,0.07137370854616165,-0.4814695715904236,-0.13843679428100586
1700516290797444400,6.9804443359375,0.09507708996534348,0.27140316367149353,-0.057687096297740936
1700516290807455200,6.990455322265625,-0.020337384194135666,-0.13675369322299957,0.34927746653556824
1700516290817465300,7.00046533203125,0.07938271760940552,0.6073979139328003,0.7681753635406494
1700516290827476200,7.010476318359375,0.0953235998749733,0.11084222793579102,0.13863441348075867
1700516290837486300,7.020486328125,0.03748728707432747,0.19637523591518402,0.49582257866859436
1700516290847497200,7.030497314453125,-0.10791011899709702,0.24770046770572662,0.2945709526538849
1700516290857508400,7.04050830078125,0.12796948850154877,-0.48331257700920105,-0.080809086561203
1700516290867518500,7.0505185546875,-0.05413854122161865,0.33755913376808167,-0.23378479480743408
1700516290877529300,7.060529296875,-0.07450909167528152,-0.41549232602119446,0.23450931906700134
1700516290887539500,7.07053955078125,0.0542246550321579,-0.01721048355102539,0.1891772598028183
1700516290897550300,7.08055029296875,-0.05973503738641739,0.07869843393564224,-0.5072433948516846
1700516290907561200,7.090561279296875,0.030428411439061165,-0.038206081837415695,-0.22574329376220703
1700516290917571300,7.1005712890625,-0.06009570509195328,0.04996270686388016,0.08727899193763733
1700516290927582200,7.110582275390625,0.10391560196876526,-0.5165867805480957,0.08020617067813873
1700516290937593300,7.12059326171875,0.028046926483511925,0.6652106642723083,-0.15771250426769257
1700516290947603200,7.130603271484375,0.0502033606171608,-0.1618683636188507,0.0088024428114295
1700516290957614300,7.1406142578125,0.1419367492198944,0.26295536756515503,0.4645235538482666
1700516290967624400,7.15062451171875,0.039071619510650635,0.19800488650798798,0.41121906042099
1700516290977635300,7.16063525390625,-0.018915414810180664,0.20000602304935455,0.6239398121833801
1700516290987646500,7.170646484375,-0.049857351928949356,0.5820324420928955,0.483475923538208
1700516290997656300,7.18065625,0.12090421468019485,-0.38419875502586365,-0.0696951374411583
1700516291007667200,7.190667236328125,0.009321756660938263,0.17682196199893951,-0.1157345324754715
1700516291017677300,7.20067724609375,-0.17676576972007751,-0.10410673916339874,0.02880275435745716
1700516291027688200,7.210688232421875,0.1833612471818924,-0.47616979479789734,-0.135894313454628
1700516291037699300,7.22069921875,-0.0899573564529419,0.6046332120895386,-0.7933744192123413
1700516291047709200,7.230709228515625,0.34689027070999146,2.9053382873535156,-2.4596476554870605
1700516291057720000,7.240719970703125,-0.14185388386249542,-1.9558801651000977,0.3962748348712921
1700516291067731200,7.250731201171875,0.08144471794366837,-0.13000978529453278,0.3897687494754791
1700516291077741000,7.260740966796875,0.10421589016914368,0.2163098007440567,0.6269399523735046
1700516291087752400,7.27075244140625,0.009530395269393921,-0.6522163152694702,0.391704261302948
1700516291097762300,7.28076220703125,-0.03432024270296097,-0.5368633270263672,-0.3399847149848938
1700516291107773200,7.290773193359375,0.03199246898293495,0.8992180228233337,-0.8598827719688416
1700516291117784300,7.300784423828125,0.06375940144062042,0.26240333914756775,-0.16149255633354187
1700516291127794200,7.310794189453125,-0.06170265004038811,0.0741916373372078,0.7919164299964905
1700516291137805300,7.320805419921875,-0.030067874118685722,0.1112140342593193,0.5008208155632019
1700516291147815200,7.330815185546875,0.07215676456689835,0.29880788922309875,0.4369148015975952
1700516291157826300,7.340826416015625,-0.05445096641778946,0.33789780735969543,0.2960226833820343
1700516291167837200,7.350837158203125,0.09903793036937714,-0.5510238409042358,0.05100492760539055
1700516291177847000,7.360846923828125,0.0005149844801053405,0.41651058197021484,-0.3081202507019043
1700516291187858400,7.3708583984375,-0.10591425746679306,-0.42785048484802246,-0.15249310433864594
1700516291197869300,7.380869384765625,0.13722488284111023,-0.1137130856513977,-0.10223890841007233
1700516291207879400,7.39087939453125,-0.0022802739404141903,0.024802446365356445,-0.6075369715690613
1700516291217890300,7.400890380859375,0.06707892566919327,0.021224815398454666,-0.5175273418426514
1700516291227901200,7.410901123046875,-0.047321680933237076,0.4436458349227905,-0.042088884860277176
1700516291237911300,7.420911376953125,0.17993512749671936,-0.35716551542282104,-0.33963915705680847
1700516291247922200,7.430922119140625,0.05899272486567497,0.5851724743843079,-0.018880831077694893
1700516291257932300,7.440932373046875,-0.00900595635175705,0.011926454491913319,0.5373370051383972
1700516291267943200,7.450943115234375,0.18034027516841888,-0.12956781685352325,0.679772675037384
1700516291277954300,7.460954345703125,-0.049213510006666183,0.5569851398468018,0.23998525738716125
1700516291287964400,7.47096435546875,0.006078773178160191,-0.3301606774330139,0.27095142006874084
1700516291297975300,7.480975341796875,-0.0608886256814003,0.5666462779045105,0.1563238948583603
1700516291307986200,7.490986083984375,-0.0217292383313179,-0.17018243670463562,-0.2028161585330963
1700516291317996300,7.500996337890625,0.07637389749288559,-0.05785563588142395,-0.025814220309257507
1700516291328007200,7.511007080078125,-0.07513973116874695,0.011925041675567627,-0.1614876240491867
1700516291338017300,7.521017333984375,0.14385119080543518,-0.7392541766166687,-0.2976915240287781
1700516291348028200,7.531028076171875,-0.05926143378019333,0.4573808014392853,-0.639214277267456
1700516291358039000,7.5410390625,-0.002117935800924897,-0.37491917610168457,-0.19591452181339264
1700516291368049200,7.551049072265625,0.08224328607320786,0.21435366570949554,0.14115378260612488
1700516291378060300,7.561060302734375,0.08505842834711075,-0.3610941469669342,-0.3981057107448578
1700516291388071400,7.571071533203125,0.03434465080499649,0.4377066195011139,-0.18169432878494263
1700516291398081300,7.581081298828125,-0.06741659343242645,-0.06838158518075943,-0.20700004696846008
1700516291408092200,7.591092041015625,0.008718119002878666,-0.44104090332984924,-0.5286928415298462
1700516291418103300,7.601103271484375,-0.06914907693862915,0.26618197560310364,-0.5314617156982422
1700516291428113200,7.611113037109375,0.05577288195490837,-0.4484879672527313,-0.46245625615119934
1700516291438124300,7.621124267578125,-0.05221979692578316,0.1618785262107849,-0.11663002520799637
1700516291448135200,7.63113525390625,0.015163238160312176,-0.36209362745285034,-0.4911397099494934
1700516291458145000,7.64114501953125,0.10262015461921692,0.10566278547048569,0.24117949604988098
1700516291468156400,7.651156494140625,0.037505075335502625,0.5224546790122986,0.743768036365509
1700516291478167300,7.661167236328125,0.021511415019631386,-0.2500605583190918,0.5424674153327942
1700516291488177400,7.671177490234375,0.08755248039960861,1.1971640586853027,0.5643788576126099
1700516291498188300,7.681188232421875,-0.008322824724018574,-0.02228678949177265,0.8506917953491211
1700516291508198100,7.6911982421875,0.1732184737920761,-0.2563728094100952,0.7755730748176575
1700516291518209300,7.701209228515625,0.051796916872262955,0.6833644509315491,0.1125464141368866
1700516291528220200,7.71122021484375,0.029706262052059174,-0.6245282888412476,0.08759499341249466
1700516291538230300,7.721230224609375,0.014305876567959785,0.1468694657087326,0.084318146109581
1700516291548241200,7.7312412109375,-0.00026960449758917093,-0.33592090010643005,-0.3993273377418518
1700516291558252300,7.741252197265625,0.11026503145694733,-0.2834133207798004,-0.2608352601528168
1700516291568262400,7.751262451171875,-0.04831529036164284,0.3477446734905243,-0.22665490210056305
1700516291578273300,7.761273193359375,0.13243508338928223,-0.6558815836906433,0.014678672887384892
1700516291588284200,7.7712841796875,0.013010426424443722,0.5855230093002319,0.16246521472930908
1700516291598294300,7.781294189453125,-0.017176810652017593,-0.23891589045524597,0.3034909665584564
1700516291608305200,7.79130517578125,0.1997014284133911,0.19746488332748413,0.010373344644904137
1700516291618316300,7.80131640625,0.033470749855041504,0.43272992968559265,-0.4767385721206665
1700516291628326100,7.811326171875,0.07892344892024994,-0.2540830671787262,-0.015993623062968254
1700516291638337000,7.8213369140625,-0.12960419058799744,0.08131539821624756,-0.2066076695919037
1700516291648348400,7.831348388671875,-0.061717286705970764,-1.0938116312026978,-0.6061294674873352
1700516291658358300,7.841358154296875,-0.15981759130954742,0.27186456322669983,-0.7871347665786743
1700516291668369400,7.851369384765625,-0.012563151307404041,-0.5948470830917358,-0.5562911629676819
1700516291678380300,7.86138037109375,-0.09765562415122986,-0.09534578025341034,0.20271407067775726
1700516291688390100,7.87139013671875,-0.0021256417967379093,-0.2998581826686859,-0.3036859929561615
1700516291698401300,7.8814013671875,0.03231687843799591,0.20141300559043884,0.2815352976322174
1700516291708412200,7.891412109375,-0.0745384618639946,0.13917972147464752,0.6528676152229309
1700516291718422300,7.90142236328125,-0.018833745270967484,0.07305530458688736,0.48515987396240234
1700516291728433200,7.91143310546875,0.11862291395664215,0.6626935601234436,0.666083574295044
1700516291738444300,7.9214443359375,0.027972519397735596,-0.002537004416808486,0.6050180792808533
1700516291748454400,7.931454345703125,0.15719015896320343,-0.2965278923511505,0.6330222487449646
1700516291758465300,7.94146533203125,0.005467076785862446,0.4953743815422058,0.050245050340890884
1700516291768476200,7.95147607421875,0.016962876543402672,-0.46326744556427,0.08742624521255493
1700516291778486300,7.961486328125,0.0825926661491394,0.24600398540496826,0.24654385447502136
1700516291788497200,7.9714970703125,0.08512506633996964,0.14276708662509918,-0.2225557267665863
1700516291798508300,7.98150830078125,0.12444823235273361,-0.3365718126296997,0.15507225692272186
1700516291808518100,7.99151806640625,0.02281748689711094,0.33163154125213623,0.0852511003613472
1700516291818529000,8.001529052734375,0.20314788818359375,-0.607353925704956,-0.1775718629360199
1700516291828540400,8.01154052734375,0.006689427420496941,0.29329973459243774,-0.2323853075504303
1700516291838550300,8.02155029296875,-0.018101317808032036,-0.24717681109905243,0.09318383783102036
1700516291848561400,8.0315615234375,0.09796909242868423,-0.2979329526424408,0.2391359955072403
1700516291858572300,8.041572265625,-0.06972767412662506,-0.0542617067694664,-0.6393437385559082
1700516291868582100,8.05158203125,-0.01754596270620823,-0.0810275450348854,-0.5422661900520325
1700516291878593300,8.06159326171875,-0.13744276762008667,0.11390931904315948,-0.16467981040477753
1700516291888604200,8.071604248046874,0.04494888707995415,-0.610076367855072,-0.202076718211174
1700516291898614300,8.0816142578125,-0.10808784514665604,0.32076436281204224,-0.06853274255990982
1700516291908625200,8.091625244140625,-0.07682313024997711,-0.22964471578598022,0.49406591057777405
1700516291918636300,8.10163623046875,-0.010168869979679585,0.0016685571754351258,0.5925662517547607
1700516291928646400,8.111646484375,-0.07130705565214157,0.2645036578178406,0.03788412734866142
1700516291938657300,8.1216572265625,0.04027827829122543,-0.14162325859069824,0.35886940360069275
1700516291948668200,8.131668212890625,-0.09480151534080505,0.42976114153862,0.2723108232021332
1700516291958679300,8.14167919921875,0.03349898010492325,-0.4227657914161682,-0.23339417576789856
1700516291968689200,8.151689208984376,0.08758752048015594,0.12169670313596725,-0.17193880677223206
1700516291978700300,8.1617001953125,-0.12366933375597,-0.08330494165420532,-0.3385319113731384
1700516291988711200,8.171711181640624,0.14276263117790222,-0.5259918570518494,-0.44183114171028137
1700516291998721000,8.181720947265624,-0.02517440728843212,0.19973517954349518,-0.6603369116783142
1700516292008732400,8.191732421875,0.11924881488084793,-0.4926110506057739,-0.5144479274749756
1700516292018743300,8.201743408203125,-0.016955092549324036,0.5733441710472107,-0.13745111227035522
1700516292028753200,8.211753173828125,0.11322954297065735,-0.4719204008579254,-0.11781403422355652
1700516292038764000,8.221763916015625,0.18246817588806152,0.47104179859161377,0.30250751972198486
1700516292048775000,8.23177490234375,0.04618304222822189,0.20402447879314423,0.42487046122550964
1700516292058785000,8.241784912109376,0.2055322229862213,-0.14580385386943817,0.6995282769203186
1700516292068796000,8.2517958984375,-0.010447480715811253,0.753391444683075,0.1681898534297943
1700516292078806800,8.261806884765624,-0.010922899469733238,-0.2463252693414688,0.5147925019264221
1700516292088817000,8.27181689453125,0.0190962515771389,0.5949824452400208,0.44257768988609314
1700516292098827800,8.281827880859375,0.003559814067557454,-0.06224541738629341,-0.28209567070007324
1700516292108839000,8.2918388671875,-0.002972653601318598,0.17831525206565857,0.06364575028419495
1700516292118849000,8.30184912109375,-0.07030637562274933,0.256961464881897,-0.11325576901435852
1700516292128860000,8.31185986328125,0.09107638895511627,-0.8112484812736511,-0.35043662786483765
1700516292138871000,8.32187109375,-0.10661858320236206,0.6396151185035706,-0.5581454634666443
1700516292148882000,8.3318818359375,0.0043167294934391975,-0.7238626480102539,-0.011590765789151192
1700516292158892000,8.34189208984375,0.0994190126657486,0.19928830862045288,-0.19448062777519226
1700516292168903000,8.35190283203125,-0.018176328390836716,0.20002387464046478,-0.4714454114437103
1700516292178913800,8.361913818359374,0.15368078649044037,-0.07646164298057556,-0.07451712340116501
1700516292188924000,8.371923828125,0.0001708527561277151,0.4062882363796234,-0.14655323326587677
1700516292198935000,8.38193505859375,0.16791050136089325,-0.5435004830360413,-0.18187043070793152
1700516292208946000,8.39194580078125,-0.01737733744084835,0.4581868648529053,-0.35717061161994934
1700516292218956000,8.4019560546875,0.04684283956885338,-0.4158184230327606,-0.35640910267829895
1700516292228967000,8.411966796875,-0.026123778894543648,0.2455776333808899,0.2675623297691345
1700516292238977800,8.421977783203126,0.006796705536544323,-0.1985505223274231,-0.08589751273393631
1700516292248989000,8.431989013671876,0.051237404346466064,0.03212796524167061,0.15328417718410492
1700516292258998800,8.441998779296876,-0.12275746464729309,-0.07175663113594055,0.02691734954714775
1700516292269010000,8.452010009765624,0.012523924931883812,-0.7031862139701843,-0.5985113978385925
1700516292279021000,8.46202099609375,0.11242824047803879,1.4010719060897827,-0.29650333523750305
1700516292289031000,8.472031005859375,-0.03720279783010483,-0.2599281370639801,1.090134620666504
1700516292299042000,8.4820419921875,0.1387697011232376,0.0874406173825264,1.4262137413024902
1700516292309053000,8.492052978515625,0.01146713737398386,0.4479207992553711,0.5935497879981995
1700516292319063000,8.50206298828125,0.051859598606824875,-0.2463792860507965,0.5873649716377258
1700516292329074000,8.512073974609375,-0.009164872579276562,0.7553642392158508,0.028782112523913383
1700516292339084800,8.522084716796876,0.01776804029941559,-0.5571435689926147,-0.036282770335674286
1700516292349096000,8.532095947265624,0.0743173360824585,0.16203323006629944,0.010783008299767971
1700516292359105800,8.542105712890624,-0.07564850151538849,-0.36811068654060364,-0.04920855164527893
1700516292369117000,8.552116943359374,0.17292828857898712,-0.769959568977356,-0.08745980262756348
1700516292379128000,8.562128173828125,-0.07348574697971344,0.35842177271842957,-0.7294459342956543
1700516292389138000,8.572137939453125,0.039426952600479126,-0.023901350796222687,-0.4854663014411926
1700516292399149000,8.582149169921875,-0.012816058471798897,0.3903750777244568,0.15148654580116272
1700516292409160000,8.592159912109375,0.09594530612230301,-0.6097897291183472,-0.2625282406806946
1700516292419169800,8.602169677734375,0.015076424926519394,0.7368700504302979,0.09644120186567307
1700516292429181000,8.612180908203126,-0.004383292980492115,-0.1450520157814026,0.33852946758270264
1700516292439192000,8.622192138671876,0.1927066296339035,-0.12789098918437958,0.28230828046798706
1700516292449203000,8.632202880859374,-0.04279083013534546,0.5436261296272278,0.2003369927406311
1700516292459213000,8.642213134765624,0.007653085049241781,-0.4653283953666687,0.3305719792842865
1700516292469224000,8.652223876953125,-0.005102657712996006,0.2798038125038147,0.1344892829656601
1700516292479234800,8.66223486328125,-0.048619989305734634,-0.15161484479904175,-0.3713066577911377
1700516292489245000,8.672244873046875,0.07667747884988785,-0.10687773674726486,-0.06619333475828171
1700516292499255800,8.682255859375,-0.0709230825304985,0.15174317359924316,0.1123020276427269
1700516292509267000,8.692266845703125,0.0656677857041359,-0.6127944588661194,0.1470608115196228
1700516292519276800,8.70227685546875,0.026349501684308052,0.7215682864189148,-0.21977736055850983
1700516292529288000,8.712287841796876,-0.00671417498961091,-0.34561973810195923,0.44792506098747253
1700516292539299000,8.722299072265624,0.0707799419760704,0.23406508564949036,0.681376576423645
1700516292549310000,8.73231005859375,-0.024956172332167625,0.13453450798988342,-0.018210262060165405
1700516292559320000,8.742320068359374,0.010427260771393776,-0.20689940452575684,0.33069804310798645
1700516292569331000,8.7523310546875,-0.04312784597277641,0.4119366705417633,-0.06690338999032974
1700516292579341800,8.762341796875,-0.0341864675283432,-0.6524912118911743,-0.19453881680965424
1700516292589352000,8.77235205078125,0.01836302876472473,0.37641996145248413,-0.2518492341041565
1700516292599362800,8.78236279296875,-0.058188557624816895,-0.5164380669593811,-0.031543608754873276
1700516292609374000,8.7923740234375,0.055956654250621796,0.03043832816183567,-0.029787786304950714
1700516292619385000,8.802385009765626,-0.04089794307947159,0.10748797655105591,-0.5598638653755188
1700516292629395000,8.81239501953125,0.05507225915789604,0.18706989288330078,-0.4039030373096466
1700516292639406000,8.822406005859374,-0.059898801147937775,0.24094456434249878,-0.20803554356098175
1700516292649417000,8.8324169921875,0.12684018909931183,-0.7299624681472778,-0.5725080370903015
1700516292659426800,8.8424267578125,0.0012895034160465002,0.5244728326797485,-0.5286965370178223
1700516292669438000,8.85243798828125,-0.041858233511447906,-0.4469253122806549,-0.24427467584609985
1700516292679448800,8.86244873046875,0.09367939829826355,0.22592221200466156,-0.10856066644191742
1700516292689460000,8.8724599609375,0.06017043814063072,0.11014021933078766,0.12496527284383774
1700516292699470000,8.882469970703125,0.023592576384544373,0.05094600096344948,0.5051523447036743
1700516292709481000,8.89248095703125,-0.02112376131117344,0.4421007037162781,0.4695027768611908
1700516292719491800,8.902491943359376,0.055032260715961456,-0.4803636968135834,0.2579308748245239
1700516292729502000,8.912501953125,-0.0349859893321991,0.6796300411224365,-0.05172719806432724
1700516292739512800,8.922512939453124,-0.09105098992586136,-0.261735200881958,0.3291090726852417
1700516292749524000,8.93252392578125,0.05618026852607727,-0.27652081847190857,0.4515814483165741
1700516292759534800,8.942534912109375,-0.09441367536783218,0.2676687240600586,-0.08322720229625702
1700516292769545000,8.952544921875,-0.005483532324433327,-0.44104984402656555,0.4022044837474823
1700516292779556000,8.96255615234375,0.017826927825808525,0.3773776590824127,0.12537556886672974
1700516292789567000,8.97256689453125,-0.04844557121396065,-0.40009281039237976,-0.25424179434776306
1700516292799577000,8.9825771484375,0.06766777485609055,0.2292620837688446,-0.2986253499984741
1700516292809588000,8.992587890625,-0.061584487557411194,-0.3135567307472229,-0.4647703766822815
1700516292819598800,9.002598876953124,0.0374380424618721,-0.2605174779891968,-0.40145567059516907
1700516292829610000,9.01260986328125,-0.03337860479950905,0.17013297975063324,-0.9266067743301392
1700516292839619800,9.022619873046875,0.03735141083598137,-0.10470950603485107,-0.5268263816833496
1700516292849630700,9.032630615234375,0.09229721873998642,0.1816074699163437,-0.2684853672981262
1700516292859642000,9.04264208984375,0.05828598514199257,-0.10586052387952805,-0.3648894131183624
1700516292869653000,9.052653076171875,-0.03254564851522446,0.008591221645474434,-0.48740386962890625
1700516292879663000,9.0626630859375,0.062155336141586304,-0.0187758207321167,0.046003587543964386
1700516292889674000,9.072674072265626,-0.0633450597524643,-0.20299412310123444,-0.21775296330451965
1700516292899684900,9.082684814453126,-0.0017940872348845005,0.052065327763557434,-0.3305182456970215
1700516292909695000,9.092695068359374,0.03637859970331192,0.0692531019449234,-0.11175446957349777
1700516292919705900,9.102705810546874,-0.03230423480272293,0.10231225192546844,-0.37710443139076233
1700516292929716700,9.112716796875,-0.09985025227069855,-0.058520037680864334,-0.14104636013507843
1700516292939728100,9.12272802734375,-0.04120030999183655,0.7399842143058777,-0.3013589084148407
1700516292949738000,9.132738037109375,-0.08737712353467941,-0.2423211634159088,0.6540727615356445
1700516292959748900,9.142748779296875,-0.03956619277596474,0.22576268017292023,0.7589256763458252
1700516292969760000,9.152760009765625,-0.013425667770206928,0.20200808346271515,0.5268402695655823
1700516292979769900,9.162769775390625,0.05991574749350548,-0.17112848162651062,0.5101624131202698
1700516292989781000,9.172781005859376,-0.08056759834289551,0.5429829955101013,0.40942516922950745
1700516292999791900,9.1827919921875,0.015543188899755478,-0.3761105239391327,-0.052858635783195496
1700516293009803000,9.192802978515624,0.08293075114488602,0.46555277705192566,-0.0021781492978334427
1700516293019812900,9.202812744140624,-0.062467508018016815,-0.007956596091389656,-0.012986789457499981
1700516293029824300,9.21282421875,0.12605075538158417,-0.6038224101066589,-0.2165372520685196
1700516293039835400,9.22283544921875,0.00016218738164752722,0.4000914692878723,-0.6026448011398315
1700516293049845500,9.232845458984375,0.06412758678197861,-0.4819357395172119,-0.3136710524559021
1700516293059856400,9.2428564453125,-0.07831278443336487,0.2153337448835373,-0.6011307835578918
1700516293069867300,9.2528671875,0.18658572435379028,-0.068299300968647,-0.6249724626541138
1700516293079878400,9.26287841796875,0.03885667398571968,0.12831749022006989,-0.8634089231491089
1700516293089888300,9.27288818359375,-0.06750278919935226,-0.09640643000602722,0.004012192599475384
1700516293099899400,9.2828994140625,-0.11098804324865341,0.1201825961470604,0.46725860238075256
1700516293109910300,9.29291015625,0.04648254066705704,-0.156642884016037,0.28885823488235474
1700516293119921400,9.30292138671875,0.05438884347677231,0.1328403353691101,0.211283877491951
1700516293129931500,9.312931640625,-0.17713093757629395,0.4338499903678894,0.8473524451255798
1700516293139942400,9.3229423828125,-0.032026778906583786,-0.29403790831565857,0.4683072865009308
1700516293149953300,9.332953369140625,0.11402763426303864,0.6089564561843872,0.3195391297340393
1700516293159963400,9.34296337890625,-0.061875175684690475,-0.01294403150677681,0.24649028480052948
1700516293169974300,9.352974365234376,-0.03447151184082031,-0.21220441162586212,-0.0228788610547781
1700516293179985400,9.3629853515625,0.19932547211647034,0.37354788184165955,-0.3204014003276825
1700516293189996300,9.372996337890624,-0.02768663316965103,-0.06345580518245697,0.04157330468297005
1700516293200006100,9.383006103515624,0.141657292842865,0.034770891070365906,0.1674240678548813
1700516293210017500,9.393017578125,0.11420543491840363,0.3005700707435608,-0.03748645633459091
1700516293220028400,9.4030283203125,0.08109714835882187,0.23783652484416962,0.40447184443473816
1700516293230038500,9.41303857421875,-0.03953871876001358,0.30646777153015137,0.4879443645477295
1700516293240049400,9.42304931640625,0.00807886105030775,-0.3160839378833771,0.2818448543548584
1700516293250060300,9.433060302734376,0.03832704573869705,0.398693323135376,-0.10748369991779327
1700516293260071200,9.4430712890625,-0.1723451018333435,-0.3824026584625244,0.17845965921878815
1700516293270081300,9.453081298828126,-0.029036136344075203,-0.04193320497870445,0.11549853533506393
1700516293280092200,9.463092041015624,-0.054358672350645065,-0.21498873829841614,-0.29089418053627014
1700516293290103600,9.473103515625,0.03172747790813446,-0.032238900661468506,-0.32656827569007874
1700516293300114400,9.483114501953125,-0.16066314280033112,-0.2691549062728882,-0.6271085143089294
1700516293310124300,9.493124267578125,-0.07455328851938248,-0.3164750337600708,-0.6007530689239502
1700516293320135400,9.503135498046875,-0.0036141816526651382,-0.12692973017692566,-0.6974387168884277
1700516293330146300,9.513146240234375,0.02267681062221527,0.0067620291374623775,-0.5643874406814575
1700516293340156400,9.523156494140625,-0.10922947525978088,0.05498708039522171,-0.5723231434822083
1700516293350167300,9.533167236328126,0.025612495839595795,-0.11001759022474289,-0.4346981644630432
1700516293360178400,9.543178466796874,0.07451320439577103,0.2350631058216095,-0.16601786017417908
1700516293370189300,9.553189208984374,-0.016714442521333694,0.16263072192668915,-0.06030420958995819
1700516293380199400,9.563199462890625,-0.09339270740747452,0.16987425088882446,-0.02679498679935932
1700516293390210300,9.573210205078125,0.05672382190823555,0.10577090084552765,0.03596612811088562
1700516293400221400,9.583221435546875,0.03289731591939926,0.21483135223388672,-0.002090290654450655
1700516293410231300,9.593231201171875,-0.14935904741287231,0.2756536900997162,-0.1375304013490677
1700516293420242400,9.603242431640625,0.016761356964707375,-0.21746614575386047,0.48621806502342224
1700516293430253300,9.61325341796875,0.016689717769622803,0.09649764746427536,0.7494933605194092
1700516293440264400,9.623264404296876,0.03471186012029648,0.565424382686615,0.8466513156890869
1700516293450274600,9.633274658203124,-0.012725429609417915,-0.27848556637763977,0.5504953265190125
1700516293460285400,9.643285400390624,0.13749970495700836,0.4621093273162842,0.2220974862575531
1700516293470296300,9.65329638671875,-0.011325716972351074,-0.04802505299448967,0.08707388490438461
1700516293480307500,9.663307373046875,0.13020792603492737,0.014238185249269009,-0.013394193723797798
1700516293490317300,9.6733173828125,0.08184704929590225,0.018524009734392166,-0.22583243250846863
1700516293500328200,9.683328125,-0.07458306103944778,-0.07012476772069931,0.021213356405496597
1700516293510339300,9.69333935546875,-0.1884331852197647,-0.056437719613313675,-0.2980160415172577
1700516293520349200,9.70334912109375,-0.03181377053260803,-0.1326400637626648,-0.31821951270103455
1700516293530360600,9.713360595703126,0.0206742025911808,0.10305660963058472,-0.5898264646530151
1700516293540371500,9.723371337890624,-0.03717831149697304,-0.0411750003695488,-0.3666948080062866
1700516293550382300,9.73338232421875,-0.11939381808042526,0.08629027754068375,-0.27524957060813904
1700516293560392400,9.743392333984374,0.039499953389167786,-0.11635710299015045,-0.17620688676834106
1700516293570403300,9.7534033203125,0.09309660643339157,0.12785077095031738,0.138871431350708
1700516293580414200,9.763414306640625,-0.09273184835910797,0.1512242704629898,0.06124268099665642
1700516293590425300,9.77342529296875,-0.05414824187755585,-0.2482301890850067,0.12147113680839539
1700516293600435200,9.783435302734375,0.1469140648841858,0.38270077109336853,0.05052716284990311
1700516293610446300,9.7934462890625,-0.04233414679765701,-0.006367621012032032,-0.07670535147190094
1700516293620457500,9.80345751953125,0.0701620876789093,0.25943833589553833,0.9159764647483826
1700516293630467300,9.81346728515625,0.0602271631360054,0.2618357241153717,0.4948633015155792
1700516293640478500,9.823478515625,-0.07378577440977097,-0.08423911780118942,0.5702403783798218
1700516293650489300,9.8334892578125,0.08432716131210327,0.32900118827819824,0.40382370352745056
1700516293660500200,9.843500244140625,0.13049012422561646,0.07758360356092453,-0.05433574318885803
1700516293670510300,9.85351025390625,-0.008613426238298416,0.04256809502840042,0.031573038548231125
1700516293680521200,9.863521240234375,-0.0008399183279834688,0.1404973268508911,-0.1839989572763443
1700516293690532400,9.873532470703125,0.16600924730300903,-0.5340744256973267,-0.486446738243103
1700516293700542500,9.88354248046875,0.052450913935899734,0.06846920400857925,-0.5445278882980347
1700516293710553300,9.89355322265625,0.0026215745601803064,-0.20962581038475037,-0.3177149295806885
1700516293720564500,9.903564453125,-0.20932269096374512,-0.1435968428850174,-0.42098987102508545
1700516293730575400,9.913575439453124,-0.0006935792625881732,-0.21304675936698914,-0.3933712840080261
1700516293740585200,9.923585205078124,0.09426537901163101,0.021876933053135872,-0.13109144568443298
1700516293750596400,9.933596435546875,-0.03625401481986046,0.02855161391198635,0.13687582314014435
1700516293760607200,9.943607177734375,-0.015356726013123989,-0.08590784668922424,0.25655415654182434
1700516293770618400,9.953618408203125,0.10236378759145737,0.19627216458320618,0.04735567793250084
1700516293780628500,9.96362841796875,0.032257385551929474,-0.07818682491779327,0.21424762904644012
1700516293790639400,9.973639404296875,-0.1003965362906456,0.07303811609745026,0.1194193959236145
1700516293800650200,9.983650146484376,0.02580566331744194,-0.0704808235168457,0.00614764541387558
1700516293810660400,9.993660400390626,0.0564274899661541,-0.045230064541101456,0.036807022988796234
1700516293820671200,10.003671142578124,-0.03843500837683678,0.07181186974048615,-0.06088872253894806
1700516293830682400,10.013682373046874,0.004993957467377186,-0.15408436954021454,-0.19540312886238098
1700516293840693500,10.023693603515625,0.04460727423429489,-0.07919269055128098,-0.35064175724983215
1700516293850703400,10.033703369140625,0.006060414481908083,-0.08464418351650238,-0.06108637526631355
1700516293860714500,10.043714599609375,-0.11859264969825745,0.13024042546749115,-0.1029023677110672
1700516293870725400,10.053725341796875,0.0827614963054657,-0.18976713716983795,-0.160356342792511
1700516293880735500,10.063735595703125,0.07477320730686188,0.017971539869904518,-0.009757284075021744
1700516293890746400,10.073746337890626,-0.0882580578327179,0.016274306923151016,-0.10429950058460236
1700516293900757200,10.08375732421875,-0.059682559221982956,-0.1283077746629715,-0.20961210131645203
1700516293910768400,10.093768310546874,0.11425301432609558,0.05744504556059837,-0.2883884012699127
1700516293920778200,10.1037783203125,-0.012251133099198341,-0.20209118723869324,-0.011368108913302422
1700516293930789400,10.113789306640625,-0.07426922768354416,0.03491044044494629,0.09799646586179733
1700516293940800500,10.123800537109375,0.10918785631656647,0.04821266606450081,-0.056485615670681
1700516293950811400,10.133811279296875,0.032107193022966385,-0.15188872814178467,0.30839061737060547
1700516293960821500,10.143821533203125,-0.037709079682826996,0.5053075551986694,0.858485758304596
1700516293970832400,10.153832275390625,-0.003115416504442692,-0.18053263425827026,0.49629855155944824
1700516293980843300,10.16384326171875,0.038167137652635574,0.2095741331577301,0.24641606211662292
1700516293990853400,10.173853271484376,-0.03396058827638626,-0.15486986935138702,-0.22157110273838043
1700516294000864300,10.1838642578125,0.02462899684906006,-0.21443505585193634,-0.5011163353919983
1700516294010875400,10.19387548828125,0.05360179394483566,-0.10974034667015076,-0.6228422522544861
1700516294020886500,10.203886474609375,-0.0424928292632103,-0.2396356165409088,0.025003936141729355
1700516294030899700,10.213899658203125,-0.13638336956501007,0.1849910318851471,0.10800560563802719
1700516294040910800,10.223910888671876,0.026500316336750984,-0.3637859523296356,0.03908086195588112
1700516294050922000,10.233921875,0.12667593359947205,0.21388591825962067,0.1988777220249176
1700516294060931800,10.243931884765624,-0.007682378403842449,-0.026799792423844337,0.029819313436746597
1700516294070943000,10.25394287109375,-0.07871394604444504,-0.22285212576389313,-0.18795108795166016
1700516294080953900,10.263953857421875,0.008019307628273964,0.05757221207022667,-0.28500092029571533
1700516294090964700,10.27396484375,0.08648668974637985,0.15642689168453217,-0.15181249380111694
1700516294100974800,10.283974853515625,-0.09694334119558334,0.08135716617107391,-0.36647430062294006
1700516294110985700,10.29398583984375,-0.0439099483191967,-0.2122398167848587,-0.23386885225772858
1700516294120996900,10.303996826171876,0.07496931403875351,0.34255096316337585,0.17994986474514008
1700516294131008000,10.314008056640626,-0.09379680454730988,0.12054239213466644,0.5028693079948425
1700516294141017900,10.324017822265626,-0.13085278868675232,-0.3394591510295868,0.6263490319252014
1700516294151029000,10.334029052734374,0.06576865911483765,0.08830815553665161,0.0017299202736467123
1700516294161040000,10.344039794921875,-0.028021423146128654,-0.10689529031515121,-0.07411312311887741
1700516294171049700,10.3540498046875,-0.03300313279032707,-0.18170349299907684,0.03160558640956879
1700516294181060900,10.364060791015625,0.023515800014138222,-0.44344374537467957,-0.08605244755744934
1700516294191071700,10.37407177734375,-0.027386529371142387,0.14403758943080902,-0.30053064227104187
1700516294201083000,10.384082763671875,-0.07075463980436325,0.04261922836303711,-0.4104476571083069
1700516294211093000,10.394093017578125,-0.002482110168784857,-0.16742882132530212,-0.39344897866249084
1700516294221103900,10.404103759765626,0.06735221296548843,0.11706829071044922,-0.12099546194076538
1700516294231114800,10.41411474609375,-0.006154227070510387,0.042855847626924515,0.13029322028160095
1700516294241124900,10.424124755859374,-0.05586854740977287,-0.13807012140750885,-0.019547171890735626
1700516294251135700,10.4341357421875,-0.031707022339105606,-0.22585883736610413,-0.002840894740074873
1700516294261147000,10.44414697265625,0.04402799904346466,0.24913179874420166,0.20906323194503784
1700516294271157800,10.45415771484375,-0.054518017917871475,-0.14769305288791656,0.04135678708553314
1700516294281168000,10.46416796875,-0.10532113909721375,-0.3024255335330963,-0.10630438476800919
1700516294291179000,10.474178955078125,0.09629479795694351,0.36814936995506287,-0.22422116994857788
1700516294301190000,10.48418994140625,0.0541674979031086,-0.17063312232494354,-0.046985503286123276
1700516294311200000,10.494199951171876,-0.24435633420944214,-0.005646304227411747,0.015352972783148289
1700516294321211000,10.5042109375,-0.010855264961719513,-0.4385817348957062,-0.0027020294219255447
1700516294331221800,10.5142216796875,0.08445394039154053,0.29630956053733826,-0.03463200107216835
1700516294341233000,10.52423291015625,-0.16708260774612427,0.1732073277235031,-0.0830521285533905
1700516294351242800,10.53424267578125,0.05541198328137398,-0.412363201379776,0.03576347231864929
1700516294361253600,10.544253662109375,0.03361709043383598,0.2870890200138092,-0.17120173573493958
1700516294371265000,10.55426513671875,-0.15594404935836792,0.12565432488918304,-0.22376056015491486
1700516294381275000,10.56427490234375,-0.10603299736976624,-0.09663480520248413,-0.17597275972366333
1700516294391286000,10.5742861328125,0.07536555826663971,-0.18698281049728394,-0.20628619194030762
1700516294401297000,10.584296875,-0.08322391659021378,0.3373033404350281,-0.07967446744441986
1700516294411307800,10.594307861328126,-0.12222644686698914,0.06144697964191437,0.04823608696460724
1700516294421318000,10.60431787109375,0.09609594941139221,-0.48581662774086,0.36020785570144653
1700516294431328800,10.614328857421874,-0.03665170818567276,0.17486780881881714,0.2016586810350418
1700516294441340000,10.62433984375,-0.17619109153747559,0.19076701998710632,-0.08492811024188995
1700516294451350000,10.63435009765625,0.13213451206684113,-0.20174618065357208,0.07929357886314392
1700516294461361000,10.64436083984375,0.03237361088395119,-0.0666196420788765,0.06894488632678986
1700516294471371800,10.654371826171875,-0.11728192865848541,0.13873057067394257,0.16633322834968567
1700516294481383000,10.6643828125,-0.14905360341072083,0.022374410182237625,0.0326668806374073
1700516294491392800,10.674392822265625,0.09692206233739853,-0.30272698402404785,0.028169067576527596
1700516294501404000,10.68440380859375,-0.0006723126862198114,0.3846455514431,-0.14916768670082092
1700516294511414800,10.694414794921874,-0.0849459171295166,0.04034462198615074,-0.20552444458007812
1700516294521425000,10.7044248046875,-0.0000015944242477416992,-0.2686607539653778,-0.15390019118785858
1700516294531436000,10.71443603515625,0.06731858849525452,0.27928462624549866,-0.11007069051265717
1700516294541447000,10.724447021484375,-0.023720597848296165,0.2020265907049179,-0.021105460822582245
1700516294551457800,10.734457763671875,-0.07756705582141876,-0.0624077208340168,-0.10853943228721619
1700516294561468000,10.744468017578125,0.03852124884724617,-0.33950522541999817,-0.016086112707853317
1700516294571478800,10.754478759765625,0.05302722379565239,0.14581698179244995,0.18065330386161804
1700516294581490000,10.764489990234376,-0.1684563308954239,0.11504308879375458,0.11575598269701004
1700516294591499800,10.774499755859376,0.04839474707841873,-0.4181222915649414,0.15617504715919495
1700516294601510700,10.7845107421875,0.09935437142848969,0.4012387692928314,0.013844965025782585
1700516294611522000,10.79452197265625,-0.1163685992360115,0.1607459932565689,0.3117413818836212
1700516294621533000,10.804532958984375,0.013886217959225178,-0.2705964744091034,0.4297957122325897
1700516294631543000,10.81454296875,0.046917401254177094,0.20637646317481995,-0.05839872360229492
1700516294641554000,10.824553955078125,-0.060238707810640335,0.11144143342971802,0.28053686022758484
1700516294651564800,10.834564697265625,0.009598428383469582,-0.12139341235160828,0.25299072265625
1700516294661575000,10.844574951171875,-0.0012249586870893836,-0.1324528604745865,-0.1857917606830597
1700516294671585800,10.854585693359375,0.004825743380934,0.06613906472921371,-0.3812369108200073
1700516294681596700,10.8645966796875,-0.19951856136322021,-0.030529282987117767,-0.15033574402332306
1700516294691608000,10.874608154296874,-0.19825568795204163,-0.43427062034606934,-0.20142556726932526
1700516294701618000,10.884617919921874,0.056264478713274,0.03508619964122772,-0.137501522898674
1700516294711628800,10.89462890625,0.14891985058784485,0.1875380575656891,-0.059964124113321304
1700516294721640000,10.904639892578125,0.06981579214334488,-0.17999707162380219,-0.21207281947135925
1700516294731649800,10.91464990234375,0.019970206543803215,-0.34802523255348206,-0.12135117501020432
1700516294741661000,10.924660888671875,-0.02371375635266304,0.5200202465057373,0.17381276190280914
1700516294751671800,10.934671875,-0.0265516210347414,0.03721873089671135,-0.0912519320845604
1700516294761682700,10.9446826171875,0.014856405556201935,-0.20256656408309937,-0.2507682740688324
1700516294771692800,10.95469287109375,0.0571945384144783,0.4346224367618561,-0.34609052538871765
1700516294781704000,10.964703857421876,-0.11417064070701599,0.22802583873271942,0.042227644473314285
1700516294791714800,10.97471484375,-0.14644521474838257,-0.11682529747486115,0.8142202496528625
1700516294801725000,10.984724853515624,0.09066106379032135,0.4781477749347687,1.2126667499542236
1700516294811735800,10.99473583984375,-0.16415710747241974,0.08214852213859558,1.2997920513153076
1700516294821747000,11.004746826171875,0.018625620752573013,-0.06421174854040146,0.7050265073776245
1700516294831757800,11.0147578125,0.00927339680492878,-0.3425765335559845,-0.5456531047821045
1700516294841767700,11.024767578125,0.031045813113451004,0.1317867636680603,-0.8723781704902649
1700516294851778800,11.03477880859375,-0.30631306767463684,-0.4882221519947052,-1.0757086277008057
1700516294861790000,11.0447900390625,-0.13316474854946136,-0.37903958559036255,-0.8722271919250488
1700516294871800000,11.054800048828126,0.15855339169502258,0.48643583059310913,-0.4504213035106659
1700516294881811000,11.06481103515625,0.2767423689365387,0.28914445638656616,0.01874656230211258
1700516294891821800,11.07482177734375,0.03275501728057861,0.2314944714307785,0.1479085385799408
1700516294901832000,11.08483203125,-0.04185929149389267,-0.20428575575351715,0.3939124047756195
1700516294911842800,11.0948427734375,0.011831365525722504,0.29105445742607117,0.44700464606285095
1700516294921853700,11.104853759765625,-0.14542913436889648,0.09364032000303268,0.018111979588866234
1700516294931864800,11.11486474609375,-0.1378849297761917,-0.3491826355457306,0.1348457783460617
1700516294941874700,11.124874755859375,0.08967765420675278,0.3081246614456177,0.19838839769363403
1700516294951885800,11.1348857421875,-0.10293680429458618,0.1749815046787262,0.2862154245376587
1700516294961897000,11.14489697265625,0.028302351012825966,-0.42605531215667725,0.3937791883945465
1700516294971906800,11.15490673828125,0.013733794912695885,0.3804316222667694,-0.28669095039367676
1700516294981918000,11.16491796875,-0.061363570392131805,-0.03306395560503006,0.03956994414329529
1700516294991928800,11.1749287109375,0.02145753987133503,0.004245602060109377,0.05966722220182419
1700516295001939000,11.18493896484375,0.044615283608436584,0.11544416099786758,-0.4514259994029999
1700516295011949800,11.19494970703125,-0.04802756756544113,0.23681959509849548,-0.18539191782474518
1700516295021961000,11.2049609375,-0.10468636453151703,-0.03126472607254982,-0.1448156088590622
1700516295031968500,11.214968505859375,-0.09995339810848236,-0.3457307815551758,-0.1795634776353836
1700516295041978600,11.224978515625,-0.014747065491974354,0.5665733814239502,-0.23403571546077728
1700516295051989500,11.234989501953125,0.0209339652210474,-0.07964105904102325,-0.24853208661079407
1700516295062000600,11.245000732421875,0.004215971566736698,-0.3326520025730133,-0.1580348014831543
1700516295072010500,11.255010498046875,0.015375682152807713,0.1113416850566864,0.03921569138765335
1700516295082021400,11.265021484375,0.022927075624465942,0.03369243070483208,0.4210259020328522
1700516295092032500,11.275032470703126,-0.085743747651577,-0.01509108580648899,0.5849336385726929
1700516295102043400,11.28504345703125,0.06649132817983627,-0.5686104893684387,0.4217238128185272
1700516295112053500,11.295053466796874,-0.02083585225045681,0.5429931879043579,-0.07797681540250778
1700516295122064600,11.305064697265625,-0.09095137566328049,0.13481664657592773,-0.2304297387599945
1700516295132075500,11.315075439453125,0.06985720992088318,-0.46831849217414856,-0.2262568175792694
1700516295142085600,11.325085693359375,0.0308319590985775,0.6334144473075867,-0.37423282861709595
1700516295152096500,11.335096435546875,-0.137968510389328,0.2695579528808594,-0.2653910219669342
1700516295162107400,11.345107421875,0.025778433308005333,-0.22670453786849976,-0.03153511881828308
1700516295172117500,11.355117431640625,0.015288506634533405,0.3441419303417206,-0.02395949512720108
1700516295182128400,11.36512841796875,-0.12411843240261078,0.20529228448867798,-0.02134488709270954
1700516295192139300,11.37513916015625,-0.06694329530000687,-0.17168481647968292,0.1636665165424347
1700516295202150700,11.385150634765624,0.07740318775177002,-0.15407027304172516,0.12304076552391052
1700516295212160500,11.395160400390624,-0.06271343678236008,0.15712276101112366,0.2536661624908447
1700516295222171600,11.405171630859375,-0.006698193494230509,-0.2458963543176651,0.5690363645553589
1700516295232182500,11.4151826171875,0.020225832238793373,-0.23178985714912415,0.5081746578216553
1700516295242192400,11.4251923828125,0.008912012912333012,0.07756880670785904,-0.19027374684810638
1700516295252203500,11.43520361328125,-0.12126144021749496,0.1656251698732376,-0.6400949358940125
1700516295262214400,11.44521435546875,0.1008879691362381,-0.1445315182209015,-0.5481359958648682
1700516295272224500,11.455224609375,0.004690859466791153,0.3072702884674072,-0.4755372107028961
1700516295282235400,11.4652353515625,-0.10169097036123276,0.08600156009197235,0.08760391920804977
1700516295292246500,11.47524658203125,-0.0629611536860466,-0.11682665348052979,0.4275834262371063
1700516295302257700,11.485257568359375,0.043376512825489044,-0.1433231085538864,0.21986909210681915
1700516295312267500,11.495267578125,-0.09748952090740204,0.19907471537590027,0.016987349838018417
1700516295322278400,11.5052783203125,-0.05597817152738571,-0.05923312529921532,0.12047787010669708
1700516295332289500,11.51528955078125,0.04891655221581459,-0.4665340483188629,0.15720632672309875
1700516295342299400,11.52529931640625,0.012319349683821201,0.38120800256729126,0.16284243762493134
1700516295352310500,11.535310546875,-0.11750708520412445,-0.03809124603867531,0.362388014793396
1700516295362321400,11.5453212890625,0.08523226529359818,-0.46752673387527466,0.28655368089675903
1700516295372331300,11.555331298828126,0.05649728700518608,0.5401886105537415,-0.2746308147907257
1700516295382342700,11.5653427734375,-0.056597352027893066,-0.008515363559126854,-0.14457711577415466
1700516295392353500,11.575353515625,-0.04947739094495773,-0.25191763043403625,-0.12767137587070465
1700516295402363600,11.58536376953125,0.11866456270217896,0.061920467764139175,-0.35658934712409973
1700516295412374500,11.59537451171875,-0.042658280581235886,0.23617109656333923,-0.1000281348824501
1700516295422385400,11.605385498046875,-0.010406112298369408,-0.24103927612304688,0.22167040407657623
1700516295432396300,11.615396240234375,0.06607747822999954,-0.5835912823677063,0.19974219799041748
1700516295442406400,11.625406494140625,-0.08248865604400635,0.26354852318763733,-0.06228116527199745
1700516295452417300,11.635417236328125,-0.06959176063537598,0.11049824208021164,-0.27254411578178406
1700516295462428700,11.6454287109375,0.15091291069984436,-0.25723475217819214,0.06335772573947906
1700516295472438500,11.6554384765625,0.02997344546020031,0.16765154898166656,0.0841175988316536
1700516295482449400,11.665449462890624,-0.14741575717926025,0.22048108279705048,0.2349366396665573
1700516295492460500,11.67546044921875,0.09336195886135101,-0.29370206594467163,0.24344171583652496
1700516295502470400,11.685470458984375,0.029995815828442574,0.09481301158666611,-0.32872891426086426
1700516295512481500,11.6954814453125,-0.10266315937042236,-0.020549802109599113,-0.19458386301994324
1700516295522492400,11.705492431640625,0.03236709535121918,-0.4276970326900482,-0.14353367686271667
1700516295532502500,11.71550244140625,0.03232768177986145,-0.26079991459846497,-0.31982800364494324
1700516295542513400,11.725513427734375,-0.002649390371516347,0.10922258347272873,-0.22393232583999634
1700516295552524500,11.735524658203126,-0.019232627004384995,-0.15278638899326324,-0.17483800649642944
1700516295562535400,11.745535400390626,0.08164036273956299,-0.3216566741466522,-0.10342996567487717
1700516295572545500,11.755545654296874,0.08314930647611618,0.4284372925758362,0.10436291247606277
1700516295582556400,11.765556396484374,-0.03961193561553955,0.057839300483465195,0.13378645479679108
1700516295592567600,11.775567626953125,-0.05496079847216606,-0.23013097047805786,0.02386395074427128
1700516295602577400,11.785577392578125,0.054034214466810226,0.21012865006923676,-0.08487699925899506
1700516295612588300,11.79558837890625,-0.0191236212849617,-0.03677886351943016,-0.28989461064338684
1700516295622599400,11.805599365234375,-0.09437389671802521,-0.15360718965530396,-0.27134212851524353
1700516295632609300,11.815609375,0.013853773474693298,-0.38044169545173645,-0.04222054034471512
1700516295642620700,11.82562060546875,-0.01856018602848053,0.2868002653121948,0.06689085066318512
1700516295652631600,11.835631591796876,-0.033984411507844925,-0.1706639677286148,-0.001993413083255291
1700516295662641400,11.845641357421876,0.02033684030175209,-0.092684306204319,-0.09656406193971634
1700516295672652500,11.855652587890624,0.11053650826215744,0.39796051383018494,-0.0716073140501976
1700516295682663400,11.865663330078124,-0.1682792454957962,0.10095862299203873,0.08693015575408936
1700516295692673500,11.875673583984375,0.06928059458732605,-0.2537781298160553,0.2518778145313263
1700516295702684400,11.885684326171875,0.040246590971946716,0.4837053418159485,0.10588141530752182
1700516295712695600,11.895695556640625,-0.1431029886007309,0.14974603056907654,0.5185731053352356
1700516295722705400,11.905705322265625,-0.007064024917781353,-0.29817745089530945,0.6976976990699768
1700516295732716500,11.915716552734375,-0.049716681241989136,-0.08714774996042252,-0.17168718576431274
1700516295742727400,11.9257275390625,-0.10609269142150879,0.2576567530632019,-0.841102659702301
1700516295752737500,11.935737548828126,0.13874156773090363,-0.22507232427597046,-0.3189438581466675
1700516295762748400,11.94574853515625,-0.11964472383260727,-0.3580532968044281,0.026419393718242645
1700516295772759600,11.955759521484374,-0.0007734617101959884,0.2517293691635132,0.2077993005514145
1700516295782770400,11.9657705078125,-0.03939484804868698,-0.061867304146289825,0.3028627634048462
1700516295792780300,11.9757802734375,0.01028855238109827,-0.4037039875984192,0.21811352670192719
1700516295802791700,11.985791748046875,0.03734311833977699,0.4635468125343323,-0.1569027155637741
1700516295812802600,11.995802490234375,-0.027832956984639168,0.030410025268793106,-0.2888554334640503
1700516295822812700,12.005812744140625,0.04130319133400917,-0.28017356991767883,0.07863615453243256
1700516295832823600,12.015823486328125,0.025508517399430275,0.02563457004725933,0.10556869953870773
1700516295842834400,12.02583447265625,-0.08743272721767426,0.23840636014938354,-0.06976340711116791
1700516295852844500,12.035844482421876,0.10334973782300949,-0.24889831244945526,0.126618891954422
1700516295862855400,12.04585546875,-0.032002050429582596,-0.20004291832447052,0.09903784096240997
1700516295872866300,12.0558662109375,-0.059197984635829926,0.17366142570972443,0.025637395679950714
1700516295882876400,12.06587646484375,0.0034759168047457933,-0.18120409548282623,-0.02996239811182022
1700516295892887600,12.075887451171875,0.024761764332652092,-0.32886573672294617,-0.027501635253429413
1700516295902898400,12.0858984375,0.036692824214696884,0.2592649459838867,-0.04289285093545914
1700516295912908500,12.095908447265625,-0.012396959587931633,-0.0015541391912847757,-0.20348893105983734
1700516295922919400,12.10591943359375,0.07294803112745285,-0.31966927647590637,-0.14051871001720428
1700516295932930600,12.1159306640625,0.048173174262046814,0.2808344066143036,0.036910660564899445
1700516295942940400,12.1259404296875,-0.06244650483131409,-0.02889804169535637,0.005968163721263409
1700516295952951600,12.13595166015625,0.017601726576685905,-0.241275817155838,0.03717348724603653
1700516295962962400,12.14596240234375,0.08664728701114655,0.31989774107933044,-0.06912580877542496
1700516295972972300,12.15597216796875,-0.07360044121742249,0.1357702612876892,0.04521035775542259
1700516295982983700,12.165983642578125,-0.024381229653954506,-0.23331186175346375,0.37457364797592163
1700516295992994600,12.17599462890625,0.012440435588359833,-0.3632395267486572,0.3575158417224884
1700516296003004700,12.186004638671875,-0.0962144210934639,0.19273258745670319,0.02898469939827919
1700516296013015600,12.196015625,-0.08840709924697876,-0.10028517991304398,-0.19064433872699738
