time,seconds_elapsed,z,y,x
1700515531995009800,0.061009765625,-0.0032697089482098818,0.020616810768842697,-0.10115424543619156
1700515532005020000,0.07102001953125,0.05987623706459999,-0.009738165885210037,0.06412473320960999
1700515532015030000,0.081030029296875,-0.02603025548160076,-0.04494532570242882,0.18971581757068634
1700515532025040000,0.091039794921875,-0.05334949493408203,0.003984132781624794,-0.07822960615158081
1700515532035050000,0.101050048828125,0.019891591742634773,0.05074087157845497,-0.08120866119861603
1700515532045059800,0.111059814453125,0.048614583909511566,-0.06976050138473511,0.056188613176345825
1700515532055070000,0.121070068359375,-0.035041432827711105,-0.004222835414111614,0.10235203057527542
1700515532065079800,0.131079833984375,-0.0412742979824543,0.00853503867983818,-0.13191398978233337
1700515532075090000,0.14108984375,0.027239572256803513,0.08155898004770279,-0.05322621762752533
1700515532085100000,0.15110009765625,0.049519043415784836,-0.12576358020305634,0.09632039815187454
1700515532095110000,0.16110986328125,-0.04208943620324135,0.03649655729532242,0.08380980044603348
1700515532105120000,0.1711201171875,-0.041941896080970764,0.07473528385162354,-0.10992691665887833
1700515532115129900,0.1811298828125,0.06952492147684097,0.006650334224104881,0.0034225210547447205
1700515532125140000,0.191139892578125,0.0061645954847335815,-0.09237797558307648,0.13591477274894714
1700515532135150800,0.20115087890625,-0.0338437557220459,0.07291155308485031,-0.021440189331769943
1700515532145161000,0.211160888671875,-0.02398872934281826,0.005196423269808292,-0.1522916853427887
1700515532155170800,0.2211708984375,0.05544186010956764,0.032347820699214935,0.001119030173867941
1700515532165181000,0.231180908203125,-0.005793000105768442,-0.09224922955036163,0.1759510338306427
1700515532175191000,0.24119091796875,-0.046523336321115494,0.008998814970254898,-0.002865238580852747
1700515532185201000,0.251200927734375,-0.007520274259150028,0.07622925192117691,-0.08201012760400772
1700515532195211000,0.2612109375,0.05832723528146744,-0.045645203441381454,0.03700298070907593
1700515532205220900,0.271220947265625,-0.030322207137942314,-0.05403735861182213,0.10535993427038193
1700515532215231000,0.28123095703125,-0.02783966064453125,0.035575032234191895,-0.13112440705299377
1700515532225240800,0.29124072265625,0.002230091253295541,0.04037857428193092,-0.08857641369104385
1700515532235250000,0.30125,0.054543472826480865,-0.03935521841049194,0.05651085078716278
1700515532245260000,0.311260009765625,-0.029584720730781555,-0.04488633573055267,0.14955690503120422
1700515532255270000,0.321269775390625,-0.05216832831501961,0.02374877780675888,-0.08267086744308472
1700515532265280000,0.331280029296875,0.028235966339707375,0.044736348092556,-0.03492731600999832
1700515532275290000,0.3412900390625,0.031109675765037537,-0.10183362662792206,0.07688797265291214
1700515532285300000,0.351300048828125,-0.033041078597307205,0.014052232727408409,0.04176807403564453
1700515532295310000,0.36131005859375,-0.033700693398714066,0.022896839305758476,-0.16571259498596191
1700515532305320000,0.37131982421875,0.029659105464816093,0.05233275890350342,-0.04547032713890076
1700515532315330000,0.381330078125,0.03181546926498413,-0.10573336482048035,0.11769508570432663
1700515532325340200,0.391340087890625,-0.031955789774656296,0.029377318918704987,0.08302365988492966
1700515532335350000,0.40135009765625,-0.03355730324983597,0.07889877259731293,-0.09393255412578583
1700515532345361000,0.41136083984375,0.053464680910110474,0.014363987371325493,0.010377073660492897
1700515532355371000,0.42137109375,0.005096345208585262,-0.10118851065635681,0.09996814280748367
1700515532365381000,0.431381103515625,-0.019338689744472504,0.05982940271496773,-0.04375653341412544
1700515532375391000,0.441390869140625,-0.031043069437146187,0.009778829291462898,-0.1305156946182251
1700515532385401000,0.451401123046875,0.049602773040533066,0.06147238612174988,0.0008103759028017521
1700515532395411000,0.461410888671875,0.00753766531124711,-0.13799625635147095,0.1601031869649887
1700515532405421000,0.471421142578125,-0.04671385511755943,0.041233405470848083,0.008105937391519547
1700515532415431000,0.481430908203125,-0.01395212672650814,0.09099815785884857,-0.06588044762611389
1700515532425441000,0.49144091796875,0.06089574843645096,-0.05657372623682022,0.05310985445976257
1700515532435451100,0.501451171875,-0.03060077130794525,-0.06178462132811546,0.09503871202468872
1700515532445461000,0.5114609375,-0.017206136137247086,0.05820569768548012,-0.12829050421714783
1700515532455471000,0.52147119140625,-0.007693006657063961,0.0183281097561121,-0.0976986214518547
1700515532465481000,0.53148095703125,0.04781179875135422,-0.009869973175227642,0.05235772579908371
1700515532475491000,0.541490966796875,-0.021537767723202705,-0.06933540850877762,0.14322654902935028
1700515532485501000,0.5515009765625,-0.04434880614280701,0.015091057866811752,-0.06891714036464691
1700515532495511000,0.561510986328125,0.01125117763876915,0.06380362808704376,-0.0430702269077301
1700515532505521200,0.571521240234375,0.04289858415722847,-0.09619323164224625,0.06896389275789261
1700515532515531000,0.581531005859375,-0.03591649606823921,-0.007458791136741638,0.05424166098237038
1700515532525541000,0.591541015625,-0.03109830431640148,0.02346104197204113,-0.15168939530849457
1700515532535551000,0.601551025390625,0.01486657839268446,0.06843768805265427,-0.04520587623119354
1700515532545561000,0.61156103515625,0.0455951951444149,-0.10800498723983765,0.10080432891845703
1700515532555571200,0.6215712890625,-0.03778736665844917,0.0055513521656394005,0.08809342980384827
1700515532565582000,0.63158203125,-0.03902893140912056,0.07539381831884384,-0.09394294768571854
1700515532575592000,0.641592041015625,0.0476662814617157,0.0265620406717062,0.0012567320372909307
1700515532585602000,0.65160205078125,0.010342082008719444,-0.1117662712931633,0.10517194867134094
1700515532595612200,0.661612060546875,-0.023708879947662354,0.06050990894436836,-0.027347305789589882
1700515532605622000,0.6716220703125,-0.03218918293714523,-0.0031162044033408165,-0.14990171790122986
1700515532615632100,0.681632080078125,0.04206352308392525,0.06011320278048515,-0.010398191399872303
1700515532625642000,0.69164208984375,0.014121372252702713,-0.12151571363210678,0.14645692706108093
1700515532635652000,0.701652099609375,-0.03778203949332237,0.03263325244188309,0.013881180435419083
1700515532645662000,0.711661865234375,-0.01838010922074318,0.0883290022611618,-0.0812956690788269
1700515532655672000,0.721672119140625,0.058798350393772125,-0.02661903388798237,0.03433448448777199
1700515532665682200,0.73168212890625,-0.021062923595309258,-0.07751790434122086,0.10088901221752167
1700515532675692000,0.741692138671875,-0.01615850254893303,0.05805317685008049,-0.10168848931789398
1700515532685702000,0.751701904296875,-0.016858115792274475,0.018121737986803055,-0.10430558025836945
1700515532695711700,0.761711669921875,0.057212863117456436,0.015134953893721104,0.03439728170633316
1700515532705721900,0.771721923828125,-0.015731651335954666,-0.09463202208280563,0.15592531859874725
1700515532715732000,0.78173193359375,-0.05059956759214401,0.021808885037899017,-0.053027208894491196
1700515532725741800,0.791741943359375,0.010874446481466293,0.0677739828824997,-0.04867134243249893
1700515532735752000,0.801751953125,0.05042659863829613,-0.08786506950855255,0.06406503915786743
1700515532745761800,0.81176171875,-0.035874202847480774,-0.008715923875570297,0.0636674240231514
1700515532755772000,0.82177197265625,-0.03069792501628399,0.01960236020386219,-0.15353532135486603
1700515532765781800,0.83178173828125,0.010318750515580177,0.05137893557548523,-0.055854033678770065
1700515532775791900,0.8417919921875,0.05031697824597359,-0.0772947445511818,0.0977661982178688
1700515532785803000,0.851802978515625,-0.03450709953904152,-0.005716697312891483,0.1076880693435669
1700515532795813000,0.861813232421875,-0.04016716778278351,0.0659308061003685,-0.09589877724647522
1700515532805823000,0.871822998046875,0.05063464120030403,0.033155813813209534,-0.007936162874102592
1700515532815832800,0.881832763671875,0.016299253329634666,-0.10706811398267746,0.10731576383113861
1700515532825843000,0.891843017578125,-0.031087171286344528,0.057164497673511505,-0.013302529230713844
1700515532835852800,0.901852783203125,-0.0299944207072258,0.0016260645352303982,-0.15645858645439148
1700515532845863000,0.91186279296875,0.04441855847835541,0.05418088287115097,-0.012325655668973923
1700515532855872800,0.921872802734375,0.014497305266559124,-0.10997127741575241,0.15403491258621216
1700515532865883000,0.9318828125,-0.04128286987543106,0.029728297144174576,0.021693909540772438
1700515532875893000,0.94189306640625,-0.015526855364441872,0.07844195514917374,-0.09050743281841278
1700515532885902800,0.95190283203125,0.06423934549093246,-0.014210755005478859,0.02714356780052185
1700515532895913000,0.961912841796875,-0.018050625920295715,-0.08329157531261444,0.10504920780658722
1700515532905922800,0.9719228515625,-0.0254193264991045,0.04822356998920441,-0.10839410126209259
1700515532915933000,0.981932861328125,-0.013466473668813705,0.022587163373827934,-0.1053963452577591
1700515532925942800,0.99194287109375,0.06244000792503357,0.012135587632656097,0.030873075127601624
1700515532935953000,1.001952880859375,-0.01983978971838951,-0.09171068668365479,0.1717820018529892
1700515532945963000,1.011962890625,-0.060239676386117935,0.03523102402687073,-0.05884189158678055
1700515532955972900,1.021972900390625,0.019540851935744286,0.049674808979034424,-0.05481007695198059
1700515532965983000,1.03198291015625,0.051431406289339066,-0.10556963086128235,0.08023775368928909
1700515532975992800,1.041992919921875,-0.04371923580765724,0.014324137941002846,0.06536323577165604
1700515532986003000,1.0520029296875,-0.03265433385968208,0.010459091514348984,-0.16903968155384064
1700515532996012800,1.0620126953125,0.02681564725935459,0.040162909775972366,-0.05197589844465256
1700515533006024000,1.07202392578125,0.03493589162826538,-0.06817688047885895,0.11693376302719116
1700515533016033800,1.08203369140625,-0.03150736540555954,0.016130829229950905,0.09583263844251633
1700515533026044000,1.0920439453125,-0.032863181084394455,0.05300069972872734,-0.11210378259420395
1700515533036054000,1.102053955078125,0.04563072323799133,0.027320463210344315,-0.010817493312060833
1700515533046063900,1.11206396484375,0.01618947647511959,-0.0907241478562355,0.10478953272104263
1700515533056074000,1.122073974609375,-0.02550438791513443,0.052426062524318695,-0.01829049363732338
1700515533066083800,1.132083740234375,-0.03202167525887489,-0.00010399031452834606,-0.148193359375
1700515533076094000,1.142093994140625,0.05049636960029602,0.06846960633993149,-0.009953062050044537
1700515533086103800,1.152103759765625,0.01126720942556858,-0.12861789762973785,0.163263201713562
1700515533096114000,1.162114013671875,-0.0485396645963192,0.036900170147418976,0.009951328858733177
1700515533106124000,1.1721240234375,-0.01148470863699913,0.08254808187484741,-0.08664073050022125
1700515533116134000,1.1821337890625,0.06229129433631897,-0.04918486252427101,0.03769576922059059
1700515533126144000,1.19214404296875,-0.028393864631652832,-0.05782362446188927,0.10528093576431274
1700515533136153900,1.20215380859375,-0.024261917918920517,0.0531277097761631,-0.1204628124833107
1700515533146164000,1.2121640625,-0.005839499644935131,0.009587423875927925,-0.10655738413333893
1700515533156173800,1.222173828125,0.0548374280333519,-0.011413590982556343,0.05240922421216965
1700515533166184000,1.232183837890625,-0.024293076246976852,-0.04899106174707413,0.16045261919498444
1700515533176194000,1.242194091796875,-0.04843958467245102,0.00872652605175972,-0.06832019239664078
1700515533186204000,1.252203857421875,0.021129107102751732,0.052678003907203674,-0.04577147215604782
1700515533196214000,1.262214111328125,0.04069013521075249,-0.09491334110498428,0.07889527827501297
1700515533206225000,1.272224853515625,-0.034461610019207,0.016751404851675034,0.05137816444039345
1700515533216235000,1.282235107421875,-0.03514076769351959,0.005115735810250044,-0.16906461119651794
1700515533226244900,1.292244873046875,0.026748696342110634,0.05916086211800575,-0.0496029406785965
1700515533236255200,1.302255126953125,0.0418112687766552,-0.09671162813901901,0.1194416806101799
1700515533246265000,1.31226513671875,-0.03934590145945549,0.027947479858994484,0.08763927221298218
1700515533256275200,1.322275146484375,-0.03437282145023346,0.07008158415555954,-0.10296954959630966
1700515533266285000,1.33228515625,0.05770916864275932,0.007821672596037388,0.0011294225696474314
1700515533276295200,1.342295166015625,0.0027680573984980583,-0.09196390211582184,0.11658968031406403
1700515533286305300,1.35230517578125,-0.025252658873796463,0.07320987433195114,-0.03924465551972389
1700515533296315100,1.362315185546875,-0.026021039113402367,-0.0004309674259275198,-0.14527392387390137
1700515533306325200,1.3723251953125,0.051432739943265915,0.02764034830033779,0.006622923072427511
1700515533316335000,1.382335205078125,-0.0007583460537716746,-0.08534251898527145,0.16249431669712067
1700515533326345200,1.39234521484375,-0.04506349191069603,0.01538862194865942,-0.016300993040204048
1700515533336355300,1.402355224609375,-0.009598764590919018,0.06844466924667358,-0.09259506314992905
1700515533346365200,1.412365234375,0.058382950723171234,-0.05843125283718109,0.04180029034614563
1700515533356375300,1.422375244140625,-0.02334781177341938,-0.032346270978450775,0.11022990942001343
1700515533366385200,1.43238525390625,-0.02400108613073826,0.04083046689629555,-0.12459991872310638
1700515533376395300,1.442395263671875,-0.00450967438519001,0.022115767002105713,-0.09414412081241608
1700515533386405000,1.452405029296875,0.053653229027986526,-0.028675774112343788,0.06317146122455597
1700515533396416300,1.462416259765625,-0.02415863797068596,-0.02552427537739277,0.13621781766414642
1700515533406426000,1.472426025390625,-0.04445112869143486,0.0024895162787288427,-0.08247378468513489
1700515533416436200,1.482436279296875,0.022914497181773186,0.051579512655735016,-0.03648095205426216
1700515533426446000,1.492446044921875,0.03711686655879021,-0.09122691303491592,0.07974471896886826
1700515533436456200,1.502456298828125,-0.02977859228849411,0.0217822827398777,0.03835119307041168
1700515533446466300,1.51246630859375,-0.03339303284883499,-0.0029294558335095644,-0.1619800478219986
1700515533456476200,1.52247607421875,0.022585807368159294,0.06412374973297119,-0.04114963859319687
1700515533466486300,1.532486328125,0.04237043112516403,-0.10259146243333817,0.12667106091976166
1700515533476496100,1.54249609375,-0.0394195057451725,0.026450207456946373,0.08369302749633789
1700515533486506200,1.55250634765625,-0.03200340270996094,0.0723804160952568,-0.09877132624387741
1700515533496516400,1.562516357421875,0.06178839132189751,-0.00409779604524374,0.007277241908013821
1700515533506526200,1.572526123046875,0.0006930783856660128,-0.08111881464719772,0.11484657973051071
1700515533516536300,1.582536376953125,-0.023626001551747322,0.08119596540927887,-0.04860374331474304
1700515533526546200,1.592546142578125,-0.020697856321930885,-0.010425028391182423,-0.14865604043006897
1700515533536556300,1.602556396484375,0.04487237706780434,0.02079041488468647,0.018233906477689743
1700515533546566100,1.612566162109375,-0.003945495933294296,-0.06006288900971413,0.16343742609024048
1700515533556576300,1.622576171875,-0.03458946943283081,0.0007349624065682292,-0.02042381279170513
1700515533566587100,1.632587158203125,-0.010481202974915504,0.07778820395469666,-0.08956213295459747
1700515533576597200,1.64259716796875,0.0555359348654747,-0.04714622348546982,0.041498541831970215
1700515533586607000,1.652607177734375,-0.02360175922513008,-0.032929472625255585,0.10266149789094925
1700515533596617200,1.6626171875,-0.01843857206404209,0.03605416417121887,-0.11101774871349335
1700515533606627300,1.67262744140625,-0.008024279959499836,0.018365712836384773,-0.0873720794916153
1700515533616637200,1.68263720703125,0.05246249958872795,-0.01528758741915226,0.05496003106236458
1700515533626647300,1.692647216796875,-0.020553387701511383,-0.04509288817644119,0.1353060007095337
1700515533636657200,1.7026572265625,-0.0457213930785656,0.005495600402355194,-0.07205516844987869
1700515533646667300,1.712667236328125,0.019456278532743454,0.06401563435792923,-0.038190945982933044
1700515533656677000,1.722677001953125,0.036916814744472504,-0.10419216006994247,0.0822741761803627
1700515533666687200,1.732687255859375,-0.03291366621851921,0.03597693145275116,0.03887210786342621
1700515533676697300,1.742697265625,-0.026027580723166466,0.004133060108870268,-0.1630708873271942
1700515533686707200,1.752707275390625,0.00978794228285551,0.037399668246507645,-0.0465642511844635
1700515533696717300,1.76271728515625,0.03869592398405075,-0.06544452905654907,0.11442247778177261
1700515533706728200,1.772728271484375,-0.027955539524555206,0.017525460571050644,0.09577182680368423
1700515533716738300,1.78273828125,-0.03511800244450569,0.04442915320396423,-0.0915079265832901
1700515533726748200,1.792748046875,0.04265588894486427,0.028611307963728905,-0.002636910416185856
1700515533736758300,1.80275830078125,0.013205895200371742,-0.10172320902347565,0.09992687404155731
1700515533746768100,1.81276806640625,-0.018496107310056686,0.07346963882446289,-0.023441392928361893
1700515533756778200,1.8227783203125,-0.029005995020270348,-0.010291230864822865,-0.14862212538719177
1700515533766788400,1.832788330078125,0.03553837537765503,0.04832680895924568,-0.007618127856403589
1700515533776798200,1.842798095703125,0.01715005375444889,-0.09274090081453323,0.14519505202770233
1700515533786808300,1.852808349609375,-0.030607348307967186,0.028498709201812744,0.023164495825767517
1700515533796818200,1.862818115234375,-0.02376270480453968,0.0883089005947113,-0.08708322793245316
1700515533806828300,1.872828369140625,0.060865629464387894,-0.028120242059230804,0.03468874841928482
1700515533816838100,1.882838134765625,-0.01431024819612503,-0.06293490529060364,0.09970420598983765
1700515533826848300,1.89284814453125,-0.008041965775191784,0.066913902759552,-0.08174201846122742
1700515533836858400,1.9028583984375,-0.0218981746584177,-0.007897407747805119,-0.11696766316890717
1700515533846869200,1.912869140625,0.045164480805397034,0.024155599996447563,0.03578672930598259
1700515533856879400,1.92287939453125,-0.005450491793453693,-0.06692397594451904,0.14403197169303894
1700515533866889200,1.93288916015625,-0.03927130624651909,-0.0008437593933194876,-0.035720475018024445
1700515533876899300,1.9428994140625,-0.0038074208423495293,0.08279065042734146,-0.06385993957519531
1700515533886909200,1.9529091796875,0.05604312941431999,-0.07565198838710785,0.057493384927511215
1700515533896919300,1.962919189453125,-0.030055541545152664,-0.011960298754274845,0.06508691608905792
1700515533906929200,1.97292919921875,-0.014706146903336048,0.03601308539509773,-0.12978245317935944
1700515533916939300,1.982939208984375,-0.008576720021665096,0.02464461140334606,-0.07120400667190552
1700515533926949400,1.992949462890625,0.04948285594582558,-0.03631887584924698,0.07586507499217987
1700515533936959200,2.002959228515625,-0.021768203005194664,-0.021058879792690277,0.11538451164960861
1700515533946969300,2.01296923828125,-0.04074295610189438,0.014078601263463497,-0.07271988689899445
1700515533956979200,2.022979248046875,0.023842712864279747,0.044956695288419724,-0.02801675535738468
1700515533966990300,2.032990234375,0.032795459032058716,-0.0994793102145195,0.08438462018966675
1700515533977000200,2.043000244140625,-0.02603580802679062,0.05048605427145958,0.008525564335286617
1700515533987010300,2.05301025390625,-0.02911282517015934,-0.015926260501146317,-0.16211116313934326
1700515533997020200,2.063020263671875,0.012813367880880833,0.0659530758857727,-0.03772687539458275
1700515534007030300,2.0730302734375,0.03953073173761368,-0.09497295320034027,0.11975250393152237
1700515534017040100,2.0830400390625,-0.030040279030799866,0.02557542361319065,0.07573897391557693
1700515534027050200,2.09305029296875,-0.03216627985239029,0.07274852693080902,-0.08601130545139313
1700515534037060400,2.103060302734375,0.05511622503399849,0.002731353510171175,0.009845834225416183
1700515534047070200,2.1130703125,0.0027880407869815826,-0.09684637188911438,0.10643868893384933
1700515534057080300,2.123080322265625,-0.01637035608291626,0.08631700277328491,-0.04480550065636635
1700515534067090200,2.133090087890625,-0.030837710946798325,-0.018502620980143547,-0.14021484553813934
1700515534077101300,2.143101318359375,0.04157324507832527,0.041075874119997025,0.007010950706899166
1700515534087111200,2.153111083984375,0.008245383389294147,-0.0887785330414772,0.14802506566047668
1700515534097121300,2.163121337890625,-0.03700273483991623,0.013907491229474545,-0.00802343524992466
1700515534107131100,2.173131103515625,-0.012664108537137508,0.08276565372943878,-0.0901731625199318
1700515534117141200,2.183141357421875,0.05939560756087303,-0.05174585431814194,0.04038408026099205
1700515534127151400,2.1931513671875,-0.024275319650769234,-0.04226420447230339,0.09626411646604538
1700515534137161200,2.2031611328125,-0.013824252411723137,0.047810908406972885,-0.10596954822540283
1700515534147171300,2.21317138671875,-0.016178486868739128,0.017103062942624092,-0.09828473627567291
1700515534157181200,2.22318115234375,0.054919883608818054,-0.011270967312157154,0.0510200560092926
1700515534167191300,2.23319140625,-0.017150048166513443,-0.050417039543390274,0.13692805171012878
1700515534177202200,2.2432021484375,-0.04519236460328102,0.0116925910115242,-0.06538709998130798
1700515534187212300,2.25321240234375,0.013623815029859543,0.05590718612074852,-0.05039030686020851
1700515534197222100,2.26322216796875,0.04278632253408432,-0.09943682700395584,0.08186596632003784
1700515534207232300,2.273232177734375,-0.03151613846421242,0.03716549649834633,0.05039645731449127
1700515534217242400,2.283242431640625,-0.027708416804671288,-0.0028077070601284504,-0.15556852519512177
1700515534227252200,2.293252197265625,0.011397172696888447,0.04890874773263931,-0.05412473902106285
1700515534237262300,2.303262451171875,0.04688357189297676,-0.08219955116510391,0.106531523168087
1700515534247272200,2.313272216796875,-0.030469009652733803,0.014765874482691288,0.09255445748567581
1700515534257282300,2.3232822265625,-0.032281357795000076,0.06132059171795845,-0.08790706098079681
1700515534267292200,2.333292236328125,0.046362586319446564,0.009769788011908531,-0.005729894153773785
1700515534277303300,2.34330322265625,0.016098828986287117,-0.09854710847139359,0.10727440565824509
1700515534287313200,2.353313232421875,-0.021410461515188217,0.07691819220781326,-0.025528648868203163
1700515534297323300,2.3633232421875,-0.03245585039258003,-0.015227183699607849,-0.15429556369781494
1700515534307333000,2.3733330078125,0.04055311158299446,0.048519834876060486,-0.011215629056096077
1700515534317343200,2.38334326171875,0.014229884371161461,-0.10488563776016235,0.15205377340316772
1700515534327353300,2.393353271484375,-0.0384940467774868,0.030784044414758682,0.017025111243128777
1700515534337363200,2.40336328125,-0.014764676801860332,0.0869772732257843,-0.09064023941755295
1700515534347373300,2.413373291015625,0.060951657593250275,-0.044727224856615067,0.03431927412748337
1700515534357383200,2.423383056640625,-0.021512482315301895,-0.04950129985809326,0.10867619514465332
1700515534367394300,2.433394287109375,-0.016222111880779266,0.05528130754828453,-0.09700186550617218
1700515534377404200,2.443404052734375,-0.015669813379645348,0.008151166141033173,-0.11200478672981262
1700515534387414300,2.453414306640625,0.04792274534702301,-0.00258243759162724,0.041059333831071854
1700515534397424000,2.463424072265625,-0.01402305532246828,-0.0503048337996006,0.14747774600982666
1700515534407434200,2.473434326171875,-0.044157255440950394,0.0034856940619647503,-0.05617871135473251
1700515534417444400,2.4834443359375,0.0071297758258879185,0.0597485788166523,-0.05805393308401108
1700515534427454200,2.4934541015625,0.04961198568344116,-0.10599031299352646,0.07977370917797089
1700515534437464300,2.50346435546875,-0.03444197028875351,0.022494275122880936,0.07058122754096985
1700515534447475200,2.51347509765625,-0.023932866752147675,0.014495468698441982,-0.1497785598039627
1700515534457485300,2.5234853515625,0.03215903416275978,0.09256298094987869,-0.0026557878591120243
1700515534467495200,2.5334951171875,0.02964101918041706,-0.11679423600435257,0.1261218935251236
1700515534477505300,2.54350537109375,-0.02455844357609749,0.03004486858844757,0.03395664319396019
1700515534487515100,2.55351513671875,-0.03159744665026665,0.03249683976173401,-0.1525796800851822
1700515534497525200,2.563525146484375,0.04945075139403343,0.06086791306734085,0.027902787551283836
1700515534507535000,2.57353515625,0.004100846592336893,-0.13062268495559692,0.14798445999622345
1700515534517546200,2.583546142578125,-0.017077965661883354,0.08195005357265472,-0.01783970557153225
1700515534527556000,2.59355615234375,-0.03215625137090683,-0.009501826949417591,-0.18779651820659637
1700515534537566200,2.603566162109375,0.04835055023431778,0.07639233767986298,0.07212556898593903
1700515534547576000,2.613576171875,-0.01168908178806305,-0.1732712835073471,0.13749845325946808
1700515534557586200,2.623586181640625,-0.015615422278642654,0.07712994515895844,-0.07110124826431274
1700515534567596300,2.63359619140625,-0.026821205392479897,0.050578758120536804,-0.14784395694732666
1700515534577606100,2.643606201171875,0.0628732219338417,-0.0416267104446888,0.1323823779821396
1700515534587616300,2.6536162109375,-0.03644431009888649,-0.08046837896108627,0.12276677042245865
1700515534597627100,2.663627197265625,0.0047929659485816956,0.08064879477024078,-0.1516655534505844
1700515534607637200,2.67363720703125,-0.01058598980307579,0.03863663598895073,-0.13722802698612213
1700515534617647000,2.683647216796875,0.03887029364705086,-0.0738135278224945,0.1484675109386444
1700515534627657200,2.6936572265625,-0.030955396592617035,-0.05410400405526161,0.08945825695991516
1700515534637667000,2.7036669921875,-0.020052270963788033,0.01724240928888321,-0.1569509357213974
1700515534647677200,2.71367724609375,0.018441591411828995,0.18965359032154083,0.01086016558110714
1700515534657687300,2.723687255859375,0.02534683607518673,-0.1956142634153366,0.1920984834432602
1700515534667698200,2.7336982421875,-0.036362066864967346,0.03388497233390808,0.005342448130249977
1700515534677708000,2.7437080078125,-0.00495478231459856,0.023741474375128746,-0.2438664734363556
1700515534687718100,2.75371826171875,0.06570687144994736,0.23402094841003418,0.13839834928512573
1700515534697728300,2.763728271484375,-0.008595805615186691,-0.24984946846961975,0.20020121335983276
1700515534707738000,2.773738037109375,-0.007590728811919689,0.06927978247404099,-0.09257287532091141
1700515534717748200,2.783748291015625,-0.0417330265045166,-0.015269819647073746,-0.2440914362668991
1700515534727758000,2.793758056640625,0.05130024254322052,0.0777227059006691,0.19826920330524445
1700515534737769200,2.803769287109375,-0.027461960911750793,-0.20540198683738708,0.19222581386566162
1700515534747779000,2.813779052734375,-0.000707044149748981,0.12333382666110992,-0.14658579230308533
1700515534757789200,2.8237890625,-0.03030446730554104,-0.05294446274638176,-0.2738872468471527
1700515534767799000,2.833799072265625,0.052076421678066254,0.026382850483059883,0.2137032002210617
1700515534777809200,2.84380908203125,-0.0482691191136837,-0.14798060059547424,0.14149905741214752
1700515534787819300,2.8538193359375,0.01882655918598175,0.07519442588090897,-0.19910432398319244
1700515534797830100,2.863830078125,-0.03513495996594429,0.009826394729316235,-0.17665810883045197
1700515534807840000,2.873840087890625,0.024056458845734596,-0.0778733640909195,0.2252725511789322
1700515534817850000,2.88385009765625,-0.02635589987039566,-0.06525381654500961,0.13230465352535248
1700515534827860200,2.893860107421875,0.008019119501113892,0.0638628900051117,-0.2163982093334198
1700515534837870000,2.9038701171875,-0.012297735549509525,0.06305207312107086,-0.12908297777175903
1700515534847880200,2.913880126953125,0.013947450555860996,-0.08442392945289612,0.24034114181995392
1700515534857891300,2.923891357421875,-0.02484999969601631,-0.10561181604862213,0.02895488031208515
1700515534867901400,2.9339013671875,0.004524135962128639,0.053106725215911865,-0.25826624035835266
1700515534877911300,2.943911376953125,0.023702509701251984,0.2731776535511017,0.09781071543693542
1700515534887921400,2.95392138671875,0.0004176932852715254,-0.23542273044586182,0.23952442407608032
1700515534897931000,2.963930908203125,-0.00883864052593708,0.06092366576194763,-0.0012106522917747498
1700515534907941000,2.973941162109375,-0.003935760818421841,0.019835351034998894,-0.25361838936805725
1700515534917952300,2.9839521484375,0.04488902539014816,0.2155257910490036,0.09282628446817398
1700515534927962400,2.99396240234375,-0.018692079931497574,-0.19163478910923004,0.24250392615795135
1700515534937972200,3.00397216796875,-0.0077241226099431515,0.03989032655954361,-0.07469847798347473
1700515534947982300,3.013982421875,-0.012589984573423862,-0.027104685083031654,-0.2667968273162842
1700515534957992200,3.0239921875,0.023693479597568512,0.14156974852085114,0.223301962018013
1700515534968002300,3.034002197265625,-0.016005197539925575,-0.17082223296165466,0.17780345678329468
1700515534978013200,3.04401318359375,0.007842245511710644,0.07844914495944977,-0.15993215143680573
1700515534988023300,3.054023193359375,-0.002412789035588503,0.028277849778532982,-0.2174132764339447
1700515534998033400,3.064033447265625,0.012730181217193604,-0.0929534062743187,0.279136061668396
1700515535008043300,3.074043212890625,-0.05032894387841225,-0.06403414160013199,0.06558674573898315
1700515535018053400,3.084053466796875,0.038991231471300125,0.01890561357140541,-0.3267679214477539
1700515535028064300,3.094064208984375,0.026309791952371597,0.27933189272880554,0.18602560460567474
1700515535038074400,3.104074462890625,0.019503045827150345,-0.21989458799362183,0.18222691118717194
1700515535048084200,3.114084228515625,-0.04814017936587334,0.01998991332948208,-0.07193877547979355
1700515535058094300,3.12409423828125,0.01802167482674122,0.04542797803878784,-0.18318875133991241
1700515535068104200,3.134104248046875,0.0009060726733878255,0.08025386929512024,0.18023979663848877
1700515535078114300,3.1441142578125,0.05582946538925171,-0.07182420790195465,0.18294131755828857
1700515535088125200,3.154125244140625,-0.08810373395681381,-0.07022178173065186,-0.2086605429649353
1700515535098135300,3.16413525390625,0.06377855688333511,0.16601820290088654,-0.18008281290531158
1700515535108145200,3.174145263671875,-0.02679341658949852,-0.07155201584100723,0.2873736023902893
1700515535118155300,3.1841552734375,0.04937456548213959,0.036459457129240036,0.12796612083911896
1700515535128165000,3.1941650390625,-0.07474498450756073,-0.1453838348388672,-0.22757598757743835
1700515535138176300,3.20417626953125,0.03568653762340546,0.13002702593803406,-0.14022177457809448
1700515535148186000,3.21418603515625,0.012639007531106472,0.08144643902778625,0.3023460805416107
1700515535158196200,3.2241962890625,0.009313084185123444,-0.07448647171258926,0.14410173892974854
1700515535168206300,3.234206298828125,-0.07120838761329651,-0.12752997875213623,-0.36007004976272583
1700515535178216200,3.24421630859375,0.06519722193479538,0.23360340297222137,-0.08367133140563965
1700515535188227000,3.25422705078125,-0.011484774760901928,-0.11516815423965454,0.30792707204818726
1700515535198237200,3.2642373046875,0.01925521343946457,0.03975914791226387,0.0775972455739975
1700515535208247300,3.274247314453125,-0.06234990060329437,-0.13137611746788025,-0.261788010597229
1700515535218257200,3.284257080078125,0.032719116657972336,0.13300350308418274,-0.07702191174030304
1700515535228267300,3.294267333984375,0.02888469770550728,-0.0007505635730922222,0.32427066564559937
1700515535238279200,3.304279052734375,-0.03675911948084831,-0.07439178228378296,0.05872830003499985
1700515535248289000,3.3142890625,-0.023655300959944725,-0.05349581688642502,-0.3880497217178345
1700515535258299100,3.324299072265625,0.03586822748184204,0.1300569772720337,0.10693733394145966
1700515535268309000,3.33430908203125,0.031507302075624466,-0.03462279215455055,0.27130499482154846
1700515535278319000,3.344319091796875,-0.004018004518002272,-0.024210965260863304,-0.05950695648789406
1700515535288330000,3.354330078125,-0.02982989512383938,-0.0008145624888129532,-0.21484728157520294
1700515535298340000,3.364340087890625,0.017206493765115738,0.10015948861837387,0.09193352609872818
1700515535308350200,3.37435009765625,0.06048285961151123,-0.025573937222361565,0.2940346896648407
1700515535318360000,3.384360107421875,-0.07995516061782837,-0.12188805639743805,-0.157582089304924
1700515535328370200,3.3943701171875,0.023864174261689186,0.11574128270149231,-0.28602874279022217
1700515535338381000,3.404381103515625,-0.0029085350688546896,0.02678782306611538,0.2496279776096344
1700515535348391200,3.41439111328125,0.056783825159072876,0.04562542587518692,0.2268153429031372
1700515535358401000,3.424401123046875,-0.045715898275375366,-0.1326838582754135,-0.17419098317623138
1700515535368411100,3.4344111328125,0.0032673566602170467,0.1007203683257103,-0.20855507254600525
1700515535378421000,3.4444208984375,0.013394077308475971,0.11566103249788284,0.23421165347099304
1700515535388432100,3.45443212890625,0.05649494007229805,-0.05789637193083763,0.2428072690963745
1700515535398442000,3.46444189453125,-0.10086113214492798,-0.15282070636749268,-0.3248060941696167
1700515535408452000,3.4744521484375,0.05660093575716019,0.14720410108566284,-0.16714030504226685
1700515535418462000,3.4844619140625,-0.02292180433869362,-0.035290542989969254,0.3199329078197479
1700515535428472000,3.49447216796875,0.0604119673371315,0.0354938805103302,0.11849459260702133
1700515535438483000,3.50448291015625,-0.06954077631235123,-0.1447744369506836,-0.26377734541893005
1700515535448493000,3.5144931640625,0.014447865076363087,0.09731355309486389,-0.10989855229854584
1700515535458503000,3.5245029296875,0.018545985221862793,0.08532204478979111,0.31621938943862915
1700515535468513000,3.534512939453125,0.0274281594902277,-0.07518187910318375,0.1060565933585167
1700515535478524200,3.544524169921875,-0.07939493656158447,-0.09872587025165558,-0.39443501830101013
1700515535488534000,3.554533935546875,0.04812653735280037,0.10714127868413925,-0.02576325088739395
1700515535498543900,3.5645439453125,0.0012434519594535232,-0.01903977431356907,0.31419697403907776
1700515535508554000,3.574553955078125,0.030810397118330002,-0.0069428980350494385,0.011762017384171486
1700515535518565000,3.584565185546875,-0.060560066252946854,-0.07207349687814713,-0.26868635416030884
1700515535528575200,3.5945751953125,0.017103834077715874,0.09223847836256027,-0.008829204365611076
1700515535538585000,3.604585205078125,0.04113581404089928,0.026114989072084427,0.3191456198692322
1700515535548595200,3.61459521484375,-0.03183772787451744,-0.10297109186649323,-0.03743143379688263
1700515535558605300,3.624605224609375,-0.03074115887284279,0.018974926322698593,-0.3518153429031372
1700515535568616200,3.6346162109375,0.02647978626191616,0.06215329095721245,0.12593790888786316
1700515535578626000,3.6446259765625,0.04339734464883804,0.03267493471503258,0.2755323648452759
1700515535588636200,3.65463623046875,-0.003914243541657925,-0.064521923661232,-0.0533219575881958
1700515535598646300,3.664646240234375,-0.04814254492521286,-0.012731499969959259,-0.27382892370224
1700515535608657200,3.6746572265625,0.02203335054218769,0.10947297513484955,0.10900049656629562
1700515535618667000,3.6846669921875,0.060320623219013214,-0.03291398659348488,0.3372389078140259
1700515535628677000,3.694677001953125,-0.07733870297670364,-0.11686481535434723,-0.19223211705684662
1700515535638687200,3.704687255859375,0.022436916828155518,0.10456819087266922,-0.2879123389720917
1700515535648698000,3.714697998046875,-0.006824300158768892,0.014685708098113537,0.2749510109424591
1700515535658708000,3.7247080078125,0.05516977980732918,0.0651998445391655,0.20678798854351044
1700515535668718000,3.734718017578125,-0.03401868790388107,-0.13945689797401428,-0.19667533040046692
1700515535678728200,3.744728271484375,-0.011396602727472782,0.05341725051403046,-0.20765776932239532
1700515535688739000,3.754739013671875,0.006781602278351784,0.12063489854335785,0.20045700669288635
1700515535698749200,3.764749267578125,0.06508749723434448,-0.047780100256204605,0.24560001492500305
1700515535708759000,3.774759033203125,-0.10645842552185059,-0.16769638657569885,-0.3147061765193939
1700515535718769200,3.78476904296875,0.05331651493906975,0.1408727765083313,-0.19579410552978516
1700515535728780000,3.794780029296875,-0.030726991593837738,-0.04907798767089844,0.3152278959751129
1700515535738790100,3.8047900390625,0.055085986852645874,0.07324447482824326,0.14691869914531708
1700515535748800000,3.814800048828125,-0.07991151511669159,-0.19044655561447144,-0.2681938111782074
1700515535758810000,3.82481005859375,0.018726294860243797,0.11913781613111496,-0.14708298444747925
1700515535768821000,3.834821044921875,0.0034546644892543554,0.07771607488393784,0.3282737135887146
1700515535778831000,3.8448310546875,0.02500629425048828,-0.030132096260786057,0.13464562594890594
1700515535788841000,3.854841064453125,-0.08504243940114975,-0.14613565802574158,-0.4023054242134094
1700515535798851000,3.86485107421875,0.04251912236213684,0.12183009088039398,-0.021450109779834747
1700515535808862000,3.874862060546875,-0.015947120264172554,-0.019038353115320206,0.3141220510005951
1700515535818872000,3.8848720703125,0.03606537729501724,0.016351839527487755,-0.009863135404884815
1700515535828882000,3.8948818359375,-0.078964002430439,-0.13122937083244324,-0.3024875223636627
1700515535838892000,3.90489208984375,0.009647429920732975,0.10555901378393173,-0.03680454194545746
1700515535848903200,3.914903076171875,0.01325281709432602,0.032358840107917786,0.30463799834251404
1700515535858913300,3.924913330078125,0.01729312539100647,-0.026803864166140556,-0.01966366171836853
1700515535868923100,3.934923095703125,-0.05490543693304062,-0.03988238051533699,-0.36756864190101624
1700515535878933200,3.944933349609375,0.010120514780282974,0.0635453388094902,0.11805099993944168
1700515535888944000,3.954944091796875,0.050196561962366104,0.0693182721734047,0.2733939588069916
1700515535898954200,3.964954345703125,0.00031529716216027737,-0.06580912321805954,-0.13054123520851135
1700515535908964000,3.974964111328125,-0.03885314613580704,-0.027592234313488007,-0.2954934239387512
1700515535918974200,3.98497412109375,-0.00909797940403223,0.08677294850349426,0.12186712771654129
1700515535928985000,3.994985107421875,0.05892821028828621,0.007405421696603298,0.32674145698547363
1700515535938995200,4.0049951171875,-0.04207653924822807,-0.056554678827524185,-0.18510976433753967
1700515535949005000,4.015005126953125,0.0013236652594059706,0.05046684294939041,-0.2668195366859436
1700515535959016200,4.02501611328125,-0.021168677136301994,0.010588274337351322,0.2885955572128296
1700515535969026000,4.035026123046875,0.06156002730131149,0.11335407197475433,0.25725093483924866
1700515535979036200,4.0450361328125,-0.02691091038286686,-0.14743754267692566,-0.21568015217781067
1700515535989046000,4.0550458984375,-0.0009962241165339947,0.051338136196136475,-0.24717283248901367
1700515535999057200,4.06505712890625,0.0031050730030983686,0.10565512627363205,0.27364611625671387
1700515536009067000,4.07506689453125,0.09346853196620941,0.01893860474228859,0.2950587272644043
1700515536019077000,4.0850771484375,-0.08358322083950043,-0.11810079962015152,-0.38881921768188477
1700515536029087000,4.0950869140625,0.039764538407325745,0.0833851769566536,-0.15689890086650848
1700515536039098000,4.10509814453125,-0.023496489971876144,-0.00818207673728466,0.3696901202201843
1700515536049108000,4.11510791015625,0.06866353005170822,0.09896301478147507,0.16273322701454163
1700515536059118000,4.1251181640625,-0.07155490666627884,-0.1769607812166214,-0.2997845411300659
1700515536069129000,4.13512890625,0.014067319221794605,0.05056638643145561,-0.17746636271476746
1700515536079139000,4.14513916015625,-0.018491772934794426,0.09355495870113373,0.31704068183898926
1700515536089149000,4.15514892578125,0.07064556330442429,-0.008723470382392406,0.18202027678489685
1700515536099159000,4.165158935546875,-0.12143422663211823,-0.15454748272895813,-0.42336273193359375
1700515536109170200,4.175170166015625,0.05040197819471359,0.09549538046121597,-0.07692275941371918
1700515536119180300,4.18518017578125,-0.04294136166572571,-0.03348637744784355,0.374133437871933
1700515536129190100,4.195190185546875,0.06776704639196396,0.08137975633144379,0.10024968534708023
1700515536139200000,4.205199951171875,-0.08663192391395569,-0.21092702448368073,-0.3713233768939972
1700515536149211100,4.215211181640625,0.02130226232111454,0.1235969141125679,-0.13033072650432587
1700515536159221200,4.22522119140625,0.00004212395288050175,0.06423886120319366,0.37906205654144287
1700515536169231000,4.235231201171875,0.042323000729084015,-0.025852417573332787,0.07590298354625702
1700515536179242200,4.2452421875,-0.07903788238763809,-0.1602097451686859,-0.4925113022327423
1700515536189252000,4.255252197265625,0.05710504204034805,0.13214008510112762,-0.018164509907364845
1700515536199262200,4.26526220703125,-0.010094759985804558,-0.019563592970371246,0.3609636127948761
1700515536209272000,4.27527197265625,0.060083262622356415,0.040440622717142105,0.01641313172876835
1700515536219283200,4.285283203125,-0.06836579740047455,-0.1427987962961197,-0.31668034195899963
1700515536229293000,4.29529296875,0.02755620703101158,0.10971440374851227,-0.015219585970044136
1700515536239302400,4.305302490234375,0.030329622328281403,0.04156331717967987,0.376690149307251
1700515536249313300,4.315313232421875,-0.0016663945280015469,-0.06649338454008102,-0.004634585697203875
1700515536259323400,4.325323486328125,-0.05566130951046944,-0.059253763407468796,-0.3874809145927429
1700515536269333200,4.335333251953125,0.030316445976495743,0.06392941623926163,0.13170553743839264
1700515536279343400,4.34534326171875,0.032182127237319946,0.05223599821329117,0.32365646958351135
1700515536289354500,4.3553544921875,0.019379515200853348,-0.0402851477265358,-0.09484169632196426
1700515536299364600,4.365364501953125,-0.0594261959195137,-0.10782089829444885,-0.3225650191307068
1700515536309374500,4.37537451171875,0.01905130222439766,0.12940309941768646,0.06978173553943634
1700515536319385600,4.385385498046875,0.054753609001636505,-0.027216829359531403,0.3416345715522766
1700515536329395500,4.3953955078125,-0.0592467300593853,-0.08372937142848969,-0.20912471413612366
1700515536339405600,4.405405517578125,-0.010040035471320152,-0.02122853510081768,-0.3840072453022003
1700515536349416400,4.41541650390625,0.012322528287768364,0.07733185589313507,0.18661974370479584
1700515536359426600,4.425426513671875,0.051758553832769394,0.013470407575368881,0.2749089002609253
1700515536369436400,4.4354365234375,-0.043126676231622696,-0.08483033627271652,-0.13448022305965424
1700515536379446500,4.445446533203125,-0.014616583473980427,-0.00006363214924931526,-0.3068305552005768
1700515536389457400,4.45545751953125,0.012674425728619099,0.11807738989591599,0.11183328926563263
1700515536399467500,4.465467529296875,0.04363351687788963,-0.07442722469568253,0.31066739559173584
1700515536409477400,4.475477294921875,-0.09788180887699127,-0.12026289105415344,-0.2098359614610672
1700515536419488500,4.485488525390625,0.042340803891420364,0.0006821926217526197,-0.5212904214859009
1700515536429498400,4.495498291015625,-0.033657822757959366,0.07795381546020508,0.19964644312858582
1700515536439508500,4.505508544921875,0.023984793573617935,-0.09348206222057343,0.30778661370277405
1700515536449519400,4.515519287109375,-0.03139244765043259,-0.02372269332408905,-0.03381706029176712
1700515536459529500,4.525529541015625,0.008231474086642265,-0.018755827099084854,-0.3786592185497284
1700515536469539300,4.535539306640625,0.011708763428032398,0.19635009765625,-0.08534315973520279
1700515536479550500,4.545550537109375,0.004503299482166767,-0.19306254386901855,0.3532664477825165
1700515536489560300,4.555560302734375,-0.03369894623756409,0.03384783864021301,0.11019094288349152
1700515536499570400,4.5655703125,0.014909147284924984,-0.03622589260339737,-0.3704453110694885
1700515536509580300,4.575580322265625,-0.007977526634931564,0.11168447881937027,-0.19612249732017517
1700515536519591700,4.585591796875,0.02372153103351593,-0.1253083497285843,0.3169158697128296
1700515536529601500,4.5956015625,-0.022234775125980377,-0.02522755041718483,0.19676867127418518
1700515536539611600,4.605611572265625,0.005338827148079872,0.014657863415777683,-0.2778626084327698
1700515536549622500,4.61562255859375,0.004944412969052792,0.15500272810459137,-0.1368463635444641
1700515536559632600,4.625632568359375,0.034156594425439835,-0.11363358050584793,0.2625966966152191
1700515536569642500,4.635642578125,-0.04091605171561241,-0.11374703049659729,0.024856574833393097
1700515536579653400,4.6456533203125,0.0016355767147615552,0.059608813375234604,-0.2874985635280609
1700515536589663500,4.65566357421875,0.031352460384368896,0.2764039635658264,0.07958703488111496
1700515536599673600,4.665673583984375,0.0054967389442026615,-0.24089719355106354,0.26718640327453613
1700515536609684500,4.6756845703125,-0.022855008020997047,0.06022084131836891,0.000004507601261138916
1700515536619694600,4.685694580078125,-0.005852621980011463,0.013504331931471825,-0.28880709409713745
1700515536629704400,4.695704345703125,0.06274827569723129,0.24536313116550446,0.14886319637298584
1700515536639715300,4.70571533203125,-0.016257576644420624,-0.21134203672409058,0.24086716771125793
1700515536649725400,4.715725341796875,-0.016156908124685287,0.031598981469869614,-0.12453610450029373
1700515536659735600,4.725735595703125,-0.023872915655374527,-0.021637655794620514,-0.27690958976745605
1700515536669746400,4.735746337890625,0.03683197870850563,0.14939241111278534,0.21490328013896942
1700515536679756300,4.74575634765625,-0.00639239652082324,-0.19999487698078156,0.2459343522787094
1700515536689766400,4.755766357421875,-0.010638274252414703,0.08880896121263504,-0.13254158198833466
1700515536699776500,4.765776611328125,-0.016733746975660324,-0.045745961368083954,-0.2915271520614624
1700515536709787400,4.775787353515625,0.05371112376451492,0.10854320228099823,0.2432299703359604
1700515536719797200,4.78579736328125,-0.023301510140299797,-0.20686160027980804,0.18312306702136993
1700515536729807400,4.795807373046875,0.009315021336078644,0.08506825566291809,-0.22373045980930328
1700515536739818500,4.805818603515625,-0.049395933747291565,-0.055894237011671066,-0.2513471841812134
1700515536749828600,4.81582861328125,0.03495782986283302,-0.0012443069135770202,0.22415488958358765
1700515536759838500,4.82583837890625,-0.011290338821709156,-0.13127334415912628,0.22060252726078033
1700515536769849600,4.835849609375,-0.007785618770867586,0.09556299448013306,-0.1606697291135788
1700515536779859500,4.845859375,-0.03092004545032978,-0.05479675531387329,-0.2857770025730133
1700515536789869600,4.85586962890625,0.014922544360160828,0.0344628170132637,-0.03823402151465416
1700515536799880400,4.86588037109375,0.02498619072139263,-0.026247436180710793,0.21397681534290314
1700515536809890600,4.875890625,-0.025465264916419983,0.011061586439609528,0.11555223912000656
1700515536819900400,4.885900390625,-0.04086538404226303,0.031427834182977676,-0.10186219960451126
1700515536829911600,4.89591162109375,0.04086889699101448,0.02080768160521984,-0.029380539432168007
1700515536839921400,4.90592138671875,0.01640383154153824,-0.07313540577888489,0.05074382573366165
1700515536849931500,4.915931640625,-0.02143729105591774,0.044696684926748276,-0.08217746764421463
1700515536859942400,4.9259423828125,-0.03129454702138901,-0.01948297582566738,-0.12130672484636307
1700515536869952500,4.935952392578125,0.0404755137860775,0.08558831363916397,0.02587234228849411
1700515536879962400,4.94596240234375,0.039092641323804855,-0.12119776755571365,0.13222767412662506
1700515536889973500,4.955973388671875,-0.04529600962996483,0.038018785417079926,-0.051267582923173904
1700515536899983400,4.9659833984375,-0.02279011718928814,0.0731232762336731,-0.09971900284290314
1700515536909993500,4.975993408203125,0.0801573097705841,-0.017163747921586037,0.06175351142883301
1700515536920004400,4.98600439453125,-0.01765342429280281,-0.04826030135154724,0.10452045500278473
1700515536930014500,4.996014404296875,-0.010990994982421398,0.0376141220331192,-0.13305002450942993
1700515536940024300,5.0060244140625,-0.029307523742318153,-0.0036620628088712692,-0.12679439783096313
1700515536950035500,5.016035400390625,0.05810274928808212,0.04458536207675934,0.03645019233226776
1700515536960045600,5.026045654296875,0.0035259160213172436,-0.09730766713619232,0.149773970246315
1700515536970055700,5.0360556640625,-0.05594220757484436,0.0160074345767498,-0.04220718517899513
1700515536980066600,5.046066650390625,-0.008237426169216633,0.08337035030126572,-0.04512401297688484
1700515536990076400,5.056076416015625,0.07311601936817169,-0.09566810727119446,0.08663348853588104
1700515537000087600,5.066087646484375,-0.03645801916718483,-0.015378409996628761,0.048497699201107025
1700515537010097400,5.076097412109375,-0.01997464895248413,0.03146659582853317,-0.15404768288135529
1700515537020107500,5.086107421875,-0.011666199192404747,0.01989881321787834,-0.0633118599653244
1700515537030118400,5.096118408203125,0.05439005047082901,-0.03262271732091904,0.0937989354133606
1700515537040128500,5.10612841796875,-0.023967938497662544,-0.027632465586066246,0.10613300651311874
1700515537050138400,5.116138427734375,-0.049841079860925674,0.006985964719206095,-0.10129767656326294
1700515537060149500,5.1261494140625,0.021442053839564323,0.04780249297618866,-0.022009998559951782
1700515537070159400,5.136159423828125,0.050569042563438416,-0.07955599576234818,0.10607153922319412
1700515537080169500,5.14616943359375,-0.03331951051950455,0.03543119505047798,0.009307226166129112
1700515537090180400,5.156180419921875,-0.03536215424537659,-0.028110496699810028,-0.14478139579296112
1700515537100190500,5.1661904296875,0.0002454082714393735,0.06699014455080032,-0.005922340787947178
1700515537110200300,5.176200439453125,0.07176139950752258,-0.07395871728658676,0.1504712700843811
1700515537120211500,5.18621142578125,-0.04137801751494408,0.011043716222047806,0.042301177978515625
1700515537130221300,5.19622119140625,-0.03802110254764557,0.06667501479387283,-0.09622234106063843
1700515537140231400,5.2062314453125,0.0676339790225029,-0.01168416254222393,0.043323587626218796
1700515537150242600,5.21624267578125,0.00673760287463665,-0.04189613088965416,0.12654177844524384
1700515537160252700,5.226252685546875,-0.013683963567018509,0.05533220246434212,-0.07518776506185532
1700515537170262500,5.236262451171875,-0.03205498307943344,-0.028319284319877625,-0.18407243490219116
1700515537180273400,5.2462734375,0.033036284148693085,0.05631224066019058,-0.009306319057941437
1700515537190283500,5.256283447265625,0.017740951851010323,-0.07161110639572144,0.14442650973796844
1700515537200293600,5.266293701171875,-0.037058454006910324,0.01083461008965969,0.0005232649855315685
1700515537210304500,5.276304443359375,-0.0271602813154459,0.08007786422967911,-0.08071912825107574
1700515537220314600,5.286314697265625,0.055913276970386505,-0.032576851546764374,0.05158642679452896
1700515537230325500,5.296325439453125,-0.012601068243384361,-0.026205502450466156,0.08334329724311829
1700515537240336000,5.3063359375,-0.012799333781003952,0.027120113372802734,-0.12042197585105896
1700515537250346000,5.316345947265625,-0.026886124163866043,-0.00482690054923296,-0.10852083563804626
1700515537260356900,5.32635693359375,0.04440593346953392,0.03049137070775032,0.0513676181435585
1700515537270367000,5.336366943359375,0.0017972197383642197,-0.061848681420087814,0.15854360163211823
1700515537280376800,5.346376953125,-0.04903009161353111,0.00539315864443779,-0.04297497123479843
1700515537290388000,5.356387939453125,-0.007108474150300026,0.06569245457649231,-0.05252666398882866
1700515537300397800,5.366397705078125,0.057654671370983124,-0.07777666300535202,0.0802207812666893
1700515537310408000,5.376407958984375,-0.02757180854678154,0.019308868795633316,0.04695044457912445
1700515537320418800,5.386418701171875,-0.016848186030983925,-0.0010572837200015783,-0.13994866609573364
1700515537330429000,5.396428955078125,-0.01354240532964468,0.01784130558371544,-0.05489634722471237
1700515537340438800,5.406438720703125,0.053776174783706665,-0.007190193049609661,0.09970755130052567
1700515537350450000,5.416449951171875,-0.015899578109383583,-0.028862198814749718,0.09589763730764389
1700515537360459800,5.426459716796875,-0.04800354689359665,0.0020979116670787334,-0.09355917572975159
1700515537370470700,5.436470703125,0.02058270387351513,0.048929065465927124,-0.007651997730135918
1700515537380480800,5.446480712890625,0.03368549048900604,-0.08848478645086288,0.11402958631515503
1700515537390491000,5.456490966796875,-0.024675551801919937,0.0610828660428524,-0.009210322052240372
1700515537400501800,5.466501708984375,-0.023935217410326004,-0.019326265901327133,-0.1775691658258438
1700515537410511600,5.47651171875,0.005236249882727861,0.03543631732463837,-0.03512680158019066
1700515537420521700,5.486521728515625,0.04335512965917587,-0.03550861030817032,0.1243394985795021
1700515537430532900,5.496532958984375,-0.024944033473730087,-0.011323913931846619,0.06969249993562698
1700515537440543000,5.50654296875,-0.044201675802469254,0.041882846504449844,-0.09015247970819473
1700515537450552800,5.516552734375,0.04179206117987633,0.01664033718407154,0.011130736209452152
1700515537460564000,5.52656396484375,0.013934111222624779,-0.07105451822280884,0.09993086010217667
1700515537470573800,5.53657373046875,-0.01940333843231201,0.05678148195147514,-0.05559348315000534
1700515537480585000,5.5465849609375,-0.033825572580099106,-0.02211090363562107,-0.1512327343225479
1700515537490594800,5.5565947265625,0.015571271069347858,0.045734189450740814,0.010173467919230461
1700515537500605000,5.56660498046875,0.026011940091848373,-0.05027737841010094,0.1404963880777359
1700515537510615800,5.57661572265625,-0.024397704750299454,-0.0018733600154519081,0.007697586435824633
1700515537520626000,5.5866259765625,-0.025072410702705383,0.07687319815158844,-0.09261931478977203
1700515537530635800,5.5966357421875,0.049126189202070236,-0.02911156229674816,0.04768506437540054
1700515537540647000,5.60664697265625,-0.007489665411412716,-0.021315114572644234,0.09238961338996887
1700515537550656800,5.61665673828125,-0.0038091768510639668,0.007737842854112387,-0.08283253759145737
1700515537560667000,5.6266669921875,-0.03695184737443924,-0.02159169875085354,-0.12193853408098221
1700515537570677800,5.636677734375,0.03357771411538124,0.05908024311065674,0.02367592230439186
1700515537580688000,5.64668798828125,0.023085854947566986,-0.077628493309021,0.1441907435655594
1700515537590699000,5.656698974609375,-0.042453207075595856,0.0075852032750844955,-0.012594607658684254
1700515537600708600,5.66670849609375,-0.0160110741853714,0.0926717072725296,-0.06461258977651596
1700515537610718700,5.67671875,0.06303580850362778,-0.0747646912932396,0.07296338677406311
1700515537620729900,5.686729736328125,-0.02113386243581772,0.018170466646552086,0.059068478643894196
1700515537630740000,5.696739990234375,-0.007170375436544418,0.006691443733870983,-0.13084526360034943
1700515537640749800,5.706749755859375,-0.024012181907892227,-0.012706151232123375,-0.09510694444179535
1700515537650761000,5.716760986328125,0.04322730749845505,0.02998538687825203,0.0739438533782959
1700515537660770800,5.726770751953125,0.005488161463290453,-0.026011109352111816,0.12803103029727936
1700515537670782000,5.736781982421875,-0.046747077256441116,-0.030144602060317993,-0.06842902302742004
1700515537680791800,5.746791748046875,-0.0004143989644944668,0.07138354331254959,-0.04243287071585655
1700515537690802000,5.756802001953125,0.05440144240856171,-0.08303825557231903,0.09520275145769119
1700515537700812800,5.766812744140625,-0.02470136247575283,0.03636536747217178,0.040468137711286545
1700515537710823000,5.776822998046875,-0.018942276015877724,-0.012451439164578915,-0.15432053804397583
1700515537720832800,5.786832763671875,-0.01064623985439539,0.026383914053440094,-0.0570613257586956
1700515537730844000,5.796843994140625,0.049349453300237656,-0.020085051655769348,0.09695460647344589
1700515537740853800,5.806853759765625,-0.01927921362221241,-0.016849497333168983,0.08923332393169403
1700515537750864600,5.81686474609375,-0.04735904932022095,0.009304875507950783,-0.0866737812757492
1700515537760874800,5.826874755859375,0.026499925181269646,0.028197715058922768,-0.007111724931746721
1700515537770884900,5.836884765625,0.029572680592536926,-0.07389643043279648,0.11579981446266174
1700515537780896000,5.84689599609375,-0.026090791448950768,0.04839513078331947,-0.01263414230197668
1700515537790905900,5.85690576171875,-0.03459932655096054,-0.02726633846759796,-0.15989337861537933
1700515537800917000,5.8669169921875,0.006431535817682743,0.03356177732348442,-0.01155106257647276
1700515537810926800,5.8769267578125,0.03687199950218201,-0.036996278911828995,0.14745722711086273
1700515537820937000,5.88693701171875,-0.03364373371005058,-0.0037071036640554667,0.0771327093243599
1700515537830947800,5.89694775390625,-0.043885987251996994,0.03170175477862358,-0.0886693075299263
1700515537840958000,5.9069580078125,0.0538509227335453,0.008003387600183487,0.02077251300215721
1700515537850967800,5.9169677734375,0.013243842869997025,-0.053750522434711456,0.11607666313648224
1700515537860979000,5.92697900390625,-0.0225250031799078,0.025294946506619453,-0.0764043927192688
1700515537870988800,5.93698876953125,-0.03246285393834114,-0.023151414468884468,-0.15874961018562317
1700515537880999700,5.946999755859375,0.03288153186440468,0.05895384028553963,0.0027008075267076492
1700515537891009800,5.957009765625,0.030614648014307022,-0.07045341283082962,0.13663117587566376
1700515537901020000,5.96702001953125,-0.03183954581618309,0.012139652855694294,-0.03357395529747009
1700515537911030800,5.97703076171875,-0.020482497289776802,0.07554472237825394,-0.10873901844024658
1700515537921041000,5.987041015625,0.06305225938558578,-0.02245914563536644,0.044606395065784454
1700515537931051800,5.9970517578125,-0.011232887394726276,-0.005789088550955057,0.08371997624635696
1700515537941061600,6.0070615234375,-0.009693406522274017,0.020908871665596962,-0.1294585019350052
1700515537951071700,6.01707177734375,-0.029696142300963402,-0.012722324579954147,-0.11511765420436859
1700515537961083000,6.027082763671875,0.037189677357673645,0.056842904537916183,0.051657482981681824
1700515537971093000,6.037093017578125,0.0025882930494844913,-0.07371830195188522,0.17114393413066864
1700515537981103900,6.047103759765625,-0.05665794014930725,-0.007606810890138149,-0.028792137280106544
1700515537991114000,6.057114013671875,-0.008624368347227573,0.05500437319278717,-0.03590970113873482
1700515538001123800,6.067123779296875,0.0623805858194828,-0.061160244047641754,0.09766888618469238
1700515538011135000,6.077135009765625,-0.02945958450436592,0.011099837720394135,0.06168292462825775
1700515538021144800,6.087144775390625,-0.01724136248230934,-0.005570477340370417,-0.14766469597816467
1700515538031155000,6.097155029296875,-0.012458324432373047,0.02409101277589798,-0.05091765150427818
1700515538041165800,6.107165771484375,0.05936345085501671,-0.010104898363351822,0.10260217636823654
1700515538051176000,6.117176025390625,-0.016890043392777443,-0.024075839668512344,0.11914519965648651
1700515538061186800,6.127186767578125,-0.0461767315864563,-0.006163722835481167,-0.09641887992620468
1700515538071196700,6.13719677734375,0.027921464294195175,0.05425887554883957,-0.013395898044109344
1700515538081206800,6.147206787109375,0.04374760016798973,-0.07469968497753143,0.10802772641181946
1700515538091217700,6.1572177734375,-0.02713456191122532,0.03579061105847359,-0.004979257471859455
1700515538101227800,6.167227783203125,-0.030079010874032974,-0.017775947228074074,-0.17514850199222565
1700515538111239000,6.177239013671875,0.021190835162997246,0.04092172160744667,-0.19841600954532623
1700515538121248800,6.187248779296875,0.06549770385026932,-0.025744734331965446,0.15155546367168427
1700515538131258600,6.197258544921875,-0.05518529936671257,0.0075831287540495396,0.1930413842201233
1700515538141270000,6.20727001953125,-0.04086153209209442,0.005198153201490641,-0.03404497355222702
1700515538151279900,6.21727978515625,0.046056587249040604,0.011303182691335678,-0.018988529220223427
1700515538161291000,6.227291015625,0.0016354330582544208,-0.027393465861678123,-0.0227137990295887
1700515538171300900,6.23730078125,-0.01827915385365486,0.03104347735643387,-0.11820223927497864
1700515538181311000,6.24731103515625,-0.03641016408801079,-0.035585079342126846,-0.08230051398277283
1700515538191321900,6.25732177734375,0.027390653267502785,0.04413238540291786,0.0875585526227951
1700515538201332000,6.26733203125,0.02668977528810501,-0.018110325559973717,0.15485252439975739
1700515538211342800,6.2773427734375,-0.03752276301383972,-0.027840983122587204,-0.09454692155122757
1700515538221352700,6.287352783203125,-0.016016941517591476,0.06399626284837723,-0.1290803998708725
1700515538231362800,6.29736279296875,0.06101100146770477,-0.025506990030407906,0.0719136968255043
1700515538241373400,6.30737353515625,-0.009286819957196712,0.001130062504671514,0.14664994180202484
1700515538251383600,6.317383544921875,-0.009291879832744598,0.005339987576007843,-0.08452416956424713
1700515538261394400,6.32739453125,-0.017369652166962624,-0.005798494443297386,-0.13423271477222443
1700515538271404500,6.337404541015625,0.055003080517053604,0.03565840423107147,0.015926960855722427
1700515538281414400,6.347414306640625,0.00553479790687561,-0.038322508335113525,0.13426731526851654
1700515538291425800,6.35742578125,-0.04689458757638931,-0.032178062945604324,-0.02148021012544632
1700515538301435400,6.367435302734375,-0.0011944420402869582,0.08260680735111237,-0.03501227870583534
1700515538311446800,6.37744677734375,0.056961540132761,-0.07773706316947937,0.08614929765462875
1700515538321456600,6.38745654296875,-0.027495119720697403,0.014430687762796879,0.03596975654363632
1700515538331466800,6.397466796875,-0.0161652322858572,-0.004810650832951069,-0.1599094569683075
1700515538341477600,6.4074775390625,-0.018227102234959602,0.006077710539102554,-0.07295307517051697
1700515538351487700,6.41748779296875,0.04182877764105797,-0.007761405780911446,0.11028971523046494
1700515538361498600,6.42749853515625,-0.009790409356355667,-0.008543419651687145,0.1535760760307312
1700515538371508500,6.437508544921875,-0.04953542351722717,-0.04508305713534355,-0.07013877481222153
1700515538381518600,6.4475185546875,0.008218721486628056,0.06971751898527145,-0.026698371395468712
1700515538391529500,6.457529541015625,0.039469052106142044,-0.09211505204439163,0.1054823026061058
1700515538401539600,6.46753955078125,-0.022669943049550056,0.05785515904426575,0.007536262273788452
1700515538411550500,6.477550537109375,-0.014629858545958996,-0.003100070171058178,-0.16435933113098145
1700515538421560600,6.487560546875,-0.006133504677563906,0.026946166530251503,-0.028809523209929466
1700515538431570400,6.4975703125,0.036606766283512115,-0.033462051302194595,0.1286938190460205
1700515538441581600,6.50758154296875,-0.015148146077990532,0.03449182212352753,0.06074250489473343
1700515538451591400,6.51759130859375,-0.03582333028316498,-0.01468957494944334,-0.10174733400344849
1700515538461602600,6.5276025390625,0.03020288422703743,0.04480814188718796,0.020194556564092636
1700515538471612700,6.53761279296875,0.01894623599946499,-0.07542479783296585,0.13818751275539398
1700515538481623600,6.54762353515625,-0.020122162997722626,0.06945572793483734,-0.03225097805261612
1700515538491633700,6.557633544921875,-0.023228740319609642,-0.028334209695458412,-0.18140476942062378
1700515538501643800,6.567643798828125,0.006629602983593941,0.030174219980835915,-0.016218261793255806
1700515538511654700,6.577654541015625,0.025962287560105324,-0.03723517805337906,0.14575892686843872
1700515538521664500,6.58766455078125,-0.02254650928080082,-0.00035256403498351574,0.045598842203617096
1700515538531675600,6.597675537109375,-0.025475453585386276,0.0411330945789814,-0.09059201925992966
1700515538541685500,6.607685546875,0.052453555166721344,0.061135098338127136,0.09921921789646149
1700515538551695600,6.617695556640625,-0.004445145837962627,-0.11514966189861298,0.08230175077915192
1700515538561706500,6.62770654296875,-0.007491020020097494,0.030207090079784393,-0.15102824568748474
1700515538571716600,6.637716552734375,0.29796478152275085,-0.66070157289505,-1.301021933555603
1700515538581727500,6.6477275390625,-0.19648736715316772,0.614491879940033,-1.0047756433486938
1700515538591737600,6.657737548828125,-0.2389722466468811,1.0358631610870361,1.116957664489746
1700515538601747500,6.66774755859375,0.31348636746406555,-0.8664549589157104,1.4095618724822998
1700515538611758600,6.677758544921875,-0.26757729053497314,0.1806136816740036,0.8642823100090027
1700515538621768400,6.6877685546875,-0.19717109203338623,-0.1851496696472168,-0.16955380141735077
1700515538631779600,6.697779541015625,0.1925567090511322,0.29455089569091797,-0.5209904313087463
1700515538641789700,6.707789794921875,-0.022088199853897095,-0.17850635945796967,0.20060022175312042
1700515538651800600,6.717800537109375,0.06188579648733139,0.03261679410934448,0.17057335376739502
1700515538661810700,6.727810791015625,-0.07070750743150711,-0.06105777248740196,-0.43111950159072876
1700515538671820500,6.737820556640625,0.007794486358761787,0.03463413193821907,-0.14398309588432312
1700515538681831700,6.747831787109375,0.03698550537228584,-0.022301314398646355,0.3257719874382019
1700515538691841500,6.757841552734375,0.010123265907168388,0.09346310049295425,0.08468826115131378
1700515538701852700,6.767852783203125,-0.034674134105443954,-0.14999336004257202,-0.2182150036096573
1700515538711862500,6.777862548828125,0.002055117394775152,0.09142566472291946,-0.14659275114536285
1700515538721873400,6.787873291015625,0.027478596195578575,0.14602376520633698,0.06854373216629028
1700515538731883500,6.797883544921875,0.052937351167201996,-0.10941971838474274,0.15507543087005615
1700515538741893600,6.8078935546875,-0.1336035430431366,-0.1227031722664833,-0.14632548391819
1700515538751904500,6.817904541015625,0.04664797708392143,0.11909294128417969,-0.19051770865917206
1700515538761914400,6.827914306640625,-0.01025036908686161,0.012911218218505383,0.09469595551490784
1700515538771925800,6.83792578125,0.0454869270324707,-0.04977027326822281,0.08073992282152176
1700515538781935600,6.847935546875,-0.06715378165245056,-0.0722852349281311,-0.0797002837061882
1700515538791945700,6.85794580078125,0.03880354389548302,0.0828566774725914,-0.008562983945012093
1700515538801956600,6.86795654296875,0.010795362293720245,0.12079838663339615,0.1305323839187622
1700515538811966700,6.877966796875,0.02761801704764366,-0.11091846972703934,0.1024370938539505
1700515538821977600,6.8879775390625,-0.07806781679391861,-0.037042342126369476,-0.17007307708263397
1700515538831987700,6.89798779296875,0.05103158578276634,0.07950637489557266,0.09476284682750702
1700515538841998600,6.90799853515625,0.00455328868702054,-0.03154093772172928,0.09088744968175888
1700515538852008700,6.9180087890625,0.01458781212568283,-0.015924694016575813,0.0331977903842926
1700515538862018600,6.9280185546875,-0.05191274359822273,-0.07615577429533005,-0.11307090520858765
1700515538872029400,6.938029541015625,0.029025783762335777,0.06498191505670547,-0.02686144784092903
1700515538882039600,6.94803955078125,0.014174243435263634,0.08724594116210938,0.10768367350101471
1700515538892050400,6.958050537109375,-0.0081470413133502,-0.19029060006141663,-0.03096049278974533
1700515538902060500,6.968060546875,-0.07055607438087463,-0.009789609350264072,-0.24001485109329224
1700515538912071700,6.97807177734375,0.05342259630560875,0.10468344390392303,0.07069987803697586
1700515538922081800,6.988081787109375,0.019382301717996597,-0.002237910171970725,0.05755426362156868
1700515538932092700,6.9980927734375,-0.018609821796417236,-0.028451671823859215,-0.0017948132008314133
1700515538942102800,7.008102783203125,-0.016138894483447075,-0.08698863536119461,-0.09343050420284271
1700515538952112600,7.018112548828125,0.016539691016077995,0.058727018535137177,-0.13954395055770874
1700515538962123500,7.02812353515625,0.019566858187317848,0.1392206847667694,0.10750823467969894
1700515538972133600,7.038133544921875,-0.06358128786087036,-0.21612116694450378,0.027610214427113533
1700515538982144500,7.04814453125,0.015286892652511597,0.08870211243629456,-0.005244139116257429
1700515538992154600,7.058154541015625,0.016525262966752052,0.05125141516327858,-0.06526753306388855
1700515539002165500,7.06816552734375,0.001347990590147674,-0.06878330558538437,0.10690683126449585
1700515539012175600,7.078175537109375,-0.019827067852020264,-0.04185022786259651,-0.004636470694094896
1700515539022185500,7.088185546875,-0.001585333957336843,0.008931959979236126,-0.05296024680137634
1700515539032196600,7.098196533203125,0.0068073514848947525,0.12251977622509003,0.020610641688108444
1700515539042206500,7.10820654296875,0.040534429252147675,-0.044034164398908615,0.1035560891032219
1700515539052217600,7.118217529296875,-0.07082485407590866,-0.16290782392024994,-0.09697408229112625
1700515539062227500,7.1282275390625,0.031527262181043625,0.1581806242465973,-0.08636568486690521
1700515539072238600,7.138238525390625,-0.0005638287984766066,-0.011226771399378777,0.09602595865726471
1700515539082248700,7.148248779296875,0.01850622519850731,0.00356709910556674,0.05258706584572792
1700515539092259600,7.158259521484375,-0.0525415875017643,-0.15155857801437378,-0.07857814431190491
1700515539102269700,7.168269775390625,0.01837535947561264,0.07176801562309265,-0.11994849890470505
1700515539112279600,7.178279541015625,0.017373213544487953,0.12177765369415283,-0.0014793719165027142
1700515539122290700,7.188290771484375,0.017979953438043594,-0.1391480267047882,0.10253620892763138
1700515539132300500,7.198300537109375,-0.05839231237769127,-0.042933348566293716,-0.004383847117424011
1700515539142311700,7.208311767578125,0.04547656700015068,0.1366201788187027,-0.009118039160966873
1700515539152321500,7.218321533203125,-0.005130415316671133,-0.06044122204184532,0.10825438797473907
1700515539162332400,7.22833251953125,0.01883881539106369,0.019417615607380867,-0.004145580809563398
1700515539172342500,7.238342529296875,-0.02948024682700634,-0.10002755373716354,-0.12651783227920532
1700515539182353400,7.248353515625,0.03379856050014496,0.0897752046585083,-0.04868258535861969
1700515539192363500,7.258363525390625,0.0057850368320941925,0.14767765998840332,0.042865972965955734
1700515539202373600,7.26837353515625,-0.010843869298696518,-0.18291190266609192,0.0281372107565403
1700515539212384800,7.278384765625,-0.030185608193278313,0.017594294622540474,-0.044286925345659256
1700515539222394600,7.28839453125,0.029461614787578583,-0.01279975101351738,-0.1162070706486702
1700515539232405800,7.29840576171875,-0.003123493865132332,0.15845908224582672,-0.08528456836938858
1700515539242415600,7.30841552734375,-0.01492263749241829,-0.10564237087965012,0.04454151168465614
1700515539252426800,7.3184267578125,0.014257351867854595,-0.03473277390003204,0.12174735218286514
1700515539262436600,7.3284365234375,-0.006363183259963989,0.04056105390191078,-0.014609388075768948
1700515539272447500,7.338447509765625,-0.027463410049676895,-0.01537944097071886,-0.28140485286712646
1700515539282457600,7.34845751953125,0.004715631250292063,-0.059849813580513,0.0590045228600502
1700515539292468500,7.358468505859375,-0.006054192315787077,-0.035084545612335205,0.19876667857170105
1700515539302478600,7.368478515625,0.007344712037593126,0.019517742097377777,-0.05660613998770714
1700515539312488400,7.378488525390625,0.02733120322227478,0.31374725699424744,-0.038950178772211075
1700515539322499600,7.38849951171875,-0.032992616295814514,-0.28136518597602844,0.1629837304353714
1700515539332509400,7.398509521484375,0.006293535232543945,0.03982507064938545,0.07409433275461197
1700515539342520800,7.408520751953125,0.006343565881252289,0.01637079380452633,-0.2554016709327698
1700515539352530700,7.41853076171875,0.02825419045984745,0.21135732531547546,0.1583041399717331
1700515539362541600,7.42854150390625,-0.06684798002243042,-0.3177642822265625,0.09603181481361389
1700515539372551700,7.4385517578125,0.037529557943344116,0.15581098198890686,-0.013017432764172554
1700515539382562600,7.4485625,0.004007597453892231,0.022818565368652344,-0.1712312400341034
1700515539392572700,7.45857275390625,-0.017492368817329407,-0.07756342738866806,0.09953341633081436
1700515539402583600,7.46858349609375,-0.029541023075580597,-0.07602941244840622,0.05645272135734558
1700515539412593700,7.47859375,0.018720248714089394,0.0069381799548864365,-0.030543429777026176
1700515539422603500,7.488603515625,-0.019514350220561028,0.026201166212558746,-0.24342496693134308
1700515539432614700,7.49861474609375,0.021582752466201782,-0.008258538320660591,0.1404404193162918
1700515539442624500,7.50862451171875,-0.03565338999032974,-0.12705089151859283,0.11467215418815613
1700515539452635600,7.5186357421875,0.03097144141793251,0.09515661746263504,-0.049396149814128876
1700515539462645500,7.5286455078125,0.0021241363137960434,0.05602320656180382,-0.19434957206249237
1700515539472656600,7.53865673828125,-0.002324407920241356,-0.12501288950443268,0.15315832197666168
1700515539482666800,7.548666748046875,-0.0334818959236145,-0.04752141237258911,0.07738912850618362
1700515539492677600,7.558677734375,0.023736651986837387,0.02848813124001026,-0.11873164772987366
1700515539502687700,7.568687744140625,0.02590220607817173,0.3206372559070587,0.07829125970602036
1700515539512698600,7.57869873046875,0.029434623196721077,-0.2804515063762665,0.09174954146146774
1700515539522708700,7.588708740234375,-0.07293860614299774,0.047015443444252014,-0.07577663660049438
1700515539532719600,7.5987197265625,0.0642770379781723,0.1227450966835022,-0.09562277793884277
1700515539542729700,7.608729736328125,-0.017905158922076225,-0.05020664259791374,0.0932837724685669
1700515539552740600,7.61874072265625,0.037518687546253204,-0.04897120222449303,0.05305778980255127
1700515539562750500,7.62875048828125,-0.06867913901805878,-0.06760484725236893,-0.09558115154504776
1700515539572760600,7.638760498046875,0.03069431520998478,0.09771274030208588,-0.04106065630912781
1700515539582771500,7.648771484375,0.01877562329173088,0.046285539865493774,0.18165650963783264
1700515539592781600,7.658781494140625,-0.03479678928852081,-0.14633238315582275,0.06441803276538849
1700515539602792700,7.668792724609375,-0.03775927051901817,0.0401439405977726,-0.16213010251522064
1700515539612802800,7.678802734375,0.039304085075855255,0.11267246305942535,-0.04549483582377434
1700515539622813700,7.688813720703125,0.0024191592819988728,-0.12512394785881042,0.22980764508247375
1700515539632823800,7.69882373046875,-0.018941523507237434,0.0058654919266700745,0.164897620677948
1700515539642834700,7.708834716796875,-0.020996712148189545,-0.03200246021151543,-0.1090582013130188
1700515539652844500,7.718844482421875,0.028889887034893036,0.1401117742061615,-0.07075022906064987
1700515539662855700,7.728855712890625,0.019950566813349724,-0.07990526407957077,0.25525063276290894
1700515539672865500,7.738865478515625,-0.053826455026865005,-0.08479056507349014,0.07189730554819107
1700515539682876700,7.748876708984375,0.0032925845589488745,0.036593347787857056,-0.30463913083076477
1700515539692886500,7.758886474609375,0.027575021609663963,0.1053718775510788,0.17271941900253296
1700515539702897700,7.768897705078125,0.04560287669301033,-0.03448984771966934,0.21953211724758148
1700515539712907500,7.778907470703125,-0.02106749638915062,-0.040517646819353104,-0.046007413417100906
1700515539722918700,7.788918701171875,-0.026342613622546196,0.086558997631073,-0.21187205612659454
1700515539732928500,7.798928466796875,0.037941303104162216,0.10467009246349335,0.16677911579608917
1700515539742939600,7.808939697265625,0.06200474128127098,-0.07925601303577423,0.2670300006866455
1700515539752949800,7.81894970703125,-0.10280764102935791,-0.08979015052318573,-0.2461012303829193
1700515539762960600,7.828960693359375,0.04771936312317848,0.19725248217582703,-0.20969465374946594
1700515539772970800,7.838970703125,-0.0029872232116758823,-0.06510695815086365,0.3189803659915924
1700515539782980600,7.848980712890625,0.05713845044374466,0.030597107484936714,0.14150336384773254
1700515539792991700,7.85899169921875,-0.06530464440584183,-0.12563537061214447,-0.24419958889484406
1700515539803001600,7.869001708984375,0.01552808191627264,0.10952955484390259,-0.1560065746307373
1700515539813012500,7.879012451171875,0.02465313859283924,0.10058265924453735,0.27797043323516846
1700515539823022600,7.889022705078125,0.05050479248166084,-0.12687945365905762,0.17842993140220642
1700515539833033500,7.899033447265625,-0.12297085672616959,-0.09896392375230789,-0.34045717120170593
1700515539843043600,7.909043701171875,0.050029076635837555,0.18021225929260254,-0.08760268241167068
1700515539853054500,7.919054443359375,-0.004534566774964333,-0.08133864402770996,0.3405774235725403
1700515539863064600,7.929064697265625,0.0468742772936821,-0.0027846265584230423,0.09394071251153946
1700515539873075700,7.93907568359375,-0.09641337394714355,-0.11517322063446045,-0.28100547194480896
1700515539883085800,7.9490859375,0.03206084668636322,0.12907227873802185,-0.09676813334226608
1700515539893096700,7.9590966796875,0.029637638479471207,0.031582482159137726,0.3412936329841614
1700515539903106800,7.96910693359375,0.016509750857949257,-0.10670387744903564,0.07446499913930893
1700515539913117700,7.97911767578125,-0.08924597501754761,-0.05522843450307846,-0.39009201526641846
1700515539923127600,7.98912744140625,0.038184717297554016,0.12411195784807205,0.04301004111766815
1700515539933138700,7.999138671875,0.030716409906744957,-0.028828317299485207,0.3286135494709015
1700515539943148500,8.0091484375,0.030735639855265617,-0.035574231296777725,-0.003345182165503502
1700515539953159700,8.01915966796875,-0.07654740661382675,-0.06520536541938782,-0.3093397319316864
1700515539963169500,8.02916943359375,0.03933496028184891,0.15443198382854462,0.008117683231830597
1700515539973180400,8.039180419921875,0.05155327543616295,-0.019458049908280373,0.3798435628414154
1700515539983190500,8.0491904296875,-0.026137983426451683,-0.09129543602466583,-0.04455152153968811
1700515539993201700,8.05920166015625,-0.03075537085533142,0.06660152226686478,-0.36542433500289917
1700515540003211800,8.069211669921875,0.03374990448355675,0.04702209308743477,0.15940508246421814
1700515540013222700,8.07922265625,0.04598819464445114,0.04118843749165535,0.2781527638435364
1700515540023232800,8.089232666015626,-0.019949832931160927,-0.1200774759054184,-0.14219951629638672
1700515540033243600,8.09924365234375,-0.046408604830503464,-0.0018999758176505566,-0.3073144257068634
1700515540043253800,8.109253662109374,0.014149134978652,0.07432544976472855,0.029453817754983902
1700515540053264600,8.1192646484375,0.050334036350250244,-0.07786781340837479,0.2776487171649933
1700515540063274500,8.1292744140625,-0.09847205877304077,-0.10848309099674225,-0.09077845513820648
1700515540073285600,8.13928564453125,0.01193488109856844,0.10896613448858261,-0.34528452157974243
1700515540083295500,8.14929541015625,0.01290517020970583,0.028072068467736244,0.196369931101799
1700515540093306600,8.159306640625,0.05505954846739769,-0.012315833941102028,0.2304147183895111
1700515540103316500,8.16931640625,-0.05298779904842377,-0.08611888438463211,-0.08693260699510574
1700515540113327600,8.17932763671875,-0.008020857349038124,0.08090712130069733,-0.2598639130592346
1700515540123337700,8.189337646484375,0.03112349659204483,0.11412176489830017,0.12267636507749557
1700515540133348600,8.1993486328125,0.044579118490219116,-0.12273711711168289,0.2663155496120453
1700515540143358700,8.209358642578126,-0.10024800896644592,-0.10226420313119888,-0.17602896690368652
1700515540153369600,8.21936962890625,0.06002209335565567,0.2117520421743393,-0.2225690335035324
1700515540163379700,8.229379638671874,-0.015326688066124916,-0.07575088739395142,0.2756423354148865
1700515540173390600,8.239390625,0.0474269725382328,0.007191403303295374,0.1260075718164444
1700515540183400700,8.249400634765625,-0.06323277950286865,-0.09509163349866867,-0.18909971415996552
1700515540193411600,8.25941162109375,0.008795343339443207,0.11094941943883896,-0.10400691628456116
1700515540203421700,8.269421630859375,0.020038355141878128,0.10233382135629654,0.24034307897090912
1700515540213432600,8.2794326171875,0.012602276168763638,-0.12267692387104034,0.11951785534620285
1700515540223442400,8.2894423828125,-0.09667766839265823,-0.06538940966129303,-0.34282466769218445
1700515540233453800,8.299453857421875,0.05372622236609459,0.15979604423046112,-0.12927989661693573
1700515540243462700,8.309462646484375,-0.014840368181467056,-0.08298768848180771,0.2662632167339325
1700515540253473500,8.3194736328125,0.008887065574526787,-0.00134209671523422,0.10099782794713974
1700515540263483600,8.329483642578126,-0.058717142790555954,-0.10524950921535492,-0.2630082368850708
1700515540273494500,8.33949462890625,0.0465560182929039,0.16968591511249542,-0.22728592157363892
1700515540283504400,8.34950439453125,0.02842613495886326,0.007575873285531998,0.32071876525878906
1700515540293515800,8.359515869140624,-0.0492609366774559,-0.10112690180540085,0.1788596212863922
1700515540303525600,8.369525634765624,-0.05218590423464775,-0.03448866680264473,-0.34153538942337036
1700515540313536800,8.379536865234375,0.03923748806118965,0.22936588525772095,0.036445461213588715
1700515540323546600,8.389546630859375,0.043250009417533875,-0.09294921159744263,0.273628294467926
1700515540333557500,8.3995576171875,0.006076273042708635,0.02178269997239113,-0.005334905814379454
1700515540343567600,8.409567626953125,-0.06586740911006927,0.027796026319265366,-0.2018122524023056
1700515540353578500,8.41957861328125,0.01524022500962019,0.08903487771749496,0.047306232154369354
1700515540363588600,8.429588623046875,0.051443424075841904,-0.021205676719546318,0.3006365895271301
1700515540373599500,8.439599609375,-0.05718798190355301,-0.10395622253417969,-0.07596023380756378
1700515540383609600,8.449609619140626,-0.03509695455431938,0.1758742332458496,-0.2511473000049591
1700515540393620500,8.459620361328126,-0.0015051725786179304,-0.03496209904551506,0.22917695343494415
1700515540403630600,8.469630615234376,0.06442365795373917,0.06896799802780151,0.2734188139438629
1700515540413641700,8.479641845703124,-0.04301518201828003,-0.11048883944749832,-0.11296936869621277
1700515540423651600,8.489651611328124,-0.019339654594659805,0.11832869052886963,-0.2292988896369934
1700515540433662700,8.499662841796875,0.004092699382454157,0.10370872914791107,0.25153589248657227
1700515540443672600,8.509672607421875,0.07952195405960083,-0.049001023173332214,0.3510110676288605
1700515540453683700,8.51968359375,-0.10048510134220123,-0.09446677565574646,-0.2600587010383606
1700515540463694600,8.529694580078125,0.008883480913937092,0.17736436426639557,-0.15854674577713013
1700515540473704700,8.53970458984375,-0.016587790101766586,-0.028163760900497437,0.3481023609638214
1700515540483715600,8.549715576171875,0.0851735770702362,0.07357301563024521,0.24930214881896973
1700515540493725400,8.559725341796875,-0.06079161912202835,-0.10238363593816757,-0.22954192757606506
1700515540503736600,8.569736572265626,0.00032837793696671724,0.14868421852588654,-0.2074999362230301
1700515540513746400,8.579746337890626,0.01133735291659832,0.10416893661022186,0.32572853565216064
1700515540523757800,8.5897578125,0.09598584473133087,-0.018517374992370605,0.28059735894203186
1700515540533767700,8.599767578125,-0.09465281665325165,0.0027540926821529865,-0.292720228433609
1700515540543778600,8.609778564453125,0.008439219556748867,0.11012902110815048,-0.04368376359343529
1700515540553788700,8.61978857421875,0.013469664379954338,0.051955994218587875,0.3729611337184906
1700515540563799600,8.629799560546875,0.04728536680340767,0.03269069269299507,0.2410527467727661
1700515540573809700,8.6398095703125,-0.09482330828905106,-0.05643438920378685,-0.23706509172916412
1700515540583820500,8.649820556640625,-0.014270840212702751,0.05178087204694748,-0.10855575650930405
1700515540593830700,8.65983056640625,0.0014018624788150191,0.08171799778938293,0.34162473678588867
1700515540603841500,8.669841552734376,0.02311018481850624,-0.06387384235858917,0.13456524908542633
1700515540613851600,8.6798515625,-0.11397843062877655,0.01791689358651638,-0.3531927168369293
1700515540623862500,8.689862548828126,-0.008032949641346931,0.06079892814159393,-0.005847413092851639
1700515540633872400,8.699872314453126,0.043220117688179016,0.12097012251615524,0.3138403296470642
1700515540643883800,8.7098837890625,0.0365719310939312,-0.021847562864422798,0.12832465767860413
1700515540653894700,8.719894775390625,-0.08492095023393631,-0.002829663921147585,-0.32358822226524353
1700515540663904800,8.72990478515625,-0.00888178963214159,0.04801526665687561,-0.0353550985455513
1700515540673915600,8.73991552734375,0.04633885622024536,0.10424978286027908,0.4027644395828247
1700515540683925500,8.749925537109375,-0.010549278929829597,0.0033747456036508083,0.05860551446676254
1700515540693936600,8.7599365234375,-0.07595837861299515,0.007155635394155979,-0.24555809795856476
1700515540703946500,8.769946533203125,-0.0013204497518017888,0.08203312009572983,0.12957383692264557
1700515540713957600,8.77995751953125,0.06470862776041031,0.14707444608211517,0.33865222334861755
1700515540723967500,8.789967529296876,-0.026435518637299538,0.02020791359245777,0.08069749921560287
1700515540733978600,8.799978515625,-0.07236678898334503,-0.010298595763742924,-0.22597908973693848
1700515540743988500,8.809988525390626,-0.03254695236682892,0.10004585236310959,-0.012940863147377968
1700515540753999400,8.819999267578124,0.06214786693453789,0.11021726578474045,0.3879311680793762
1700515540764009500,8.830009521484374,-0.06894025951623917,0.0543857142329216,0.04552287980914116
1700515540774020600,8.8400205078125,-0.08961144834756851,0.040395595133304596,-0.19636164605617523
1700515540784030700,8.85003076171875,-0.04325948283076286,0.11348411440849304,0.08186471462249756
1700515540794041600,8.86004150390625,0.045601148158311844,0.15862789750099182,0.3626798689365387
1700515540804052500,8.870052490234375,-0.02627144381403923,0.08186307549476624,0.1298127919435501
1700515540814062600,8.8800625,-0.06853342056274414,0.11869166046380997,-0.11117824167013168
1700515540824073500,8.890073486328125,0.032033052295446396,-0.21771186590194702,-1.500582218170166
1700515540834083600,8.90008349609375,-0.2651674747467041,0.2764613628387451,-0.4491555988788605
1700515540844094500,8.910094482421876,-0.1420295536518097,0.20590773224830627,1.3279671669006348
1700515540854104600,8.9201044921875,0.10055407136678696,0.0625564306974411,1.005402684211731
1700515540864115500,8.930115478515624,-0.07346565276384354,0.1879432648420334,0.07934200018644333
1700515540874125600,8.94012548828125,0.011938722804188728,-0.007050453685224056,-0.17303620278835297
1700515540884136700,8.95013671875,-0.06083499267697334,0.017980562523007393,-0.012934500351548195
1700515540894146600,8.960146484375,0.005932055413722992,0.10391038656234741,0.04066401347517967
1700515540904157700,8.97015771484375,-0.026643741875886917,0.22052738070487976,0.36894869804382324
1700515540914167600,8.98016748046875,0.07979454845190048,0.06039204075932503,0.23574644327163696
1700515540924178700,8.9901787109375,-0.11942370235919952,0.1186770349740982,-0.11033564805984497
1700515540934189600,9.000189453125,-0.03690805286169052,0.07545100152492523,0.15591707825660706
1700515540944199700,9.01019970703125,0.009451700374484062,0.13026544451713562,0.16392281651496887
1700515540954210600,9.02021044921875,0.05585115775465965,-0.03331389278173447,0.07465711236000061
1700515540964220400,9.030220458984376,-0.04772251099348068,0.11330477148294449,0.04358246177434921
1700515540974231600,9.0402314453125,0.010042518377304077,0.040893156081438065,0.0510406419634819
1700515540984241400,9.050241455078124,0.09996180236339569,0.0918496623635292,0.13036125898361206
1700515540994252800,9.060252685546875,0.04086385667324066,-0.018611866980791092,-0.11495929956436157
1700515541004262700,9.0702626953125,-0.020789487287402153,0.02002701163291931,-0.07021567970514297
1700515541014273500,9.0802734375,0.0681086853146553,0.07439465075731277,0.11624607443809509
1700515541024284700,9.09028466796875,0.07515844702720642,0.14193972945213318,0.1434461623430252
1700515541034294500,9.10029443359375,0.0544678196310997,0.006203467957675457,0.07133547961711884
1700515541044305700,9.1103056640625,0.01484207808971405,0.06420343369245529,-0.0033328700810670853
1700515541054315500,9.1203154296875,0.002454384695738554,0.10548403114080429,0.10152190923690796
1700515541064326400,9.130326416015626,0.0996493399143219,0.0952514037489891,0.12162294238805771
1700515541074336500,9.14033642578125,-0.011585302650928497,0.012171169742941856,-0.087877556681633
1700515541084347400,9.150347412109374,-0.004316077101975679,0.034350425004959106,0.011333329603075981
1700515541094357500,9.160357421875,-0.031033707782626152,0.03432246297597885,0.04055752605199814
1700515541104368600,9.17036865234375,0.04263182729482651,0.003844846971333027,-0.0025897626765072346
1700515541114378800,9.180378662109375,-0.035667505115270615,-0.05425307899713516,-0.08523005247116089
1700515541124389600,9.1903896484375,-0.013036458753049374,0.0028626220300793648,-0.0037291208282113075
1700515541134400500,9.200400390625,-0.00826061237603426,0.08180084079504013,0.08899788558483124
1700515541144410600,9.21041064453125,0.10060697793960571,0.013944086618721485,0.11110351234674454
1700515541154421500,9.22042138671875,-0.05424598231911659,-0.015540569089353085,-0.0749656930565834
1700515541164431600,9.230431640625,0.02174115739762783,0.012903370894491673,0.052960097789764404
1700515541174442500,9.2404423828125,-0.016032587736845016,-0.005502800457179546,0.0017823996022343636
1700515541184452600,9.25045263671875,0.05257542431354523,-0.023867499083280563,0.08411940187215805
1700515541194463500,9.26046337890625,-0.026557477191090584,-0.05165785178542137,-0.06082446873188019
1700515541204473600,9.2704736328125,-0.03202565759420395,-0.05130048468708992,-0.059113454073667526
1700515541214484700,9.280484619140625,0.006035176571458578,-0.002636011689901352,0.02672475203871727
1700515541224495600,9.29049560546875,0.03660834580659866,-0.09364733844995499,0.021748024970293045
1700515541234505700,9.300505615234375,-0.05055239051580429,-0.05653059855103493,-0.0822923555970192
1700515541244517000,9.31051708984375,-0.021655607968568802,-0.019161412492394447,0.017330214381217957
1700515541254527000,9.32052685546875,0.00838378444314003,0.012077998369932175,-0.020750058814883232
1700515541264538000,9.3305380859375,0.034867797046899796,-0.08421792089939117,0.1054883599281311
1700515541274548000,9.3405478515625,-0.04923482984304428,-0.08607573807239532,-0.127587229013443
1700515541284559000,9.35055908203125,-0.038620222359895706,0.01591997966170311,0.02262193337082863
1700515541294570200,9.3605703125,0.01433620322495699,-0.04534550756216049,0.043774090707302094
1700515541304580000,9.370580078125,-0.007803352549672127,-0.11220483481884003,-0.10667862743139267
1700515541314591200,9.38059130859375,-0.017349720001220703,-0.022886410355567932,-0.030491448938846588
1700515541324601000,9.39060107421875,-0.041584745049476624,-0.05039963498711586,-0.023561641573905945
1700515541334612200,9.4006123046875,0.02233991026878357,0.08588311076164246,0.13925044238567352
1700515541344622000,9.4106220703125,0.009290286339819431,-0.08237628638744354,-0.0685042217373848
1700515541354633200,9.42063330078125,-0.057997141033411026,0.040655363351106644,-0.026261689141392708
1700515541364644000,9.43064404296875,0.0556509904563427,0.10843539983034134,0.17507076263427734
1700515541374654000,9.440654052734375,0.06978332251310349,-0.04368516430258751,-0.07302425801753998
1700515541384665000,9.4506650390625,-0.023476967588067055,-0.005591977387666702,-0.05659617483615875
1700515541394675000,9.460675048828126,0.020333096385002136,0.09557192772626877,0.10879038274288177
1700515541404686000,9.47068603515625,0.04583171010017395,0.17156073451042175,0.2943286597728729
1700515541414696000,9.480696044921874,0.06670556962490082,-0.030306870117783546,-0.20975634455680847
1700515541424707000,9.49070703125,-0.11643709987401962,0.23004961013793945,0.18288841843605042
1700515541434718200,9.50071826171875,0.1918879896402359,0.06877949088811874,0.31952694058418274
1700515541444728000,9.51072802734375,0.0338667593896389,-0.09043442457914352,-0.35633495450019836
1700515541454739200,9.5207392578125,-0.043804068118333817,0.11636988818645477,0.03101436421275139
1700515541464749000,9.5307490234375,0.04857460409402847,0.176290363073349,0.4701294004917145
1700515541474760000,9.540760009765625,0.017056623473763466,-0.10818316787481308,-0.30953124165534973
1700515541484770000,9.55077001953125,-0.043439511209726334,0.08492348343133926,-0.08152493834495544
1700515541494781000,9.560781005859376,0.1139644980430603,0.2043428272008896,0.6339330673217773
1700515541504792000,9.5707919921875,0.006108773872256279,-0.04805849865078926,-0.3350023925304413
1700515541514802000,9.580802001953124,-0.08422990888357162,-0.022669250145554543,-0.16149930655956268
1700515541524813000,9.59081298828125,0.09335961937904358,0.22666558623313904,0.6041676998138428
1700515541534823200,9.6008232421875,-0.05157572776079178,-0.12755747139453888,-0.26690545678138733
1700515541544834000,9.610833984375,-0.08171474188566208,0.00734064681455493,-0.20738938450813293
1700515541554844200,9.62084423828125,0.12603633105754852,0.13827283680438995,0.5584124326705933
1700515541564855000,9.63085498046875,-0.051037948578596115,-0.14624185860157013,-0.35447055101394653
1700515541574866200,9.6408662109375,-0.06998394429683685,0.0012176373274996877,-0.281741738319397
1700515541584876000,9.6508759765625,0.08712951093912125,0.1634177267551422,0.6250984072685242
1700515541594887000,9.660886962890626,-0.009054278954863548,-0.3392381966114044,-0.3744399845600128
1700515541604897000,9.67089697265625,-0.0705859437584877,0.3881453275680542,0.06616360694169998
1700515541614908000,9.680907958984376,0.14361797273159027,-0.00020984502043575048,0.5828008651733398
1700515541624919300,9.690919189453124,-0.06759744882583618,-0.24522638320922852,-0.5534742474555969
1700515541634929200,9.70092919921875,-0.015409876592457294,0.23728221654891968,0.0746336281299591
1700515541644940000,9.71093994140625,0.019219912588596344,0.004107041750103235,0.24810802936553955
1700515541654950100,9.7209501953125,-0.15270951390266418,-0.005457701627165079,-0.4093923270702362
1700515541664961000,9.7309609375,0.17278186976909637,-0.08099217712879181,0.5987908244132996
1700515541674971100,9.74097119140625,0.065684974193573,-0.20666593313217163,-0.08021454513072968
1700515541684982000,9.75098193359375,-0.19349360466003418,-0.19022029638290405,-0.18894606828689575
1700515541694993000,9.760992919921875,-0.03216357156634331,-0.06475264579057693,0.9727492928504944
1700515541705003000,9.7710029296875,-0.08814824372529984,-0.05393402278423309,0.5525985956192017
1700515541715014000,9.781013916015626,-0.10541005432605743,-0.13386881351470947,0.7287323474884033
1700515541725025300,9.791025390625,-0.23695285618305206,-0.34856167435646057,-0.45300552248954773
1700515541735035100,9.80103515625,-0.13858261704444885,-0.2726309597492218,-1.1524604558944702
1700515541745046000,9.8110458984375,-0.028664978221058846,-0.16333594918251038,-0.5130935311317444
1700515541755056000,9.82105615234375,-0.006301347631961107,-0.33909258246421814,-0.6354290246963501
1700515541765067000,9.83106689453125,0.06908710300922394,0.49969038367271423,0.24018695950508118
1700515541775077000,9.8410771484375,-0.022262519225478172,0.0021378512028604746,0.2339218705892563
1700515541785088000,9.851087890625,-0.009622089564800262,0.26939380168914795,-0.17008551955223083
1700515541795099100,9.86109912109375,0.23503746092319489,0.22428622841835022,0.843357503414154
1700515541805109000,9.87110888671875,0.10434212535619736,0.4067297875881195,0.27380260825157166
1700515541815120000,9.881119873046876,0.09322049468755722,0.30239325761795044,-0.005075620021671057
1700515541825130000,9.8911298828125,0.12518343329429626,-0.03687319532036781,0.22267447412014008
1700515541835141000,9.90114111328125,-0.07315308600664139,-0.026860510930418968,-0.013380135409533978
1700515541845152300,9.91115234375,0.11051243543624878,0.0476558655500412,0.15273258090019226
1700515541855162000,9.921162109375,-0.0423964224755764,-0.2176905870437622,-0.2370157092809677
1700515541865173000,9.931173095703125,-0.17229993641376495,0.0614570789039135,-0.12601377069950104
1700515541875183000,9.94118310546875,0.12492216378450394,-0.21365810930728912,-0.0837416797876358
1700515541885194000,9.951194091796875,-0.18481145799160004,-0.4583257734775543,-0.20807424187660217
1700515541895205000,9.961205078125,-0.12858493626117706,0.24047568440437317,0.2494986355304718
1700515541905215000,9.971215087890625,0.01925600692629814,-0.3149908185005188,0.39864465594291687
1700515541915225900,9.981225830078126,-0.22214622795581818,-0.00852915644645691,-0.23359139263629913
1700515541925236000,9.991236083984376,0.11883796006441116,-0.0408506765961647,0.09569331258535385
1700515541935247000,10.0012470703125,-0.0240962915122509,-0.005062054377049208,-0.3656604588031769
1700515541945258200,10.01125830078125,-0.04681101813912392,-0.08764319121837616,-0.37372761964797974
1700515541955268000,10.02126806640625,0.12017583847045898,-0.1601376235485077,0.2611369490623474
1700515541965279000,10.031279052734375,-0.11358283460140228,-0.020461268723011017,0.08592195808887482
1700515541975290000,10.0412900390625,-0.005676868371665478,0.4187462031841278,0.6285508871078491
1700515541985300000,10.051300048828125,0.1350589096546173,0.1748833954334259,0.07337634265422821
1700515541995311000,10.06131103515625,-0.0932387113571167,-0.1366523951292038,-0.49821287393569946
1700515542005321000,10.071321044921875,0.0783560499548912,0.22845083475112915,-0.05924859642982483
1700515542015332000,10.08133203125,0.054928749799728394,-0.18562757968902588,-0.32913705706596375
1700515542025343200,10.09134326171875,-0.1739221215248108,0.3699694871902466,0.17178018391132355
1700515542035353000,10.10135302734375,0.201246976852417,-0.028239412233233452,0.7242569923400879
1700515542045364200,10.1113642578125,-0.1378483772277832,0.16074076294898987,0.31193819642066956
1700515542055374000,10.1213740234375,-0.01574377529323101,0.29234778881073,0.2587282359600067
1700515542065385200,10.13138525390625,0.12364828586578369,-0.25132715702056885,-0.48026925325393677
1700515542075396000,10.14139599609375,-0.251459538936615,-0.2245520055294037,-0.6342074275016785
1700515542085406000,10.151406005859375,0.18328584730625153,0.01279376819729805,0.20747950673103333
1700515542095417000,10.1614169921875,-0.06789656728506088,-0.2006111890077591,0.0405842624604702
1700515542105428000,10.171427978515625,-0.07207328081130981,0.15317650139331818,0.5350207090377808
1700515542115438000,10.18143798828125,0.07599847763776779,0.023358583450317383,0.5715377330780029
1700515542125449200,10.19144921875,-0.10240180045366287,-0.17450444400310516,-0.5084858536720276
1700515542135459000,10.201458984375,0.13014274835586548,0.14993968605995178,-0.0822966992855072
1700515542145470200,10.21147021484375,0.013690617866814137,-0.013872121460735798,-0.3234783411026001
1700515542155481000,10.221481201171875,-0.15371941030025482,-0.08952827006578445,-0.5718878507614136
1700515542165491200,10.2314912109375,0.13283860683441162,-0.07080723345279694,0.3917873203754425
1700515542175502000,10.241502197265625,-0.06108078733086586,-0.015759164467453957,-0.1143978163599968
1700515542185512200,10.25151220703125,-0.061659447848796844,0.36799606680870056,0.5786575675010681
1700515542195523000,10.261523193359375,0.1502661108970642,0.09591235965490341,0.17405417561531067
1700515542205534000,10.271533935546875,-0.1751580834388733,-0.16132403910160065,-0.272963285446167
1700515542215544000,10.2815439453125,0.05242927372455597,0.3231523633003235,0.1325320303440094
1700515542225555200,10.29155517578125,0.14305426180362701,-0.340905100107193,-0.6306487321853638
1700515542235566000,10.301566162109374,-0.24824479222297668,0.10877232253551483,-0.32652580738067627
1700515542245576400,10.311576416015624,0.14916934072971344,-0.404213547706604,0.3723849356174469
1700515542255587300,10.32158740234375,-0.09063153713941574,0.197915717959404,-0.01678599789738655
1700515542265597400,10.331597412109375,-0.059019092470407486,0.19845014810562134,0.5553852319717407
1700515542275608300,10.3416083984375,0.08479133248329163,-0.0997820794582367,-0.03435371816158295
1700515542285619200,10.351619140625,-0.22367240488529205,-0.1796395182609558,-0.48459160327911377
1700515542295629300,10.36162939453125,0.18273210525512695,0.13946789503097534,0.2783427834510803
1700515542305640200,10.37164013671875,-0.06786023825407028,-0.06924032419919968,-0.1753349006175995
1700515542315651300,10.3816513671875,-0.008982803672552109,0.3483997881412506,-0.014573714695870876
1700515542325661400,10.391661376953126,0.20974497497081757,-0.08103545755147934,0.02587207220494747
1700515542335672300,10.40167236328125,-0.0908697247505188,-0.038642462342977524,-0.5320920944213867
1700515542345682400,10.411682373046874,0.13853944838047028,0.2753888666629791,0.462001770734787
1700515542355693300,10.421693359375,0.051844507455825806,-0.09260594099760056,0.20547595620155334
1700515542365704200,10.4317041015625,0.05349350720643997,0.31799229979515076,0.06754051148891449
1700515542375714300,10.44171435546875,0.1509534865617752,-0.09990162402391434,0.366872638463974
1700515542385725200,10.45172509765625,-0.012081257998943329,-0.19254499673843384,-0.5827281475067139
1700515542395736600,10.461736572265625,0.17999790608882904,0.18736638128757477,0.37170642614364624
1700515542405746200,10.47174609375,0.023744801059365273,-0.24081671237945557,0.00938781350851059
1700515542415757300,10.48175732421875,-0.021018674597144127,0.19000259041786194,-0.13603755831718445
1700515542425768400,10.4917685546875,0.1568596512079239,-0.2558009624481201,0.020269740372896194
1700515542435778300,10.5017783203125,-0.02676290273666382,-0.3933609426021576,-0.8007561564445496
1700515542445789400,10.51178955078125,0.034011390060186386,0.05352865159511566,0.03995330631732941
1700515542455800300,10.52180029296875,0.07798071205615997,-0.3479577898979187,-0.09728843718767166
1700515542465810200,10.53181005859375,-0.01646534726023674,0.21032632887363434,-0.014245064929127693
1700515542475821300,10.5418212890625,0.13263359665870667,0.05895625054836273,0.3146896958351135
1700515542485831200,10.5518310546875,-0.0072696395218372345,0.3301008343696594,0.14759472012519836
1700515542495842600,10.561842529296875,0.14232143759727478,0.13219307363033295,0.6956256031990051
1700515542505853400,10.571853515625,0.08028247952461243,0.10522833466529846,0.04877050220966339
1700515542515863300,10.58186328125,-0.020627085119485855,0.2528492212295532,0.6040939092636108
1700515542525874400,10.59187451171875,0.12496937811374664,-0.06668133288621902,-0.2518206834793091
1700515542535885300,10.60188525390625,-0.14372946321964264,0.11406314373016357,-0.13052940368652344
1700515542545895400,10.6118955078125,-0.00882602110505104,-0.3237529397010803,0.23673012852668762
1700515542555906300,10.62190625,-0.07853426039218903,0.08332109451293945,-0.41256290674209595
1700515542565917200,10.631917236328125,0.08601368963718414,-0.4854220747947693,-0.036301665008068085
1700515542575927300,10.64192724609375,-0.06712312996387482,-0.21182595193386078,-0.8461782336235046
1700515542585938400,10.6519384765625,0.10087684541940689,-0.21998043358325958,-0.0658968836069107
1700515542595948500,10.661948486328125,-0.008121280930936337,-0.008705740794539452,-0.31637704372406006
1700515542605959400,10.67195947265625,0.021528545767068863,0.1176571473479271,0.15916436910629272
1700515542615970300,10.68197021484375,0.10074906796216965,0.02051062323153019,-0.16069352626800537
1700515542625980400,10.69198046875,-0.10787909477949142,0.04223122075200081,-0.15003682672977448
1700515542635991300,10.7019912109375,0.05503392219543457,-0.023539800196886063,0.19852913916110992
1700515542646002200,10.712002197265624,-0.03070654161274433,0.06424281746149063,-0.19460010528564453
1700515542656012300,10.72201220703125,0.15645429491996765,-0.08603936433792114,0.3783755600452423
1700515542666023200,10.732023193359375,-0.01127217710018158,0.14210949838161469,-0.19400423765182495
1700515542676034600,10.74203466796875,0.18936237692832947,0.10313493758440018,0.4033214747905731
1700515542686044400,10.75204443359375,0.022521330043673515,0.019392013549804688,-0.012214072048664093
1700515542696055300,10.76205517578125,0.040805794298648834,0.30139413475990295,0.3399159908294678
1700515542706066400,10.77206640625,0.08514808863401413,-0.02785644493997097,-0.22086182236671448
1700515542716076300,10.782076171875,-0.003857417032122612,0.09970416873693466,0.060316845774650574
1700515542726087400,10.79208740234375,0.022309880703687668,0.03573373705148697,0.11056637018918991
1700515542736098300,10.802098388671874,0.06631062924861908,0.36546769738197327,0.19777317345142365
1700515542746108400,10.8121083984375,0.1546528935432434,0.06519681960344315,0.180887833237648
1700515542756119300,10.822119384765625,-0.022131187841296196,0.12402603775262833,-0.09329339116811752
1700515542766130400,10.83213037109375,0.05396104231476784,0.04687155410647392,0.20536181330680847
1700515542776140500,10.842140625,-0.0451333150267601,-0.13442419469356537,-0.2942104637622833
1700515542786151400,10.8521513671875,0.11684378981590271,-0.20564571022987366,0.06403779983520508
1700515542796161500,10.86216162109375,-0.1299111247062683,-0.2905512750148773,-0.5575186610221863
1700515542806172400,10.87217236328125,0.07407349348068237,-0.16349875926971436,-0.19948655366897583
1700515542816183300,10.882183349609376,-0.09704791754484177,-0.48519131541252136,-0.5514973402023315
1700515542826193400,10.892193359375,-0.019069425761699677,-0.11934405565261841,-0.13838167488574982
1700515542836204300,10.902204345703124,0.027220040559768677,-0.2506727874279022,-0.4782732129096985
1700515542846215200,10.912215087890624,0.00522421533241868,0.12904515862464905,0.06858722865581512
1700515542856225300,10.922225341796874,0.07271750271320343,-0.09487023204565048,0.18797379732131958
1700515542866236400,10.932236328125,0.039808303117752075,0.5031881928443909,0.26741036772727966
1700515542876247300,10.942247314453125,0.12785880267620087,-0.011104395613074303,0.15901093184947968
1700515542886257400,10.95225732421875,0.017537327483296394,0.33839693665504456,0.2541300356388092
1700515542896268300,10.962268310546875,0.11095808446407318,-0.001498848432675004,0.3642061948776245
1700515542906279400,10.972279541015626,0.04726870730519295,0.42162033915519714,0.36193472146987915
1700515542916289300,10.982289306640626,0.1529967337846756,-0.0019074981100857258,0.25223779678344727
1700515542926300200,10.992300048828126,0.028505360707640648,0.2518562376499176,0.11579664051532745
1700515542936311300,11.002311279296874,0.10269010812044144,-0.006462953053414822,0.24645797908306122
1700515542946321200,11.012321044921874,0.03434548154473305,0.17826887965202332,-0.11585000157356262
1700515542956332500,11.02233251953125,0.11692717671394348,-0.11333101987838745,-0.07311931252479553
1700515542966343400,11.032343505859375,-0.04362918809056282,0.04905384033918381,-0.3245542645454407
1700515542976353300,11.042353271484375,0.06806299090385437,-0.04287608340382576,0.01807871088385582
1700515542986364400,11.052364501953125,0.03260696679353714,0.003052814630791545,-0.27750834822654724
1700515542996375300,11.062375244140625,0.061697475612163544,-0.1445172131061554,0.04181159660220146
1700515543006385400,11.072385498046875,-0.04361441731452942,-0.0739922821521759,-0.3079544007778168
1700515543016396300,11.082396240234376,0.06391843408346176,-0.09522486478090286,0.2568157911300659
1700515543026407200,11.0924072265625,0.00037429039366543293,0.06517554074525833,-0.12076196074485779
1700515543036417300,11.102417236328124,0.148672416806221,-0.1987391859292984,0.20285259187221527
1700515543046428400,11.112428466796874,-0.09548928588628769,0.1750943660736084,-0.21130992472171783
1700515543056439300,11.122439208984375,0.17291952669620514,-0.21215614676475525,0.1808224320411682
1700515543066449400,11.132449462890625,0.0033389274030923843,0.014497516676783562,-0.2659693658351898
1700515543076460300,11.142460205078125,0.1059822216629982,-0.07575488090515137,0.16289038956165314
1700515543086471400,11.152471435546875,-0.036664899438619614,-0.19177158176898956,-0.5426232814788818
1700515543096481300,11.162481201171875,0.08389347046613693,-0.013321153819561005,0.025659630075097084
1700515543106492200,11.1724921875,-0.0036168864462524652,-0.3776753544807434,-0.4315890371799469
1700515543116503300,11.18250341796875,0.06574967503547668,0.09101063758134842,-0.07993165403604507
1700515543126513200,11.19251318359375,0.006378971505910158,-0.16494539380073547,-0.26908281445503235
1700515543136524500,11.202524658203124,0.08436298370361328,0.07786645740270615,0.15289823710918427
1700515543146535400,11.212535400390625,-0.02467258647084236,0.058140188455581665,-0.16557611525058746
1700515543156545300,11.222545166015625,0.029204759746789932,0.11996254324913025,0.19155246019363403
1700515543166556400,11.232556396484375,-0.0026551694609224796,-0.07013069838285446,-0.3703169822692871
1700515543176567300,11.2425673828125,0.07863382995128632,0.00744425505399704,0.0944935604929924
1700515543186577400,11.252577392578125,-0.0019933523144572973,-0.019942481070756912,0.03597894310951233
1700515543196588300,11.26258837890625,0.05817331746220589,0.2613309919834137,0.3964740037918091
1700515543206599200,11.27259912109375,0.15633654594421387,0.010384324938058853,0.15017317235469818
1700515543216609300,11.282609375,0.07500013709068298,0.2938362658023834,0.23705187439918518
1700515543226620400,11.292620361328124,0.0021049880888313055,0.08605296164751053,0.20383098721504211
1700515543236631300,11.30263134765625,0.05880901217460632,0.3458797335624695,0.21685677766799927
1700515543246641700,11.3126416015625,0.07609590888023376,-0.20939823985099792,-0.06543336063623428
1700515543256652500,11.322652587890625,-0.07804598659276962,-0.028953373432159424,-0.20595239102840424
1700515543266663400,11.332663330078125,-0.0478534922003746,-0.13411544263362885,-0.06772967427968979
1700515543276673500,11.342673583984375,-0.016918746754527092,0.014258306473493576,-0.269538938999176
1700515543286684400,11.352684326171875,0.0827740952372551,-0.2828979194164276,0.06355680525302887
1700515543296695800,11.36269580078125,-0.051663871854543686,0.20688004791736603,-0.13714967668056488
1700515543306705700,11.37270556640625,0.1140921488404274,-0.03787774592638016,0.3407513499259949
1700515543316716500,11.382716552734376,0.03844665363430977,0.5247419476509094,0.2130911499261856
1700515543326727700,11.392727783203124,0.12921877205371857,-0.11771224439144135,0.13849838078022003
1700515543336737500,11.402737548828124,0.023908069357275963,0.18017829954624176,-0.12649226188659668
1700515543346748700,11.412748779296875,0.0023155235685408115,-0.049738045781850815,0.1739218831062317
1700515543356759600,11.422759521484375,0.010635505430400372,0.2208830714225769,0.08630254864692688
1700515543366770700,11.432770751953125,0.11465264111757278,-0.18159382045269012,-0.07114918529987335
1700515543376780800,11.44278076171875,-0.05217575654387474,0.11845628172159195,-0.2185591459274292
1700515543386791700,11.452791748046875,-0.008875031024217606,0.028965139761567116,0.21968454122543335
1700515543396802600,11.462802490234376,0.11604959517717361,0.577468991279602,0.23214572668075562
1700515543406812700,11.472812744140626,0.0026455605402588844,0.13765722513198853,0.307397723197937
1700515543416823600,11.482823486328124,0.08942998945713043,0.21270084381103516,0.22003114223480225
1700515543426834700,11.492834716796875,0.005577362608164549,0.14153793454170227,0.21622425317764282
1700515543436844500,11.502844482421875,0.0790230855345726,0.37668997049331665,0.34846246242523193
1700515543446855400,11.51285546875,0.040275782346725464,-0.12850366532802582,-0.2658275365829468
1700515543456866800,11.52286669921875,0.02148478478193283,0.018996836617588997,-0.06709257513284683
1700515543466876700,11.532876708984375,-0.07691478729248047,-0.3297807574272156,-0.25147372484207153
1700515543476887800,11.5428876953125,0.13596391677856445,-0.011460564099252224,-0.2257305532693863
1700515543486898700,11.552898681640626,-0.04188108816742897,-0.13069480657577515,-0.4619523286819458
1700515543496908500,11.562908447265626,0.037704817950725555,-0.14081375300884247,0.05690415948629379
1700515543506919700,11.572919677734374,0.008037587627768517,0.09023909270763397,0.016498269513249397
1700515543516930600,11.5829306640625,0.10523471236228943,0.124269500374794,0.3753754794597626
1700515543526940700,11.592940673828124,-0.06570064276456833,-0.02518603950738907,-0.11572352051734924
1700515543536951600,11.60295166015625,0.08487927913665771,0.04507081210613251,0.292371541261673
1700515543546962700,11.612962646484375,-0.0983603373169899,-0.11665624380111694,-0.14862386882305145
1700515543556972800,11.622972900390625,0.027164027094841003,-0.03238716721534729,0.181839257478714
1700515543566983700,11.632983642578125,-0.10056435316801071,-0.14077042043209076,-0.3596850633621216
1700515543576994600,11.64299462890625,0.08048559725284576,-0.14854446053504944,0.16253606975078583
1700515543587005700,11.653005615234376,-0.06114976108074188,0.12680009007453918,-0.030373036861419678
1700515543597015600,11.663015625,0.17020836472511292,-0.07372155785560608,0.49763593077659607
1700515543607026700,11.673026611328124,-0.031742386519908905,0.3176298141479492,0.05542109161615372
1700515543617037600,11.68303759765625,0.058041296899318695,0.0959075391292572,0.5123809576034546
1700515543627047400,11.69304736328125,0.017411867156624794,0.22009071707725525,0.006384155713021755
1700515543637058800,11.703058837890625,0.1524445116519928,-0.1755668669939041,0.18242895603179932
1700515543647069700,11.713069580078125,-0.11087480932474136,0.036176517605781555,-0.35792678594589233
1700515543657079800,11.723079833984375,0.044887084513902664,-0.3506995439529419,-0.17875196039676666
1700515543667090700,11.733090576171875,-0.10964164137840271,-0.2368950992822647,-0.5858248472213745
1700515543677101600,11.7431015625,-0.0010405951179564,-0.5640066266059875,-0.49310559034347534
1700515543687111700,11.753111572265626,-0.2301301658153534,-0.31061026453971863,-0.8050108551979065
1700515543697122600,11.76312255859375,-0.001260500866919756,-0.3481706976890564,-0.3885270953178406
1700515543707133400,11.773133544921874,-0.13312725722789764,0.033017076551914215,-0.4856383502483368
1700515543717143600,11.7831435546875,0.07355161756277084,-0.000054857577197253704,0.06037944182753563
1700515543727154700,11.79315478515625,-0.025552144274115562,0.5082493424415588,-0.04526051878929138
1700515543737165600,11.80316552734375,0.07276696711778641,0.35395461320877075,0.4056110680103302
1700515543747175700,11.81317578125,0.023950699716806412,0.725297212600708,0.6804171204566956
1700515543757186600,11.8231865234375,0.07412464916706085,0.39802858233451843,0.414565771818161
1700515543767197700,11.83319775390625,-0.05134768411517143,0.31454962491989136,0.3511856198310852
1700515543777208600,11.84320849609375,-0.06547122448682785,0.036473795771598816,0.3179749548435211
1700515543787218700,11.85321875,-0.03625229001045227,0.26969969272613525,0.290958046913147
1700515543797229600,11.8632294921875,0.04090587794780731,-0.21121129393577576,-0.2697305679321289
1700515543807240700,11.87324072265625,0.05145715922117233,-0.12074349075555801,-0.21148774027824402
1700515543817250800,11.883250732421875,-0.19274406135082245,-0.12121620029211044,-0.25531643629074097
1700515543827261700,11.89326171875,0.06071333587169647,-0.20228390395641327,-0.25760775804519653
1700515543837272600,11.9032724609375,0.00693079549819231,-0.09948401153087616,-0.6540118455886841
1700515543847282700,11.91328271484375,-0.06083357334136963,-0.16085264086723328,-0.09199877828359604
1700515543857293600,11.92329345703125,-0.010274263098835945,-0.16437681019306183,-0.1657283902168274
1700515543867304400,11.933304443359376,-0.02704804204404354,0.18423108756542206,0.26621773838996887
1700515543877315600,11.943315673828126,-0.002921932376921177,0.06607115268707275,-0.04052754491567612
1700515543887325400,11.953325439453126,0.013135162182152271,0.19064927101135254,0.37620142102241516
1700515543897336800,11.9633369140625,-0.11628541350364685,0.19878336787223816,0.09521635621786118
1700515543907347700,11.97334765625,0.005728579126298428,0.14882159233093262,0.24596372246742249
1700515543917357600,11.983357666015625,-0.08642318099737167,-0.10012618452310562,-0.49291834235191345
1700515543927368700,11.99336865234375,-0.023361356928944588,0.02658824995160103,-0.13321498036384583
1700515543937379600,12.003379638671875,-0.2298833727836609,-0.3705146312713623,-0.42671316862106323
1700515543947389700,12.0133896484375,0.07470329850912094,-0.27676644921302795,-0.09921302646398544
1700515543957400600,12.023400634765625,-0.04889454320073128,-0.08811372518539429,-0.5089632868766785
1700515543967411500,12.033411376953126,0.031335704028606415,-0.08749169856309891,0.21953684091567993
1700515543977422600,12.043422607421874,-0.0029500997625291348,0.12679903209209442,0.19179335236549377
1700515543987432700,12.0534326171875,0.15796752274036407,0.1071147546172142,0.4607990086078644
1700515543997443600,12.063443603515625,-0.034298330545425415,0.19452448189258575,0.05094945430755615
1700515544007454700,12.073454833984375,0.07197306305170059,0.13049544394016266,0.4742819666862488
1700515544017464600,12.083464599609375,-0.04470641165971756,0.32397645711898804,0.2672558128833771
1700515544027475700,12.093475830078125,0.12818868458271027,0.027537876740098,0.3133202791213989
1700515544037486600,12.103486572265625,-0.13462083041667938,0.010368477553129196,-0.06587257981300354
1700515544047496400,12.113496337890625,0.028502274304628372,0.03701641783118248,0.1238911971449852
1700515544057507600,12.123507568359376,-0.07366297394037247,0.17839938402175903,-0.02540481835603714
1700515544067518700,12.133518798828124,-0.06196455657482147,-0.216032475233078,-0.18083937466144562
1700515544077528800,12.14352880859375,-0.07910706102848053,-0.1927918642759323,-0.22120384871959686
1700515544087539700,12.153539794921874,-0.03848172724246979,-0.2034292221069336,-0.25755780935287476
1700515544097550600,12.163550537109375,-0.018609752878546715,0.1292954683303833,-0.00400942750275135
1700515544107561500,12.1735615234375,-0.07504988461732864,-0.1678362786769867,-0.2858264148235321
