time,seconds_elapsed,z,y,x
1700516798647540700,0.019540771484375,-0.00436012726277113,0.05342300981283188,0.002067412016913295
1700516798657550800,0.02955078125,0.0017419736832380295,-0.04026539623737335,0.09386444091796875
1700516798667560700,0.039560791015625,0.012116850353777409,0.021816348657011986,0.015419702976942062
1700516798677570800,0.04957080078125,-0.009064335376024246,-0.046423956751823425,-0.16370584070682526
1700516798687581700,0.059581787109375,-0.021627796813845634,0.02762097492814064,-0.00043036683928221464
1700516798697591800,0.069591796875,0.014341921545565128,-0.06656970828771591,0.09242793172597885
1700516798707601700,0.0796015625,-0.03092862106859684,0.05245388671755791,-0.06016293913125992
1700516798717611800,0.08961181640625,0.0034402713645249605,-0.0602998249232769,0.10511709749698639
1700516798727622000,0.099621826171875,-0.02136973664164543,0.009981261566281319,-0.11996688693761826
1700516798737631700,0.1096318359375,-0.0008785768295638263,0.00273693073540926,0.05309091508388519
1700516798747641900,0.119641845703125,-0.016993897035717964,-0.02823003940284252,0.06755587458610535
1700516798757651700,0.129651611328125,0.008953015320003033,-0.000431432097684592,0.008793225511908531
1700516798767661800,0.139661865234375,-0.01962323673069477,-0.09687807410955429,-0.15564152598381042
1700516798777672000,0.149671875,-0.004285292699933052,-0.0012982910266146064,0.009631854481995106
1700516798787681800,0.159681884765625,0.01127768773585558,-0.07889801263809204,0.083861343562603
1700516798797692000,0.16969189453125,-0.015423697419464588,0.06923313438892365,-0.029956035315990448
1700516798807701800,0.17970166015625,0.007003847509622574,-0.0766439139842987,0.08981776982545853
1700516798817711600,0.189711669921875,-0.018548917025327682,0.012874785810709,-0.13281716406345367
1700516798827721500,0.199721435546875,0.006419016979634762,-0.008326373063027859,0.04987381771206856
1700516798837731600,0.209731689453125,-0.00003834952076431364,-0.00806112214922905,0.07670889049768448
1700516798847741700,0.21974169921875,0.00839907769113779,0.024580176919698715,0.009701096452772617
1700516798857751600,0.22975146484375,-0.0024530377704650164,0.00691915862262249,-0.1256047934293747
1700516798867761700,0.23976171875,0.002966228872537613,0.007379619404673576,0.04489237442612648
1700516798877771500,0.249771484375,0.00996208656579256,-0.020371850579977036,0.05435724928975105
1700516798887781600,0.25978173828125,-0.019051454961299896,0.09173977375030518,-0.04278501495718956
1700516798897791700,0.269791748046875,0.005046690348535776,-0.05850538611412048,0.051473043859004974
1700516798907801600,0.279801513671875,-0.008238222450017929,0.029258286580443382,-0.11494815349578857
1700516798917811700,0.289811767578125,0.01107342354953289,0.002585130510851741,0.06706371903419495
1700516798927821600,0.299821533203125,0.0013704627053812146,0.031987495720386505,0.06671964377164841
1700516798937831700,0.309831787109375,-0.00009853696246864274,0.019590478390455246,-0.002650377806276083
1700516798947841500,0.319841552734375,0.0059929112903773785,-0.0014703312190249562,-0.14073394238948822
1700516798957851600,0.3298515625,0.0006319681415334344,0.04527267441153526,0.04751238971948624
1700516798967861800,0.33986181640625,0.015063637867569923,-0.032343026250600815,0.03273637592792511
1700516798977872600,0.34987255859375,-0.016891898587346077,0.06774229556322098,-0.043105125427246094
1700516798987882500,0.359882568359375,0.016115587204694748,-0.05325070396065712,0.08687524497509003
1700516798997892600,0.369892578125,-0.007931159809231758,0.023978304117918015,-0.1632501780986786
1700516799007902700,0.37990283203125,-0.000023169501218944788,-0.03501790389418602,0.053826745599508286
1700516799017912600,0.38991259765625,0.001540904981084168,-0.013763216324150562,0.05681055039167404
1700516799027922700,0.399922607421875,0.020201673731207848,0.016636766493320465,-0.012208462692797184
1700516799037932500,0.4099326171875,0.002549976808950305,-0.010044111870229244,-0.11848323792219162
1700516799047942700,0.419942626953125,-0.013106747530400753,-0.016350477933883667,0.02521480992436409
1700516799057952800,0.429952880859375,0.009781258180737495,-0.05276121571660042,0.05071830376982689
1700516799067962600,0.439962646484375,-0.021685853600502014,0.05004825443029404,-0.022355372086167336
1700516799077972700,0.44997265625,-0.0007531419396400452,-0.058336809277534485,0.1095973327755928
1700516799087982600,0.459982666015625,-0.0037878139410167933,0.0781904086470604,-0.11598598957061768
1700516799097992700,0.46999267578125,-0.006307164207100868,0.029697442427277565,0.03362054377794266
1700516799108002600,0.48000244140625,0.007582552265375853,-0.014008493162691593,0.07772302627563477
1700516799118012700,0.4900126953125,0.007668838836252689,0.032655682414770126,-0.016742760315537453
1700516799128022800,0.500022705078125,-0.009892311878502369,-0.03542803227901459,-0.1487109214067459
1700516799138032600,0.51003271484375,-0.009225722402334213,0.013273727148771286,-0.00890987180173397
1700516799148042800,0.520042724609375,0.023091204464435577,-0.047805339097976685,0.07479168474674225
1700516799158052600,0.530052490234375,0.0054696002043783665,0.03957856819033623,-0.04291098192334175
1700516799168062700,0.540062744140625,0.0026043052785098553,-0.05597884580492973,0.09863709658384323
1700516799178072600,0.550072509765625,-0.0024530377704650164,0.021408086642622948,-0.1368822157382965
1700516799188082700,0.560082763671875,-0.001987250754609704,0.011845740489661694,0.009542372077703476
1700516799198092800,0.5700927734375,0.008656871505081654,-0.03026868961751461,0.0826386883854866
1700516799208102700,0.5801025390625,0.013726464472711086,0.028304608538746834,0.013493970967829227
1700516799218112800,0.59011279296875,-0.003126551164314151,-0.030916903167963028,-0.14817482233047485
1700516799228122600,0.60012255859375,-0.016519054770469666,0.004147340543568134,-0.028544293716549873
1700516799238132700,0.6101328125,0.020904216915369034,-0.0492173470556736,0.08356413245201111
1700516799248142600,0.620142578125,-0.003822967642918229,0.04147926717996597,-0.04823970049619675
1700516799258152700,0.630152587890625,0.007248059380799532,-0.06545224040746689,0.10000089555978775
1700516799268162800,0.640162841796875,-0.005089567042887211,0.013087039813399315,-0.1247752234339714
1700516799278172700,0.650172607421875,-0.0017736653098836541,0.016698019579052925,-0.007258978206664324
1700516799288182800,0.660182861328125,0.0033164345659315586,-0.020919928327202797,0.08067380636930466
1700516799298192600,0.670192626953125,0.004250671248883009,0.01671852543950081,0.01853293739259243
1700516799308202800,0.68020263671875,0.0020663465838879347,-0.04987488314509392,-0.13287869095802307
1700516799318212900,0.690212890625,-0.013896108604967594,0.01956251636147499,-0.04778723046183586
1700516799328222700,0.70022265625,0.025777535513043404,-0.04844209924340248,0.09513450413942337
1700516799338232800,0.71023291015625,0.007404386531561613,0.020313527435064316,-0.04751984775066376
1700516799348242700,0.72024267578125,0.017197629436850548,-0.03350656107068062,0.09504395723342896
1700516799358252800,0.730252685546875,0.004798749927431345,0.01685701124370098,-0.1219506710767746
1700516799368262700,0.7402626953125,-0.010457434691488743,0.022731676697731018,-0.053291451185941696
1700516799378273800,0.750273681640625,0.01528707705438137,-0.06203540787100792,0.07870040088891983
1700516799388283600,0.76028369140625,0.006095975637435913,0.03357287496328354,0.02316124550998211
1700516799398293800,0.770293701171875,-0.001603222917765379,-0.031745146960020065,-0.13880528509616852
1700516799408303600,0.7803037109375,-0.020300477743148804,0.01347452960908413,-0.08675460517406464
1700516799418313700,0.790313720703125,0.03019784949719906,-0.05782414972782135,0.08505337685346603
1700516799428323800,0.80032373046875,0.0017654094845056534,0.007989482954144478,-0.0547785609960556
1700516799438333700,0.810333740234375,0.01576884277164936,-0.021585186943411827,0.08931150287389755
1700516799448343800,0.82034375,-0.0025814019609242678,0.009986854158341885,-0.12461329996585846
1700516799458353700,0.830353759765625,-0.01329742930829525,0.026143454015254974,-0.08056674897670746
1700516799468363800,0.84036376953125,0.008803611621260643,-0.05609655752778053,0.07824873179197311
1700516799478374000,0.850373779296875,-0.00010120012302650139,0.03862568736076355,0.045641254633665085
1700516799488383700,0.8603837890625,-0.00006578007742064074,-0.028436968103051186,-0.11870507895946503
1700516799498393900,0.870393798828125,-0.026645459234714508,0.029109150171279907,-0.1055101826786995
1700516799508403700,0.88040380859375,0.027175961062312126,-0.064593106508255,0.09597020596265793
1700516799518413800,0.890413818359375,0.0010013486025854945,0.010441455990076065,-0.02955123409628868
1700516799528423700,0.900423583984375,0.020971328020095825,0.007814513519406319,0.10711926221847534
1700516799538433800,0.910433837890625,0.0034051176626235247,0.02327656000852585,-0.10214314609766006
1700516799548444000,0.92044384765625,-0.011226288974285126,0.050515104085206985,-0.05531598627567291
1700516799558453200,0.930453369140625,0.015195731073617935,-0.02063310705125332,0.13133591413497925
1700516799568463400,0.94046337890625,0.0021497036796063185,0.05062802508473396,0.08206770569086075
1700516799578473200,0.95047314453125,0.004325506277382374,-0.025848375633358955,-0.0972951278090477
1700516799588483300,0.9604833984375,-0.022288527339696884,0.03363945335149765,-0.08645712584257126
1700516799598493400,0.970493408203125,0.03352893143892288,-0.05787821486592293,0.13496899604797363
1700516799608503300,0.98050341796875,0.007296528667211533,0.01329742930829525,-0.027483822777867317
1700516799618513400,0.990513427734375,0.01997317560017109,-0.022893331944942474,0.09954443573951721
1700516799628523300,1.000523193359375,0.005386243108659983,-0.000150202278746292,-0.09139356017112732
1700516799638533400,1.010533447265625,-0.014110492542386055,0.028684109449386597,-0.06228388100862503
1700516799648543200,1.020543212890625,0.016655409708619118,-0.04705486074090004,0.10098520666360855
1700516799658553300,1.03055322265625,0.000985103310085833,0.01612570695579052,0.0457397922873497
1700516799668563500,1.0405634765625,0.0048980857245624065,-0.03734923526644707,-0.11242508143186569
1700516799678573300,1.0505732421875,-0.0227428637444973,0.016559269279241562,-0.10312824696302414
1700516799688583400,1.06058349609375,0.029894782230257988,-0.06939159333705902,0.1221112608909607
1700516799698593300,1.07059326171875,0.005280515644699335,0.009078715927898884,-0.041310686618089676
1700516799708603400,1.080603271484375,0.01894492842257023,-0.0132686672732234,0.10058733075857162
1700516799718613500,1.090613525390625,0.006881874520331621,0.004692489746958017,-0.1162259429693222
1700516799728623400,1.100623291015625,-0.019389409571886063,0.006698116194456816,-0.07074128091335297
1700516799738633500,1.110633544921875,0.022405706346035004,-0.058348529040813446,0.11227327585220337
1700516799748644400,1.120644287109375,0.008302404545247555,0.011725098825991154,0.046550724655389786
1700516799758654500,1.130654541015625,-0.008286425843834877,-0.030822627246379852,-0.12766101956367493
1700516799768664300,1.140664306640625,-0.019419770687818527,0.00891067087650299,-0.07466624677181244
1700516799778674400,1.15067431640625,0.030616233125329018,-0.05846996605396271,0.11997194588184357
1700516799788684300,1.160684326171875,0.008655539713799953,0.029520075768232346,-0.03664083406329155
1700516799798694400,1.1706943359375,0.012223909609019756,-0.039194006472826004,0.12558509409427643
1700516799808704300,1.180704345703125,0.010265421122312546,0.038773227483034134,-0.11402750015258789
1700516799818714400,1.19071435546875,-0.014916631393134594,0.028385568410158157,-0.03575586527585983
1700516799828724500,1.200724365234375,0.012678244151175022,-0.023205187171697617,0.1123553067445755
1700516799838734300,1.210734375,0.01464925054460764,0.027964789420366287,0.06268202513456345
1700516799848744400,1.220744384765625,-0.0016189356101676822,-0.012547483667731285,-0.14228497445583344
1700516799858754300,1.23075439453125,-0.016709737479686737,0.02690378576517105,-0.05459214001893997
1700516799868764400,1.240764404296875,0.029272934421896935,-0.05437455698847771,0.12050218135118484
1700516799878774500,1.2507744140625,-0.0017797905020415783,0.0751165896654129,-0.03491510823369026
1700516799888784400,1.260784423828125,0.007510113995522261,-0.06150943413376808,0.12098181247711182
1700516799898794500,1.27079443359375,-0.007399326656013727,0.03819398954510689,-0.13503398001194
1700516799908804400,1.280804443359375,-0.0005182511522434652,0.030646326020359993,-0.002086320426315069
1700516799918814500,1.290814453125,0.009324525482952595,-0.002460494404658675,0.10361800342798233
1700516799928824300,1.30082421875,0.014604508876800537,0.02185096964240074,0.03506051376461983
1700516799938834400,1.31083447265625,0.0015683355741202831,-0.02110874652862549,-0.16624143719673157
1700516799948844500,1.320844482421875,-0.0102566322311759,0.018192851915955544,-0.015565377660095692
1700516799958854400,1.3308544921875,0.01637045107781887,-0.05758340284228325,0.09594570100307465
1700516799968864500,1.340864501953125,-0.00032890037982724607,0.09736277163028717,-0.033664751797914505
1700516799978874400,1.350874267578125,0.005883455276489258,-0.10351201146841049,0.10219001770019531
1700516799988884500,1.360884521484375,-0.009647301398217678,0.0190178994089365,-0.1465817242860794
1700516799998894300,1.370894287109375,-0.00034887410583905876,-0.029406890273094177,0.03256326913833618
1700516800008904200,1.380904296875,-0.0013720606220886111,0.006207562051713467,0.08948381245136261
1700516800018914300,1.390914306640625,0.020901286974549294,0.003014432033523917,0.023547936230897903
1700516800028924200,1.400924072265625,-0.013611682690680027,-0.03707679361104965,-0.16991180181503296
1700516800038934300,1.410934326171875,-0.002746518002822995,-0.007248591631650925,0.015666311606764793
1700516800048944000,1.420944091796875,0.003784351982176304,-0.06234753131866455,0.07914302498102188
1700516800058954200,1.430954345703125,-0.01312192715704441,0.1012541800737381,-0.02732083760201931
1700516800068964400,1.44096435546875,0.008315454237163067,-0.10848946124315262,0.09174030274152756
1700516800078974200,1.45097412109375,-0.020247215405106544,0.02726517617702484,-0.1577451527118683
1700516800088984300,1.460984375,0.0070613715797662735,-0.028015920892357826,0.062188271433115005
1700516800098995500,1.470995361328125,-0.005631786771118641,0.01690920814871788,0.08556497097015381
1700516800109005600,1.481005615234375,0.01944080926477909,0.019965719431638718,0.006521016359329224
1700516800119015200,1.49101513671875,-0.013796505518257618,-0.009411345236003399,-0.17653189599514008
1700516800129025300,1.501025390625,0.0027201527263969183,-0.012503807432949543,0.051473576575517654
1700516800139035100,1.51103515625,-0.001981658162549138,-0.03367407247424126,0.059425774961709976
1700516800149045200,1.521045166015625,-0.0067226174287498,0.12244521826505661,-0.015930762514472008
1700516800159055400,1.531055419921875,0.0006388923502527177,-0.09539762884378433,0.08581210672855377
1700516800169065200,1.541065185546875,-0.014096910133957863,0.04791346192359924,-0.17869597673416138
1700516800179075300,1.551075439453125,0.008619320578873158,-0.03893301635980606,0.07448222488164902
1700516800189085200,1.561085205078125,-0.004576908424496651,0.03431776165962219,0.08285227417945862
1700516800199095300,1.57109521484375,0.017714016139507294,0.03039518930017948,-0.01094772294163704
1700516800209105200,1.581105224609375,-0.017800303176045418,0.002584597794339061,-0.18480180203914642
1700516800219115300,1.591115234375,0.0016479641199111938,-0.016870327293872833,0.09127958118915558
1700516800229125400,1.60112548828125,-0.008747684769332409,0.004196609370410442,0.06369002908468246
1700516800239135200,1.61113525390625,0.004546815063804388,0.13607022166252136,0.01913880743086338
1700516800249145300,1.621145263671875,0.004114051349461079,-0.06931275874376297,0.024288561195135117
1700516800259155200,1.6311552734375,-0.01883041299879551,0.02883138135075569,-0.147004634141922
1700516800269165300,1.641165283203125,0.014304370619356632,-0.04464256763458252,0.09017623215913773
1700516800279175200,1.651175048828125,0.01145878341048956,0.025434520095586777,0.08303176611661911
1700516800289185300,1.661185302734375,0.012684902176260948,0.02514583244919777,-0.04062572494149208
1700516800299195400,1.6711953125,-0.022435002028942108,0.004965463653206825,-0.1722593903541565
1700516800309205200,1.681205322265625,0.0092347776517272,-0.0501427948474884,0.10401827841997147
1700516800319215400,1.69121533203125,-0.006940464023500681,0.014801849611103535,0.039800409227609634
1700516800329225200,1.70122509765625,0.017669275403022766,0.09808634966611862,0.02671203762292862
1700516800339235300,1.7112353515625,0.0010998855577781796,-0.058579158037900925,-0.005625927820801735
1700516800349245200,1.7212451171875,-0.013964285142719746,0.041496843099594116,-0.1392151415348053
1700516800359255300,1.73125537109375,0.01581704616546631,-0.060019660741090775,0.09466898441314697
1700516800369265400,1.741265380859375,-0.004464257042855024,0.02533039078116417,0.06622109562158585
1700516800379276300,1.7512763671875,0.01221725158393383,0.0044168527238070965,-0.05853681266307831
1700516800389286400,1.761286376953125,-0.02598739229142666,0.02605476975440979,-0.16652800142765045
1700516800399296300,1.771296142578125,0.021339377388358116,-0.045095574110746384,0.12171152234077454
1700516800409306400,1.781306396484375,-0.0016945693641901016,0.0282747820019722,0.014402109198272228
1700516800419316200,1.791316162109375,0.011093397624790668,0.0875018835067749,0.030475351959466934
1700516800429326300,1.801326416015625,0.002983273006975651,-0.050455715507268906,-0.023430224508047104
1700516800439336200,1.811336181640625,-0.02093670703470707,0.040459807962179184,-0.12489639222621918
1700516800449346300,1.82134619140625,0.015674833208322525,-0.05319344624876976,0.10275061428546906
1700516800459356400,1.8313564453125,-0.0031345405150204897,0.03454093262553215,0.062484417110681534
1700516800469366300,1.8413662109375,0.007812116760760546,0.003162237349897623,-0.0643337145447731
1700516800479376400,1.85137646484375,-0.023075757548213005,0.03891783952713013,-0.14634522795677185
1700516800489386200,1.86138623046875,0.021101556718349457,-0.03478514403104782,0.12804824113845825
1700516800499396400,1.871396240234375,-0.0011054781498387456,0.04405294358730316,0.004190750420093536
1700516800509406200,1.88140625,0.023687485605478287,0.06573906540870667,0.06489484012126923
1700516800519416300,1.891416259765625,0.005364139098674059,-0.0028453213162720203,-0.053152699023485184
1700516800529426400,1.901426513671875,-0.009211075492203236,0.045339785516262054,-0.09580375999212265
1700516800539436300,1.911436279296875,0.009718406945466995,-0.0445280522108078,0.08761986345052719
1700516800549446400,1.9214462890625,0.0028338697738945484,0.028654813766479492,0.06197149306535721
1700516800559456500,1.93145654296875,0.009919742122292519,-0.0036639769095927477,-0.06438591331243515
1700516800569466600,1.941466552734375,-0.025714151561260223,0.04779042676091194,-0.13527952134609222
1700516800579476500,1.9514765625,0.02267308719456196,-0.044866807758808136,0.13340651988983154
1700516800589486600,1.961486572265625,0.009130114689469337,0.04524657502770424,-0.0012713931500911713
1700516800599496700,1.97149658203125,0.02581721544265747,0.07408434897661209,0.059970926493406296
1700516800609507600,1.981507568359375,0.00321869645267725,-0.012165053747594357,-0.03291187807917595
1700516800619517400,1.991517333984375,-0.00996128749102354,0.06584399193525314,-0.10676159709692001
1700516800629527600,2.001527587890625,0.02166002243757248,-0.047326236963272095,0.1093941330909729
1700516800639537700,2.01153759765625,-0.0005864280392415822,0.03413186967372894,0.05226826295256615
1700516800649547500,2.021547607421875,0.0107107013463974,-0.00896686315536499,-0.06629753112792969
1700516800659557600,2.0315576171875,-0.0224967859685421,0.04079856351017952,-0.1391134113073349
1700516800669567500,2.0415673828125,0.018802182748913765,-0.051240283995866776,0.12674009799957275
1700516800679577600,2.05157763671875,-0.006765228230506182,0.05281554535031319,-0.0027350664604455233
1700516800689587700,2.061587646484375,0.022908776998519897,0.06902327388525009,0.05108369141817093
1700516800699597600,2.07159765625,-0.002999251941218972,-0.03290468826889992,-0.03690635412931442
1700516800709607700,2.081607666015625,-0.01034531556069851,0.04420820623636246,-0.12754970788955688
1700516800719617500,2.091617431640625,0.017309747636318207,-0.06274194270372391,0.09055839478969574
1700516800729627600,2.101627685546875,-0.007217965554445982,0.03157790005207062,0.040177248418331146
1700516800739637500,2.111637451171875,0.011283813044428825,0.009816411882638931,-0.06196616590023041
1700516800749647600,2.121647705078125,-0.023752734065055847,0.0389532595872879,-0.15831321477890015
1700516800759657700,2.13165771484375,0.01907515712082386,-0.04228274151682854,0.1047181561589241
1700516800769667600,2.14166748046875,-0.004012318328022957,0.043540552258491516,0.005498095881193876
1700516800779677700,2.151677734375,0.028298748657107353,0.07106778770685196,0.055688563734292984
1700516800789688600,2.1616884765625,0.0021044297609478235,-0.01727565936744213,-0.04639839008450508
1700516800799698700,2.17169873046875,-0.009458216838538647,0.04562421143054962,-0.13227015733718872
1700516800809708500,2.18170849609375,0.017422134056687355,-0.05524035170674324,0.07836031913757324
1700516800819718700,2.19171875,0.0020511667244136333,0.018636267632246017,0.05269357189536095
1700516800829728500,2.201728515625,0.011623899452388287,0.01161670871078968,-0.04303348809480667
1700516800839738600,2.211738525390625,-0.02611149474978447,0.0369015596807003,-0.16382275521755219
1700516800849748700,2.221748779296875,0.016657007858157158,-0.03412414714694023,0.10895604640245438
1700516800859758600,2.231758544921875,-0.008040083572268486,0.030912108719348907,0.03019998036324978
1700516800869768700,2.241768798828125,0.025300562381744385,0.08548826724290848,0.049375537782907486
1700516800879778600,2.251778564453125,0.0027350664604455233,-0.03592444583773613,-0.02148957923054695
1700516800889788700,2.26178857421875,-0.0018122810870409012,0.02864176407456398,-0.11721637099981308
1700516800899798500,2.271798583984375,0.01775769144296646,-0.06914365291595459,0.09171260893344879
1700516800909808600,2.28180859375,-0.000580036488827318,0.0076304893009364605,0.049433328211307526
1700516800919818800,2.29181884765625,0.021037373691797256,0.004802212119102478,-0.02382889948785305
1700516800929828600,2.30182861328125,-0.024170050397515297,0.013035374693572521,-0.15798750519752502
1700516800939838700,2.311838623046875,0.011295530945062637,-0.020199811086058617,0.0945344939827919
1700516800949849600,2.321849609375,-0.012680907733738422,-0.0009590042755007744,0.01998702436685562
1700516800959859700,2.331859619140625,0.00872105360031128,0.08277450501918793,0.015094530768692493
1700516800969869600,2.34186962890625,-0.004427238833159208,-0.08199180662631989,0.02918185293674469
1700516800979879700,2.351879638671875,-0.014028999954462051,0.0360884964466095,-0.16140833497047424
1700516800989889500,2.3618896484375,0.008889631368219852,-0.06041727215051651,0.08369223028421402
1700516800999899600,2.371899658203125,-0.014846323989331722,0.011726963333785534,0.04596296325325966
1700516801009909500,2.381909423828125,0.02056705951690674,0.008578307926654816,-0.01085850689560175
1700516801019919600,2.391919677734375,-0.026320820674300194,0.0100238723680377,-0.16977305710315704
1700516801029929700,2.4019296875,0.011351724155247211,-0.01666952483355999,0.06947015225887299
1700516801039939600,2.411939697265625,-0.018390724435448647,-0.017675666138529778,0.039864059537649155
1700516801049949700,2.42194970703125,-0.007543936371803284,0.09935774654150009,0.020858144387602806
1700516801059959600,2.43195947265625,-0.0022056300658732653,-0.07945115119218826,0.056045159697532654
1700516801069969700,2.4419697265625,-0.01757846027612686,0.041554633527994156,-0.15279939770698547
1700516801079979800,2.451979736328125,0.002119077369570732,-0.03917643055319786,0.0707245022058487
1700516801089990700,2.46199072265625,-0.011960522271692753,0.021274128928780556,0.06683629006147385
1700516801100000500,2.47200048828125,0.02172340452671051,0.01762533187866211,0.007755391299724579
1700516801110010600,2.4820107421875,-0.020171314477920532,0.008351673372089863,-0.16175641119480133
1700516801120020700,2.492020751953125,0.0025007082149386406,-0.002326271263882518,0.049793388694524765
1700516801130030600,2.502030517578125,-0.00449941074475646,-0.03952503949403763,0.06717797368764877
1700516801140040700,2.512040771484375,-0.007954861968755722,0.08199793100357056,-0.000107858024421148
1700516801150050600,2.522050537109375,0.0026929883752018213,-0.07899441570043564,0.09287108480930328
1700516801160060700,2.532060791015625,-0.009364473633468151,0.036436304450035095,-0.16024479269981384
1700516801170070500,2.542070556640625,-0.006365753710269928,-0.0359840989112854,0.0445067472755909
1700516801180080600,2.55208056640625,-0.003433080855756998,-0.00016112125013023615,0.07234556972980499
1700516801190090800,2.5620908203125,0.025857962667942047,0.016139023005962372,0.006413424387574196
1700516801200100600,2.5721005859375,-0.016337694600224495,-0.024762071669101715,-0.1608583927154541
1700516801210110500,2.5821103515625,-0.00035499935620464385,-0.010446249507367611,0.02166534774005413
1700516801220121600,2.59212158203125,0.007512244861572981,-0.06035308912396431,0.07300523668527603
1700516801230131700,2.602131591796875,-0.008236624300479889,0.06734974682331085,-0.02063310705125332
1700516801240141600,2.6121416015625,-0.0005475459038279951,-0.08611943572759628,0.10332505404949188
1700516801250151700,2.622151611328125,-0.007949802093207836,0.02588086575269699,-0.15809056162834167
1700516801260161500,2.63216162109375,-0.007962851785123348,-0.03303012251853943,0.022365493699908257
1700516801270171600,2.642171630859375,-0.0049795787781476974,-0.03020663745701313,0.07212772220373154
1700516801280181800,2.652181640625,0.02208825759589672,0.006880276836454868,0.0012602078495547175
1700516801290191600,2.662191650390625,-0.015790946781635284,-0.044679053127765656,-0.15678001940250397
1700516801300201700,2.67220166015625,-0.0012663330417126417,-0.016401609405875206,0.00027563716867007315
1700516801310211600,2.682211669921875,0.01708231493830681,-0.08431035280227661,0.07735870033502579
1700516801320221400,2.692221435546875,-0.007791077718138695,0.04969751462340355,-0.03417128697037697
1700516801330232600,2.702232666015625,0.005273059010505676,-0.09200635552406311,0.09481652081012726
1700516801340242700,2.71224267578125,-0.010496849194169044,-0.00045353634050115943,-0.14486823976039886
1700516801350252500,2.72225244140625,-0.002261023735627532,-0.02538418583571911,0.01338451448827982
1700516801360262700,2.7322626953125,-0.008894424885511398,-0.030473487451672554,0.06348789483308792
1700516801370272500,2.7422724609375,0.014643391594290733,0.02104962430894375,0.019539879634976387
1700516801380282600,2.75228271484375,-0.01360262744128704,-0.05849446728825569,-0.15806686878204346
1700516801390292700,2.762292724609375,-0.006984139792621136,-0.013885987922549248,-0.03322213515639305
1700516801400302600,2.772302490234375,0.01943308673799038,-0.078238345682621,0.09424713999032974
1700516801410312700,2.782312744140625,0.0023329290561378,0.022937007248401642,-0.03778599575161934
1700516801420322600,2.792322509765625,0.009727994911372662,-0.05185547471046448,0.10239668190479279
1700516801430333700,2.802333740234375,-0.0037526602391153574,-0.0034471957478672266,-0.12887142598628998
1700516801440343600,2.812343505859375,-0.01005343347787857,-0.00043569316039793193,-0.01227291114628315
1700516801450353700,2.822353759765625,0.005242698825895786,-0.028058532625436783,0.08611863851547241
1700516801460363500,2.832363525390625,0.015564844943583012,0.038306910544633865,0.03202823922038078
1700516801470373600,2.84237353515625,-0.0029949909076094627,-0.037881601601839066,-0.14325542747974396
1700516801480383700,2.8523837890625,-0.007132478058338165,0.012316054664552212,-0.04484470188617706
1700516801490393600,2.8623935546875,0.030913973227143288,-0.052257612347602844,0.12287238985300064
1700516801500403700,2.87240380859375,0.012370383366942406,0.053341783583164215,-0.03804352134466171
1700516801510413600,2.88241357421875,0.01889273151755333,-0.033727604895830154,0.113131083548069
1700516801520424700,2.8924248046875,0.0012863067677244544,0.017528127878904343,-0.11362829804420471
1700516801530434600,2.9024345703125,-0.008300806395709515,0.02533092349767685,-0.023152990266680717
1700516801540444700,2.912444580078125,0.00806165486574173,-0.012233763001859188,0.08873652666807175
1700516801550454500,2.92245458984375,0.010043312795460224,0.04480874910950661,0.04103158786892891
1700516801560464400,2.93246435546875,0.0017718010349199176,-0.04695099592208862,-0.12488681077957153
1700516801570474500,2.942474609375,-0.014513429254293442,0.022399848327040672,-0.06748183816671371
1700516801580484400,2.952484375,0.02888038381934166,-0.04417518526315689,0.12809725105762482
1700516801590494500,2.962494384765625,0.007282414007931948,0.047510262578725815,-0.035287149250507355
1700516801600504300,2.97250439453125,0.023320501670241356,-0.015967248007655144,0.11761424690485
1700516801610515500,2.982515380859375,0.005932457745075226,0.008285626769065857,-0.10593735426664352
1700516801620525300,2.992525390625,-0.014817828312516212,0.023911723867058754,-0.05020404979586601
1700516801630535400,3.002535400390625,0.016452476382255554,-0.03488927334547043,0.09344526380300522
1700516801640545300,3.012545166015625,0.005342034623026848,0.032581910490989685,0.04127233847975731
1700516801650555400,3.022555419921875,-0.005291967187076807,-0.046777091920375824,-0.12131950259208679
1700516801660565500,3.0325654296875,-0.0163629949092865,0.021250426769256592,-0.07843435555696487
1700516801670575400,3.042575439453125,0.029929935932159424,-0.05241846665740013,0.13171808421611786
1700516801680585500,3.05258544921875,0.008279501460492611,0.03963981941342354,-0.03581658750772476
1700516801690596400,3.062596435546875,0.020745757967233658,-0.016941698268055916,0.11682648211717606
1700516801700606500,3.0726064453125,0.009618538431823254,0.0003275688213761896,-0.10925298929214478
1700516801710616300,3.0826162109375,-0.018618691712617874,0.0020218719728291035,-0.049182724207639694
1700516801720626400,3.09262646484375,0.01733877696096897,-0.04923625662922859,0.09675184637308121
1700516801730636300,3.10263623046875,0.006886401679366827,0.02876267209649086,0.042154911905527115
1700516801740646400,3.112646484375,-0.00013369068619795144,-0.040591634809970856,-0.12701493501663208
1700516801750656300,3.12265625,-0.02244751900434494,-0.008043811656534672,-0.08125517517328262
1700516801760666400,3.132666259765625,0.029585056006908417,-0.05471358075737953,0.12304869294166565
1700516801770677200,3.14267724609375,0.015975238755345345,0.03803979232907295,-0.03533588722348213
1700516801780687400,3.152687255859375,0.018003767356276512,-0.02991635352373123,0.10978295654058456
1700516801790697200,3.162697265625,-0.004505003336817026,0.009349825792014599,-0.10933980345726013
1700516801800707300,3.172707275390625,-0.009005479514598846,0.012703810818493366,-0.034151047468185425
1700516801810717400,3.182717529296875,0.0068059745244681835,-0.021162809804081917,0.07945487648248672
1700516801820727300,3.192727294921875,0.015238340944051743,0.027775971218943596,0.049075134098529816
1700516801830737400,3.2027373046875,0.008251005783677101,-0.041437722742557526,-0.11913277953863144
1700516801840748300,3.212748291015625,-0.02406778559088707,0.007762848399579525,-0.09059301763772964
1700516801850758400,3.22275830078125,0.0363398976624012,-0.054305050522089005,0.12945812940597534
1700516801860768300,3.232768310546875,0.012753079645335674,0.04363882541656494,-0.024024110287427902
1700516801870778400,3.2427783203125,0.029324332252144814,0.005499694030731916,0.08373138308525085
1700516801880788200,3.252788330078125,0.004144677426666021,0.006333529483526945,-0.08014916628599167
1700516801890798300,3.26279833984375,-0.000046339002437889576,0.04003316909074783,-0.04957953840494156
1700516801900808400,3.272808349609375,0.0086041409522295,-0.028361599892377853,0.07756456732749939
1700516801910819600,3.282819580078125,0.011274492368102074,0.037339117377996445,0.04244226589798927
1700516801920829400,3.292829345703125,0.011687815189361572,-0.03488261625170708,-0.07507291436195374
1700516801930839300,3.30283935546875,-0.026491262018680573,0.020500214770436287,-0.11575029790401459
1700516801940849400,3.312849365234375,0.024019315838813782,-0.04632595181465149,0.1337338238954544
1700516801950859300,3.322859375,-0.00592420157045126,0.07590168714523315,0.0027148264925926924
1700516801960869400,3.332869384765625,0.024567926302552223,0.06196829676628113,0.047087352722883224
1700516801970880500,3.342880615234375,-0.006876281928271055,-0.036319658160209656,-0.026806313544511795
1700516801980890600,3.352890625,-0.011984490789473057,0.048535577952861786,-0.115102618932724
1700516801990900500,3.362900390625,0.012919526547193527,-0.05613277852535248,0.08957862108945847
1700516802000910600,3.37291064453125,-0.008255266584455967,0.035956669598817825,0.030231671407818794
1700516802010920400,3.38292041015625,0.0065191518515348434,-0.001719603082165122,-0.03675641492009163
1700516802020930600,3.3929306640625,-0.02647395245730877,0.026684874668717384,-0.15357545018196106
1700516802030940400,3.4029404296875,0.015929430723190308,-0.03723818063735962,0.11222027987241745
1700516802040951600,3.41295166015625,-0.017842380329966545,0.050923902541399,0.01733105257153511
1700516802050961400,3.42296142578125,0.010722152888774872,0.09118743240833282,0.03273610770702362
1700516802060971500,3.432971435546875,-0.002585130510851741,-0.048106808215379715,-0.008478972129523754
1700516802070981400,3.4429814453125,-0.017366206273436546,0.014658038504421711,-0.13787850737571716
1700516802080991500,3.452991455078125,0.010218814946711063,-0.050986483693122864,0.055330365896224976
1700516802091002400,3.46300244140625,-0.009066998027265072,0.011695005930960178,0.014630608260631561
1700516802101012500,3.473012451171875,0.013251356780529022,-0.0019654128700494766,-0.0010511496802791953
1700516802111022600,3.483022705078125,-0.02503184974193573,0.005646434146910906,-0.15213307738304138
1700516802121032400,3.493032470703125,0.006517554167658091,-0.008375109173357487,0.061531271785497665
1700516802131042600,3.50304248046875,-0.012496883049607277,-0.0034610440488904715,0.04216183349490166
1700516802141052400,3.513052490234375,-0.0026341325137764215,0.10152476280927658,0.017311079427599907
1700516802151063600,3.5230634765625,-0.0005941512063145638,-0.07732834666967392,0.07177272439002991
1700516802161073400,3.533073486328125,-0.010973288677632809,0.028931517153978348,-0.1646491289138794
1700516802171083500,3.54308349609375,0.006836334243416786,-0.03457928076386452,0.05836530402302742
1700516802181093400,3.55309326171875,-0.009814014658331871,0.0029470541048794985,0.05631973221898079
1700516802191103500,3.563103515625,0.026738137006759644,0.014488928020000458,-0.0046578687615692616
1700516802201113300,3.57311328125,-0.012319250032305717,-0.020769460126757622,-0.1557435244321823
1700516802211124500,3.58312451171875,0.004740693140774965,-0.006458964664489031,0.02906281128525734
1700516802221134300,3.59313427734375,0.004253334365785122,-0.048890043050050735,0.07258179038763046
1700516802231144400,3.60314453125,0.008015848696231842,0.06753776222467422,-0.029410086572170258
1700516802241154600,3.613154541015625,0.006904511246830225,-0.07247606664896011,0.10730168968439102
1700516802251164400,3.623164306640625,-0.006678408943116665,0.02365020103752613,-0.13852645456790924
1700516802261175300,3.63317529296875,-0.006118612363934517,-0.01733851060271263,0.008297078311443329
1700516802271185400,3.643185302734375,-0.0023299995809793472,-0.027653731405735016,0.0689106211066246
1700516802281195500,3.653195556640625,0.020598486065864563,0.02737196907401085,0.018512431532144547
1700516802291205400,3.663205322265625,-0.007158843334764242,-0.05193829908967018,-0.13724733889102936
1700516802301215500,3.673215576171875,-0.007429420482367277,-0.0003384877636563033,-0.02863377518951893
1700516802311226400,3.683226318359375,0.02347203716635704,-0.057316020131111145,0.10757546126842499
1700516802321236500,3.693236572265625,0.01203988492488861,0.04911907762289047,-0.0333225354552269
1700516802331246300,3.703246337890625,0.011032410897314548,-0.037447240203619,0.11262987554073334
1700516802341256400,3.71325634765625,-0.0025632926262915134,0.013552027754485607,-0.12051815539598465
1700516802351266300,3.723266357421875,-0.013552027754485607,0.002171541564166546,-0.02779221720993519
1700516802361276400,3.7332763671875,0.008803345263004303,-0.04008030891418457,0.08252337574958801
1700516802371287300,3.743287353515625,0.0133288549259305,0.03687439486384392,0.027237746864557266
1700516802381297400,3.75329736328125,-0.0035960664972662926,-0.052142031490802765,-0.11669225990772247
1700516802391307300,3.763307373046875,-0.016100140288472176,0.00315984059125185,-0.06909731030464172
1700516802401317400,3.7733173828125,0.028621524572372437,-0.05024665966629982,0.12857209146022797
1700516802411328300,3.783328369140625,0.01697578839957714,0.05037182569503784,-0.031437285244464874
1700516802421338400,3.79333837890625,0.01996758207678795,-0.010695787146687508,0.10501403361558914
1700516802431348200,3.80334814453125,0.0012088088551536202,0.019934825599193573,-0.09659364819526672
1700516802441358300,3.8133583984375,-0.004704207647591829,0.026391660794615746,-0.046721167862415314
1700516802451368400,3.823368408203125,0.00751916877925396,-0.0289341788738966,0.0742286890745163
1700516802461379600,3.833379638671875,0.009475527331233025,0.040656883269548416,0.03635241463780403
1700516802471389400,3.843389404296875,0.010206830687820911,-0.03639795631170273,-0.0849311351776123
1700516802481399600,3.853399658203125,-0.022478677332401276,0.01589188165962696,-0.11068283766508102
1700516802491409400,3.863409423828125,0.026497121900320053,-0.04418930038809776,0.13327869772911072
1700516802501419300,3.873419189453125,-0.000013315805517777335,0.07018467783927917,0.0009171926649287343
1700516802511430400,3.883430419921875,0.03168868646025658,0.05892084166407585,0.05829419940710068
1700516802521440500,3.8934404296875,-0.00395639194175601,-0.026378877460956573,-0.03277632221579552
1700516802531450600,3.90345068359375,-0.010392187163233757,0.04778403416275978,-0.10303130745887756
1700516802541460500,3.91346044921875,0.01925918273627758,-0.04663248360157013,0.10258682817220688
1700516802551471400,3.923471435546875,-0.0057223341427743435,0.045399438589811325,0.029464947059750557
1700516802561481700,3.933481689453125,0.0054765245877206326,-0.004342017695307732,-0.047235157340765
1700516802571491800,3.943491943359375,-0.019286345690488815,0.03450045362114906,-0.1413038671016693
1700516802581501700,3.953501708984375,0.019935891032218933,-0.030223948881030083,0.12815290689468384
1700516802591511800,3.96351171875,-0.016509734094142914,0.067618727684021,0.016342487186193466
1700516802601522700,3.973522705078125,0.007892278023064137,0.08948993682861328,0.03806695714592934
1700516802611532800,3.98353271484375,-0.0017164073651656508,-0.054127682000398636,0.0070802802219986916
1700516802621542700,3.993542724609375,-0.013508351519703865,0.03197338059544563,-0.13957999646663666
1700516802631552800,4.003552734375,0.018341457471251488,-0.049367282539606094,0.09372436255216599
1700516802641564000,4.01356396484375,-0.013187174685299397,0.025126658380031586,0.03526158258318901
1700516802651574000,4.023573974609375,0.014361361972987652,0.014580007642507553,-0.026507508009672165
1700516802661584000,4.033583984375,-0.025347966700792313,0.022337796166539192,-0.15958912670612335
1700516802671594000,4.043593994140625,0.009926400147378445,-0.020719658583402634,0.10982796549797058
1700516802681604900,4.05360498046875,-0.019235214218497276,0.038837675005197525,0.034983549267053604
1700516802691615000,4.063614990234375,0.0046789078041911125,0.10280600935220718,0.029227660968899727
1700516802701624800,4.073624755859375,-0.002657302189618349,-0.059664130210876465,0.010171410627663136
1700516802711635000,4.083635009765625,-0.02161101996898651,0.01666473038494587,-0.13362330198287964
1700516802721645800,4.093645751953125,0.019786754623055458,-0.045762695372104645,0.07737628370523453
1700516802731656000,4.103656005859375,-0.01353524997830391,0.013118465431034565,0.049138251692056656
1700516802741665800,4.113665771484375,0.006580404471606016,0.013624732382595539,-0.018193384632468224
1700516802751676000,4.123676025390625,-0.01829352043569088,0.001977929612621665,-0.16103123128414154
1700516802761685800,4.133685791015625,0.005016862880438566,-0.00842677429318428,0.07714032381772995
1700516802771697000,4.14369677734375,-0.014611166901886463,-0.014735803008079529,0.0429791584610939
1700516802781706800,4.153706787109375,-0.011319499462842941,0.09265802800655365,-0.001972070662304759
1700516802791716900,4.163716796875,0.002305498579517007,-0.07752302289009094,0.06379735469818115
1700516802801727700,4.173727783203125,-0.012073174118995667,0.02106880024075508,-0.14107349514961243
1700516802811737900,4.18373779296875,0.005835785064846277,-0.04176316037774086,0.058999937027692795
1700516802821747700,4.193747802734375,-0.012517123483121395,0.0038477350026369095,0.04686284810304642
1700516802831757800,4.2037578125,0.01750815287232399,0.014509966596961021,0.003918841481208801
1700516802841767700,4.213767578125,-0.012775450013577938,-0.013648168183863163,-0.14879374206066132
1700516802851778800,4.22377880859375,-0.0010242518037557602,0.006669354159384966,0.025589250028133392
1700516802861788700,4.23378857421875,0.005156146362423897,-0.03928828239440918,0.07292746752500534
1700516802871798800,4.243798828125,0.004003529902547598,0.05295616015791893,-0.03184181824326515
1700516802881809700,4.2538095703125,0.005881058517843485,-0.06720167398452759,0.098945751786232
1700516802891819800,4.26381982421875,-0.0073535204865038395,0.012258796952664852,-0.12061429768800735
1700516802901829600,4.27382958984375,-0.002831472782418132,-0.01073679979890585,0.014542191289365292
1700516802911839700,4.28383984375,-0.005804359447211027,-0.008272044360637665,0.05017395317554474
1700516802921850600,4.2938505859375,0.01811349019408226,0.03363732248544693,0.026023611426353455
1700516802931860700,4.30386083984375,0.0027507790364325047,-0.04494323953986168,-0.11474788933992386
1700516802941870600,4.31387060546875,-0.00788748450577259,0.0054999603889882565,-0.04965117573738098
1700516802951880700,4.323880615234375,0.02689100243151188,-0.05656234547495842,0.10439271479845047
1700516802961891800,4.333891845703125,0.016986174508929253,0.03844459354877472,-0.02754827030003071
1700516802971902000,4.34390185546875,0.02978585846722126,0.00869362335652113,0.08764462918043137
1700516802981911800,4.353911865234375,-0.0027001791168004274,-0.010173275135457516,-0.07521938532590866
1700516802991922000,4.363921875,-0.011666242964565754,0.036487970501184464,-0.07241987437009811
1700516803001932800,4.373932861328125,0.011868909932672977,-0.04309873282909393,0.09153711050748825
1700516803011943000,4.38394287109375,0.00441019469872117,0.05034785717725754,0.016635967418551445
1700516803021952800,4.393952880859375,-0.0032551817130297422,-0.02586888149380684,-0.07855340093374252
1700516803031964000,4.4039638671875,-0.016630109399557114,0.021088773384690285,-0.1029849722981453
1700516803041973800,4.413973876953125,0.023070165887475014,-0.03514041006565094,0.12289156764745712
1700516803051984000,4.42398388671875,-0.009611881338059902,0.06878678500652313,-0.00920441746711731
1700516803061993700,4.43399365234375,0.02756611444056034,0.05408560484647751,0.056834787130355835
1700516803072004900,4.4440048828125,-0.008108526468276978,-0.03307938948273659,-0.033789120614528656
1700516803082014700,4.4540146484375,-0.00774740194901824,0.034872230142354965,-0.11906193941831589
1700516803092024800,4.46402490234375,0.016512664034962654,-0.05065971612930298,0.10053379833698273
1700516803102035700,4.47403564453125,-0.012324577197432518,0.037171870470047,0.021323930472135544
1700516803112045800,4.4840458984375,0.011827630922198296,0.006428338121622801,-0.03624056279659271
1700516803122055700,4.4940556640625,-0.015364042483270168,0.02677968330681324,-0.1422804445028305
1700516803132065800,4.504065673828125,0.012969860807061195,-0.024162594228982925,0.12190672755241394
1700516803142076700,4.51407666015625,-0.02184857428073883,0.04898032546043396,0.013835388235747814
1700516803152086800,4.524086669921875,0.011541075073182583,0.09121699631214142,0.027411118149757385
1700516803162096600,4.5340966796875,-0.0093919038772583,-0.07274904102087021,0.02623107098042965
1700516803172107800,4.544107666015625,-0.008137554861605167,0.035174500197172165,-0.16202591359615326
1700516803182117600,4.55411767578125,0.02058357186615467,-0.05275562405586243,0.09367749094963074
1700516803192127700,4.564127685546875,-0.015073491260409355,0.01859365776181221,0.035774242132902145
1700516803202139000,4.574138916015625,0.014125938527286053,0.02520602010190487,-0.045223671942949295
1700516803212149000,4.58414892578125,-0.021574268117547035,0.0048437574878335,-0.16549308598041534
1700516803222158800,4.594158935546875,0.011602593585848808,-0.022585736587643623,0.11034035682678223
1700516803232168700,4.604168701171875,-0.02520442195236683,0.019523900002241135,0.029157087206840515
1700516803242179800,4.614179931640625,0.001324123702943325,0.11130202561616898,0.017017865553498268
1700516803252190000,4.62418994140625,-0.008566057309508324,-0.08011694252490997,0.04272269457578659
1700516803262199800,4.63419970703125,-0.01522768847644329,0.039908267557621,-0.17532548308372498
1700516803272211000,4.6442109375,0.015914784744381905,-0.03922490030527115,0.09188864380121231
1700516803282220800,4.654220703125,-0.01293470710515976,0.020867198705673218,0.055024370551109314
1700516803292231000,4.66423095703125,0.01672385260462761,0.03279523178935051,-0.04575497284531593
1700516803302241800,4.67424169921875,-0.025972478091716766,-0.001439971150830388,-0.17559924721717834
1700516803312252000,4.684251953125,0.005791310220956802,-0.023371635004878044,0.11461712419986725
1700516803322261800,4.69426171875,-0.02076812833547592,0.02509550005197525,0.04166169464588165
1700516803332273000,4.70427294921875,0.009877131320536137,0.11061573028564453,0.040166594088077545
1700516803342282800,4.71428271484375,0.00012170646368758753,-0.04158499464392662,-0.009601760655641556
1700516803352292900,4.72429296875,-0.027784492820501328,0.01375149842351675,-0.12810736894607544
1700516803362302700,4.734302734375,0.010774883441627026,-0.04117300361394882,0.0821731686592102
1700516803372313900,4.74431396484375,0.0013584784464910626,0.01619228534400463,0.060745373368263245
1700516803382323700,4.75432373046875,-0.002925216220319271,0.011551194824278355,-0.04500715434551239
1700516803392333800,4.764333740234375,-0.02202966809272766,0.004762264434248209,-0.17589938640594482
1700516803402344700,4.7743447265625,0.006301305256783962,-0.024519724771380424,0.1140860915184021
1700516803412354800,4.784354736328125,-0.018879149109125137,0.025588717311620712,0.03504373878240585
1700516803422364700,4.79436474609375,0.002159024588763714,0.11932239681482315,0.014644456095993519
1700516803432375800,4.804375732421875,-0.0047090016305446625,-0.07739971578121185,0.014426875859498978
1700516803442385700,4.8143857421875,-0.02347389981150627,0.034566763788461685,-0.15469104051589966
1700516803452395800,4.824395751953125,0.023190008476376534,-0.051718320697546005,0.11108125001192093
1700516803462407000,4.834406982421875,-0.007636880502104759,0.03808559849858284,0.051353469491004944
1700516803472416800,4.844416748046875,0.008141282945871353,0.017414676025509834,-0.04887086898088455
1700516803482427000,4.854427001953125,-0.02123364992439747,0.012754411436617374,-0.1711816042661667
1700516803492437800,4.864437744140625,0.017883658409118652,-0.02004428207874298,0.12754490971565247
1700516803502447900,4.87444775390625,-0.015029815956950188,0.0366661362349987,0.030655913054943085
1700516803512457700,4.884457763671875,0.01726127788424492,0.09693799912929535,0.02858956716954708
1700516803522468900,4.89446875,-0.005224589258432388,-0.04078924283385277,-0.0054967645555734634
1700516803532478700,4.904478759765625,-0.02099556289613247,0.029685191810131073,-0.13329440355300903
1700516803542488800,4.91448876953125,0.01786075532436371,-0.045889727771282196,0.09641095995903015
1700516803552499700,4.924499755859375,-0.001978462329134345,0.027454260736703873,0.05456124618649483
1700516803562510300,4.93451025390625,0.01733025349676609,0.003055178327485919,-0.044252946972846985
1700516803572520200,4.944520263671875,-0.03309829905629158,0.012887036427855492,-0.16731202602386475
1700516803582531300,4.95453125,0.023385483771562576,-0.026388997212052345,0.12994281947612762
1700516803592541200,4.964541259765625,-0.008857673965394497,0.033916689455509186,0.028421254828572273
1700516803602551300,4.97455126953125,0.02203046716749668,0.07931266725063324,0.04687855765223503
1700516803612562200,4.984562255859375,-0.004219246096909046,-0.038770031183958054,-0.011539210565388203
1700516803622572300,4.994572265625,-0.02407870441675186,0.02586781606078148,-0.12839818000793457
1700516803632582100,5.00458203125,0.01600479893386364,-0.04881094768643379,0.09855107218027115
1700516803642593300,5.01459326171875,0.00022077605535741895,0.02588566020131111,0.06638780981302261
1700516803652603400,5.024603271484375,0.015467372722923756,-0.007737814448773861,-0.06615372002124786
1700516803662614300,5.0346142578125,-0.03449832275509834,0.011739480309188366,-0.16704970598220825
1700516803672624400,5.044624267578125,0.022231269627809525,-0.028689701110124588,0.1398995816707611
1700516803682634200,5.05463427734375,-0.008787632919847965,0.04388543218374252,0.02009461633861065
1700516803692645400,5.064645263671875,0.01938648149371147,0.07558370381593704,0.04662076383829117
1700516803702655200,5.0746552734375,0.0028719529509544373,-0.031631696969270706,-0.03442668169736862
1700516803712665300,5.084665283203125,-0.026007631793618202,0.026135995984077454,-0.11037790775299072
1700516803722676200,5.09467626953125,0.012940033338963985,-0.042758382856845856,0.09592653065919876
1700516803732686300,5.104686279296875,-0.000020240024241502397,0.03147829696536064,0.05632186308503151
1700516803742696200,5.1146962890625,0.013689713552594185,-0.0046211169101297855,-0.06298375874757767
1700516803752707300,5.124707275390625,-0.030252177268266678,0.021940186619758606,-0.15103931725025177
1700516803762717200,5.13471728515625,0.02424275502562523,-0.02129463665187359,0.13746066391468048
1700516803772727300,5.144727294921875,-0.0035720979794859886,0.048952363431453705,0.013455887325108051
1700516803782738200,5.15473828125,0.020381970331072807,0.06937907636165619,0.05415458232164383
1700516803792748300,5.164748291015625,-0.0012841762509196997,-0.022117553278803825,-0.028850024566054344
1700516803802759400,5.174759521484375,-0.021290907636284828,0.03973276540637016,-0.11120109260082245
1700516803812769300,5.184769287109375,0.01720588468015194,-0.03374278172850609,0.10157855600118637
1700516803822779100,5.194779052734375,-0.0018991001415997744,0.03900705277919769,0.05778447166085243
1700516803832790300,5.204790283203125,0.0238784346729517,-0.015559252351522446,-0.07274024933576584
1700516803842800400,5.21480029296875,-0.02449655532836914,0.022611303254961967,-0.14670023322105408
1700516803852810500,5.224810546875,0.027715517207980156,-0.03203330188989639,0.14322294294834137
1700516803862821400,5.2348212890625,0.003885019337758422,0.03921344876289368,0.005230980925261974
1700516803872831200,5.244831298828125,0.025528796017169952,0.04847805202007294,0.06036826968193054
1700516803882842400,5.25484228515625,0.000978978001512587,-0.02173006348311901,-0.04526122286915779
1700516803892852200,5.264852294921875,-0.019177954643964767,0.03368552401661873,-0.10204540938138962
1700516803902862300,5.2748623046875,0.016938770189881325,-0.026435602456331253,0.09954682737588882
1700516803912873200,5.284873291015625,-0.00013635384675581008,0.034147318452596664,0.05648697912693024
1700516803922883300,5.29488330078125,0.015529957599937916,-0.02051299810409546,-0.08141842484474182
1700516803932893200,5.30489306640625,-0.02978559210896492,0.022046180441975594,-0.13699913024902344
1700516803942904300,5.314904296875,0.027106452733278275,-0.031150195747613907,0.1379123330116272
1700516803952914200,5.3249140625,0.009912285953760147,0.03959641233086586,-0.004968659486621618
1700516803962925300,5.33492529296875,0.028145350515842438,0.03379498049616814,0.068330317735672
1700516803972935200,5.34493505859375,0.003498062025755644,-0.019934825599193573,-0.06509910523891449
1700516803982945300,5.3549453125,-0.020985975861549377,0.03454386070370674,-0.08318516612052917
1700516803992956400,5.364956298828125,0.015666311606764793,-0.02786225825548172,0.1029178574681282
1700516804002966500,5.374966552734375,0.004352936986833811,0.031988825649023056,0.05468055605888367
1700516804012976400,5.384976318359375,0.01152695994824171,-0.02713494747877121,-0.10116443783044815
1700516804022987300,5.3949873046875,-0.03262771666049957,0.018861038610339165,-0.11486533284187317
1700516804032997400,5.404997314453125,0.033119071274995804,-0.03383226692676544,0.15090322494506836
1700516804043008300,5.41500830078125,0.017653562128543854,0.03314943239092827,-0.023606259375810623
1700516804053018400,5.425018310546875,0.02442411705851555,0.004510063212364912,0.08534632623195648
1700516804063028200,5.4350283203125,0.006338589824736118,-0.0038626487366855145,-0.08634074777364731
1700516804073039400,5.445039306640625,-0.01381088700145483,0.018788868561387062,-0.06228601187467575
1700516804083049200,5.45504931640625,0.011195396073162556,-0.02485395036637783,0.09903790056705475
1700516804093060400,5.465060302734375,0.010322678834199905,0.030472422018647194,0.047094542533159256
1700516804103070200,5.4750703125,0.011683021672070026,-0.04031253606081009,-0.1142759770154953
1700516804113080300,5.485080322265625,-0.02683986909687519,0.012925385497510433,-0.09739872813224792
1700516804123091200,5.49509130859375,0.03271906450390816,-0.044864676892757416,0.13871553540229797
1700516804133101300,5.505101318359375,0.01907861977815628,0.033788323402404785,-0.038607046008110046
1700516804143112200,5.5151123046875,0.01787353865802288,-0.02107066474854946,0.1066524088382721
1700516804153122300,5.525122314453125,0.003388073528185487,0.012083826586604118,-0.11580169945955276
1700516804163132200,5.535132080078125,-0.01299542747437954,0.009698966518044472,-0.03846190497279167
1700516804173143300,5.545143310546875,0.005841377656906843,-0.027657726779580116,0.09858009964227676
1700516804183153400,5.5551533203125,0.01612943410873413,0.023510385304689407,0.03775164112448692
1700516804193164300,5.565164306640625,0.002499110298231244,-0.05494873598217964,-0.1387653350830078
1700516804203174400,5.57517431640625,-0.023331422358751297,-0.006587861571460962,-0.06441760808229446
1700516804213184300,5.585184326171875,0.03301787003874779,-0.05469653382897377,0.13453224301338196
1700516804223195400,5.5951953125,0.008773251436650753,0.06241730600595474,-0.04638001695275307
1700516804233205200,5.605205322265625,0.012891829945147038,-0.0691889226436615,0.1040201410651207
1700516804243216400,5.61521630859375,-0.004303934518247843,0.006961236707866192,-0.12811456620693207
1700516804253226200,5.625226318359375,-0.0038248319178819656,-0.00603525573387742,0.000978711643256247
1700516804263237000,5.635237060546875,-0.006018743850290775,-0.010496849194169044,0.07991107553243637
1700516804273247200,5.645247314453125,0.01188116054981947,0.017845043912529945,0.020540162920951843
1700516804283257300,5.65525732421875,-0.0015624766238033772,-0.0531281977891922,-0.15337809920310974
1700516804293268200,5.665268310546875,-0.009608152322471142,-0.006720487028360367,-0.03338592126965523
1700516804303278000,5.675278076171875,0.020599285140633583,-0.0536925233900547,0.11341977119445801
1700516804313289500,5.68528955078125,0.0002348908019484952,0.08016780763864517,-0.05035638064146042
1700516804323299300,5.69529931640625,0.011083809658885002,-0.07994197309017181,0.1101938784122467
1700516804333309200,5.70530908203125,0.0011707255616784096,0.019882362335920334,-0.15196876227855682
1700516804343320300,5.7153203125,-0.002975017298012972,-0.016769925132393837,0.019029350951313972
1700516804353330400,5.725330322265625,-0.003913248889148235,-0.000529436394572258,0.08342219144105911
1700516804363341300,5.73534130859375,0.019880497828125954,0.018445853143930435,0.003070624778047204
1700516804373351400,5.745351318359375,-0.011336011812090874,-0.04735340178012848,-0.17448951303958893
1700516804383362300,5.7553623046875,-0.007397728972136974,-0.017231451347470284,0.011355984956026077
1700516804393372400,5.765372314453125,0.004822718445211649,-0.04730866104364395,0.10430297255516052
1700516804403382300,5.77538232421875,-0.015409582294523716,0.1291649043560028,-0.03602857515215874
1700516804413393200,5.78539306640625,0.006048304960131645,-0.08750561624765396,0.08044557273387909
1700516804423403300,5.7954033203125,-0.014066018164157867,0.01870790682733059,-0.15284253656864166
1700516804433414100,5.8054140625,0.0029233519453555346,-0.02774933911859989,0.04697070270776749
1700516804443424300,5.81542431640625,-0.0036828855518251657,0.009843043051660061,0.07750624418258667
1700516804453435100,5.82543505859375,0.011632953770458698,0.031436752527952194,-0.004181961994618177
1700516804463445200,5.8354453125,-0.021250693127512932,-0.021224329248070717,-0.18553923070430756
1700516804473455000,5.845455078125,0.0003217098710592836,-0.013219664804637432,0.04723595455288887
1700516804483466500,5.855466552734375,-0.002433063928037882,-0.024166589602828026,0.08583155274391174
1700516804493476400,5.865476318359375,-0.012720854952931404,0.15416319668293,-0.017658090218901634
1700516804503487200,5.8754873046875,0.007001183927059174,-0.08051774650812149,0.04598826542496681
1700516804513497300,5.885497314453125,-0.019933760166168213,0.010838266462087631,-0.15306784212589264
1700516804523508200,5.89550830078125,0.011876899749040604,-0.04229286313056946,0.06762964278459549
1700516804533518300,5.905518310546875,-0.0037063213530927896,0.022104769945144653,0.07373014837503433
1700516804543529200,5.915529296875,0.008305334486067295,0.024031832814216614,-0.02110954560339451
1700516804553539300,5.925539306640625,-0.02014841139316559,-0.008362592197954655,-0.19146956503391266
1700516804563548700,5.935548583984375,0.004220577888190746,-0.01727699115872383,0.0804559588432312
1700516804573559800,5.945559814453125,-0.010545052587985992,-0.0010239854454994202,0.07168936729431152
1700516804583569700,5.955569580078125,-0.00885074958205223,0.15565083920955658,-0.019637882709503174
1700516804593580800,5.965580810546875,0.0014732606941834092,-0.08884119242429733,0.04839762672781944
1700516804603590700,5.975590576171875,-0.01733478158712387,0.03177843615412712,-0.16302567720413208
1700516804613601800,5.985601806640625,0.016829846426844597,-0.04163293167948723,0.08886276185512543
1700516804623611600,5.995611572265625,-0.014005297794938087,0.02478018030524254,0.05715276673436165
1700516804633622500,6.00562255859375,0.007360977120697498,0.02021419070661068,-0.03984168916940689
1700516804643632600,6.015632568359375,-0.02978292852640152,0.006837666034698486,-0.19351381063461304
1700516804653642800,6.025642822265625,0.01275467686355114,-0.01230220589786768,0.09029634296894073
1700516804663653600,6.035653564453125,-0.02070447988808155,0.01992950029671192,0.047505732625722885
1700516804673663700,6.045663818359375,-0.012382900342345238,0.1342124044895172,0.006703709252178669
1700516804683674600,6.055674560546875,-0.005057609174400568,-0.06690207123756409,-0.013763216324150562
1700516804693684500,6.0656845703125,-0.02299186773598194,0.04872892424464226,-0.1714833378791809
1700516804703696000,6.07569580078125,0.0018522285390645266,-0.026396453380584717,0.08364349603652954
1700516804713705700,6.085705810546875,-0.008421714417636395,0.02641163393855095,0.02678021416068077
1700516804723716600,6.095716552734375,-0.0009576727170497179,0.021808093413710594,-0.06709355115890503
1700516804733726700,6.105726806640625,-0.03797667846083641,0.029262814670801163,-0.18866179883480072
1700516804743737600,6.115737548828125,0.022158564999699593,-0.032157402485609055,0.06781446933746338
1700516804753747700,6.125747802734375,-0.013018064200878143,0.0024080302100628614,-0.033429328352212906
1700516804763758600,6.135758544921875,-0.011129883117973804,0.05336468666791916,0.03971758484840393
1700516804773768700,6.145768798828125,0.010582869872450829,-0.07646255195140839,0.02701164409518242
1700516804783778600,6.155778564453125,-0.010749050416052341,0.040648628026247025,-0.22389407455921173
1700516804793789700,6.165789794921875,0.010424677282571793,-0.07132211327552795,0.012462528422474861
1700516804803799600,6.175799560546875,0.0012026835465803742,-0.0431290939450264,0.08424830436706543
1700516804813810700,6.185810791015625,-0.0002822950773406774,-0.031036213040351868,0.004735899157822132
1700516804823820500,6.195820556640625,-0.007171892561018467,-0.05395377799868584,-0.18014660477638245
1700516804833831400,6.20583154296875,0.007900266908109188,-0.017243968322873116,0.09721949696540833
1700516804843841500,6.215841552734375,-0.000693220819812268,-0.0383354052901268,0.05011563003063202
1700516804853852700,6.225852783203125,-0.012121377512812614,0.10356341302394867,0.02171488292515278
1700516804863862800,6.23586279296875,0.0009384979493916035,-0.025189509615302086,-0.009386044926941395
1700516804873873700,6.245873779296875,-0.012046276591718197,0.0904390886425972,-0.2245236486196518
1700516804883883800,6.2558837890625,0.006086920853704214,0.006927148438990116,0.04531262069940567
1700516804893894700,6.265894775390625,-0.0038157771341502666,0.10139986127614975,-0.012537096627056599
1700516804903904800,6.27590478515625,0.00013795174891129136,0.1011148989200592,-0.09039514511823654
1700516804913915600,6.28591552734375,-0.0033430662006139755,0.06276910752058029,-0.25391244888305664
1700516804923925800,6.29592578125,-0.007626760751008987,0.142520934343338,-0.052136171609163284
1700516804933936600,6.3059365234375,-0.027835892513394356,0.02906973473727703,-0.06355580687522888
1700516804943946500,6.315946533203125,-0.045032721012830734,0.22978127002716064,-0.027760524302721024
1700516804953957600,6.32595751953125,-0.021407553926110268,-0.2827414274215698,0.0184013769030571
1700516804963967500,6.335967529296875,-0.058577291667461395,0.15444070100784302,-0.5462380647659302
1700516804973977600,6.3459775390625,-0.04074103757739067,-0.05492902919650078,-0.10076842457056046
1700516804983988700,6.35598876953125,0.003314303932711482,-0.16358759999275208,-0.02369946986436844
1700516804993998800,6.365998779296875,-0.03777800500392914,-0.19972136616706848,-0.202896386384964
1700516805004009700,6.376009765625,0.000358461489668116,-0.02317003346979618,-0.4571302533149719
1700516805014019800,6.386019775390625,-0.026447053998708725,-0.07379699498414993,-0.2607860565185547
1700516805024030700,6.39603076171875,-0.017176855355501175,-0.21788811683654785,-0.18904155492782593
1700516805034040600,6.40604052734375,-0.05212072655558586,-0.03159947320818901,-0.2647855877876282
1700516805044051700,6.4160517578125,0.07861624658107758,-0.2410120815038681,0.24410080909729004
1700516805054061600,6.4260615234375,-0.09295471012592316,-0.3569304347038269,-0.4481663405895233
1700516805064072700,6.43607275390625,0.07968630641698837,0.235753133893013,-0.427865594625473
1700516805074082600,6.44608251953125,0.028975725173950195,-0.3088659644126892,0.41969501972198486
1700516805084093700,6.45609375,-0.06168306991457939,0.12905332446098328,0.026756513863801956
1700516805094103600,6.466103515625,0.16977545619010925,0.06282024085521698,-0.4202132523059845
1700516805104114700,6.47611474609375,0.006323143374174833,0.07635602355003357,-0.11746857315301895
1700516805114124800,6.486124755859375,0.007409979589283466,0.05025331676006317,-0.1109936311841011
1700516805124135700,6.4961357421875,-0.09477284550666809,0.3605746924877167,0.2509952187538147
1700516805134145800,6.506145751953125,0.14220161736011505,-0.8492104411125183,0.05419665947556496
1700516805144156700,6.51615673828125,-0.019767578691244125,0.8075620532035828,-0.16424059867858887
1700516805154166800,6.526166748046875,-0.02039608545601368,-0.12095784395933151,0.4185304045677185
1700516805164177700,6.536177734375,0.10969454050064087,-0.409604549407959,0.00866246409714222
1700516805174187800,6.546187744140625,0.028260134160518646,0.30696341395378113,-0.118615061044693
1700516805184198700,6.55619873046875,0.057908039540052414,-0.09715770930051804,0.21671633422374725
1700516805194208500,6.56620849609375,0.02359001524746418,-0.2414051592350006,0.3772687315940857
1700516805204219600,6.5762197265625,0.08263789117336273,-0.4210614860057831,-0.36534789204597473
1700516805214229500,6.5862294921875,0.05718472599983215,0.8469520807266235,-0.5757650136947632
1700516805224241000,6.596240966796875,0.07596613466739655,-0.6502006649971008,0.40632328391075134
1700516805234250800,6.606250732421875,0.022604644298553467,0.31973379850387573,0.05000857263803482
1700516805244261600,6.61626171875,0.01599734276533127,0.10871529579162598,-0.2285490185022354
1700516805254271700,6.626271728515625,-0.0013315805699676275,-0.1369549185037613,0.6753755211830139
1700516805264282600,6.63628271484375,0.1527743637561798,-0.3164336085319519,0.16779379546642303
1700516805274292700,6.646292724609375,-0.01281619630753994,0.8569977879524231,-0.46527183055877686
1700516805284303600,6.6563037109375,0.04560716450214386,-0.6979527473449707,0.4704766869544983
1700516805294313700,6.666313720703125,0.04109044373035431,0.5176628232002258,0.1805247664451599
1700516805304324600,6.67632470703125,-0.021805429831147194,0.05806836113333702,-0.1676981896162033
1700516805314334700,6.686334716796875,0.07302946597337723,-0.9050417542457581,0.23500505089759827
1700516805324345600,6.696345703125,0.10843566060066223,1.1600474119186401,-0.013740845955908298
1700516805334355700,6.706355712890625,0.18614085018634796,-0.4274733066558838,0.13187307119369507
1700516805344366600,6.71636669921875,0.203436478972435,-0.34751108288764954,0.3297451436519623
1700516805354376400,6.72637646484375,0.015627695247530937,0.8468921184539795,0.29086804389953613
1700516805364387800,6.736387939453125,0.008069378323853016,-1.0332356691360474,0.30706459283828735
1700516805374397700,6.746397705078125,-0.12217225134372711,0.4049176573753357,-0.035647742450237274
1700516805384408800,6.756408935546875,-0.02780872769653797,0.3779478371143341,-0.36018213629722595
1700516805394418700,6.766418701171875,0.15215997397899628,-0.8088664412498474,-0.5083234310150146
1700516805404429600,6.7764296875,-0.12066516280174255,1.1577472686767578,-0.687477707862854
1700516805414440700,6.786440673828125,-0.0995582789182663,-0.9263566136360168,-0.26759254932403564
1700516805424450600,6.796450439453125,0.11167779564857483,-0.31001564860343933,0.29343533515930176
1700516805434460700,6.806460693359375,0.06847040355205536,0.6342847943305969,0.9541285634040833
1700516805444471600,6.816471435546875,0.08411780744791031,-0.7596371173858643,0.7278112769126892
1700516805454482400,6.826482421875,-0.08143334090709686,0.8689321875572205,-0.16515566408634186
1700516805464492500,6.836492431640625,0.004744687583297491,-1.5685499906539917,-0.4325876533985138
1700516805474503700,6.846503662109375,0.0015627428656443954,1.3910832405090332,-0.7225645780563354
1700516805484513800,6.856513671875,0.1793452501296997,-0.017120130360126495,-0.2112930715084076
1700516805494524700,6.866524658203125,-0.0123070003464818,-0.7150944471359253,0.2796846330165863
1700516805504534800,6.87653466796875,-0.10818319767713547,1.0436842441558838,0.6065053939819336
1700516805514545700,6.886545654296875,0.057789262384176254,-1.7283095121383667,0.389725923538208
1700516805524555800,6.8965556640625,-0.011516840197145939,1.2732874155044556,-0.07491552084684372
1700516805534566700,6.906566650390625,0.16625794768333435,0.03852741792798042,-0.14133049547672272
1700516805544576800,6.91657666015625,-0.07301455736160278,-0.46939411759376526,-0.26046913862228394
1700516805554587600,6.926587646484375,-0.1308046132326126,0.7096804976463318,-0.15751932561397552
1700516805564597800,6.93659765625,0.024340759962797165,-1.3281139135360718,-0.011469702236354351
1700516805574609000,6.94660888671875,0.03666986525058746,0.9989951252937317,0.32342520356178284
1700516805584618800,6.95661865234375,0.023212911561131477,-0.6227874159812927,0.5440326929092407
1700516805594630000,6.9666298828125,0.001677791471593082,0.4669725000858307,0.24096786975860596
1700516805604640000,6.976639892578125,-0.005992112215608358,-0.11827337741851807,0.24016812443733215
1700516805614651000,6.98665087890625,-0.1117640808224678,-0.9842529296875,-0.011071559973061085
1700516805624661000,6.996660888671875,0.02851553075015545,1.1427621841430664,-0.15323802828788757
1700516805634671900,7.006671875,0.07059773802757263,-0.7870104312896729,-0.2617266774177551
1700516805644682000,7.016681884765625,-0.029642580077052116,0.9406790733337402,-0.4584836959838867
1700516805654692900,7.02669287109375,0.027632959187030792,-0.9120338559150696,0.05986279994249344
1700516805664703000,7.036702880859375,0.03454199805855751,0.5219894051551819,0.204985111951828
1700516805674713900,7.0467138671875,-0.014086524024605751,-0.29204675555229187,0.38199424743652344
1700516805684724000,7.056723876953125,-0.14425250887870789,-0.24119743704795837,0.12080524861812592
1700516805694734800,7.06673486328125,0.06386207044124603,0.7112094163894653,-0.050451457500457764
1700516805704744700,7.07674462890625,-0.018367022275924683,-1.1322863101959229,-0.23858007788658142
1700516805714756000,7.086756103515625,0.018761437386274338,1.3745166063308716,-0.33467891812324524
1700516805724767000,7.09676708984375,-0.006986004300415516,-0.9267294406890869,0.23546577990055084
1700516805734777000,7.106777099609375,-0.04952094703912735,0.682475209236145,0.38077476620674133
1700516805744788000,7.1167880859375,-0.02376045659184456,-0.568827211856842,0.6173250079154968
1700516805754797800,7.1267978515625,-0.12885251641273499,-0.1961631178855896,0.11115661263465881
1700516805764809000,7.13680908203125,0.06629619747400284,0.6334757208824158,-0.17362664639949799
1700516805774818800,7.14681884765625,-0.057009223848581314,-0.9834572076797485,-0.39299869537353516
1700516805784830000,7.156829833984375,-0.04586682468652725,1.5563526153564453,-0.5677965879440308
1700516805794839800,7.16683984375,0.05560120940208435,-1.3137730360031128,-0.4182491898536682
1700516805804851000,7.176850830078125,-0.062070026993751526,0.6888998746871948,-0.14338353276252747
1700516805814860800,7.18686083984375,-0.008925850503146648,-0.2524295747280121,0.37397199869155884
1700516805824872000,7.196871826171875,0.004607268609106541,0.034385405480861664,0.4196169674396515
1700516805834882000,7.206882080078125,-0.046190131455659866,-0.2837214767932892,0.5227851867675781
1700516805844893000,7.216892822265625,-0.09883417189121246,-0.5947818756103516,0.08501822501420975
1700516805854903000,7.226903076171875,0.17467433214187622,1.1976280212402344,-0.196468323469162
1700516805864914000,7.236913818359375,-0.002010686555877328,-0.8822067379951477,0.3040192723274231
1700516805874924000,7.246924072265625,-0.006416087504476309,0.7993925213813782,-0.10560685396194458
1700516805884935000,7.256934814453125,0.03689676523208618,-0.9196619391441345,0.02816772274672985
1700516805894945000,7.266945068359375,0.0191971305757761,0.9770767688751221,-0.15940643846988678
1700516805904956000,7.276955810546875,-0.024518659338355064,-0.762123703956604,0.21486224234104156
1700516805914965800,7.2869658203125,-0.07435758411884308,0.04486707225441933,-0.17890450358390808
1700516805924977000,7.296976806640625,0.03573189675807953,-0.1548393815755844,-0.09964190423488617
1700516805934986800,7.30698681640625,-0.015400527976453304,-0.4452344477176666,-0.23815211653709412
1700516805944998100,7.316998046875,0.08765368908643723,0.7479072213172913,-0.12954361736774445
1700516805955008000,7.327008056640625,-0.028990106657147408,-0.8987151384353638,0.06450895220041275
1700516805965019000,7.337018798828125,-0.051780108362436295,0.8083016276359558,0.2173166126012802
1700516805975029000,7.347029052734375,-0.011920841410756111,-0.8299435377120972,0.37114956974983215
1700516805985040000,7.357039794921875,0.04074237123131752,1.2638072967529297,0.2508455514907837
1700516805995051000,7.367051025390625,-0.015001852996647358,-0.4317503273487091,0.7944377064704895
1700516806005060900,7.377060791015625,0.061412494629621506,0.9252886772155762,0.24550536274909973
1700516806015071700,7.38707177734375,0.026428943499922752,-0.7342313528060913,-0.04459116980433464
1700516806025081900,7.397081787109375,-0.10718157887458801,0.8180325627326965,-0.563827395439148
1700516806035092700,7.4070927734375,-0.06592362374067307,-0.6743171811103821,0.26524046063423157
1700516806045102800,7.417102783203125,-0.009098423644900322,0.07103529572486877,-0.2906203866004944
1700516806055114000,7.427114013671875,0.060445498675107956,-0.5542812943458557,-0.27220621705055237
1700516806065124000,7.4371240234375,-0.011572766117751598,0.06459897011518478,-0.7673190236091614
1700516806075135000,7.447135009765625,0.07092530280351639,0.018631208688020706,-0.20558138191699982
1700516806085145000,7.45714501953125,0.08207729458808899,-0.19704142212867737,-0.10072607547044754
1700516806095156000,7.467156005859375,0.006369748618453741,0.3616223931312561,0.0438244454562664
1700516806105166000,7.477166015625,0.026502979919314384,-1.030415415763855,-0.08786460757255554
1700516806115177000,7.487177001953125,0.07698293030261993,1.046277642250061,-0.18333573639392853
1700516806125186800,7.497186767578125,0.03002394549548626,-0.5089705586433411,-0.08804623782634735
1700516806135198000,7.507197998046875,-0.10603642463684082,0.5516660809516907,0.006253635045140982
1700516806145207800,7.517207763671875,-0.024636637419462204,-0.5359470248222351,0.23145052790641785
1700516806155219000,7.527218994140625,0.06804483383893967,0.8455342054367065,0.30970299243927
1700516806165228800,7.537228759765625,0.0062728095799684525,-0.303090363740921,0.7030995488166809
1700516806175239700,7.54723974609375,-0.008754342794418335,0.6690507531166077,0.8865018486976624
1700516806185249800,7.557249755859375,0.07196447253227234,-0.02382730133831501,0.0892566442489624
1700516806195261000,7.567260986328125,0.04195623844861984,0.3391122817993164,0.32924288511276245
1700516806205271000,7.57727099609375,0.05854746699333191,-0.042565036565065384,0.1820307821035385
1700516806215282000,7.587281982421875,0.10998429358005524,0.16175241768360138,0.30208343267440796
1700516806225292800,7.597292724609375,0.043059054762125015,0.23303085565567017,-0.4529075622558594
1700516806235303000,7.607302978515625,0.0888446494936943,0.030438067391514778,0.020186495035886765
1700516806245313800,7.617313720703125,0.06728263199329376,-0.16688193380832672,-0.3460088074207306
1700516806255324000,7.627323974609375,0.15165024995803833,-0.042518433183431625,-0.23077382147312164
1700516806265334800,7.637334716796875,-0.024040088057518005,-0.3324381411075592,-0.6224744915962219
1700516806275345000,7.647344970703125,-0.026997528970241547,0.13946281373500824,-0.03579208627343178
1700516806285355800,7.657355712890625,-0.1547837257385254,-0.7228993773460388,-0.41776636242866516
1700516806295366000,7.667365966796875,-0.16017422080039978,0.30394044518470764,-0.2581591010093689
1700516806305377000,7.677376953125,0.11746671050786972,-0.3042302131652832,-0.31582745909690857
1700516806315387100,7.68738720703125,0.07123582810163498,0.11841586232185364,0.17953673005104065
1700516806325398000,7.69739794921875,0.0011667308863252401,0.07391203939914703,0.0703577846288681
1700516806335407900,7.707407958984375,-0.10221398621797562,-0.49537432193756104,0.12876011431217194
1700516806345419000,7.7174189453125,0.07367581874132156,0.488502562046051,-0.24479269981384277
1700516806355428900,7.727428955078125,0.0539947934448719,-0.2640627920627594,-0.009755957871675491
1700516806365440000,7.73743994140625,-0.1152014210820198,0.23567324876785278,0.04404468834400177
1700516806375449900,7.747449951171875,-0.021211812272667885,-0.4562109410762787,0.048767540603876114
1700516806385460700,7.757460693359375,0.04800134897232056,0.9675663709640503,0.1624791920185089
1700516806395470800,7.767470947265625,0.07114768028259277,-0.6951944828033447,0.41318705677986145
1700516806405481700,7.777481689453125,0.07391736656427383,0.5527982115745544,0.4347653090953827
1700516806415491800,7.787491943359375,0.09196721017360687,0.15363164246082306,-0.21627184748649597
1700516806425503000,7.7975029296875,0.06712231040000916,-0.13628779351711273,0.17776866257190704
1700516806435513000,7.80751318359375,0.057610563933849335,0.43225741386413574,-0.02082591876387596
1700516806445524000,7.81752392578125,0.19833092391490936,-0.9073855876922607,-0.09596141427755356
1700516806455534000,7.8275341796875,0.0028871328104287386,0.8307259678840637,-0.34214428067207336
1700516806465545000,7.837544921875,0.08369569480419159,-0.4752618670463562,0.4397302269935608
1700516806475555800,7.847555908203125,0.08385894447565079,0.37815555930137634,0.40465986728668213
1700516806485566000,7.85756591796875,0.1437545120716095,-0.3880145847797394,-0.19038724899291992
1700516806495576800,7.867576904296875,0.0258084274828434,0.46929559111595154,0.16802069544792175
1700516806505587000,7.8775869140625,0.06454570591449738,-0.08325254917144775,0.0623408704996109
1700516806515597800,7.887597900390625,0.1908879280090332,-0.42784854769706726,0.18417276442050934
1700516806525608000,7.89760791015625,-0.009751963429152966,0.7521864175796509,-0.31325939297676086
1700516806535619000,7.907619140625,0.013307549990713596,-0.4523664116859436,0.19360461831092834
1700516806545629000,7.91762890625,-0.004846686962991953,0.3563445210456848,0.12260367721319199
1700516806555640000,7.92764013671875,0.019347066059708595,-0.4624480605125427,-0.3407312333583832
1700516806565650200,7.937650146484375,-0.07419140636920929,0.45895159244537354,-0.43538743257522583
1700516806575661000,7.9476611328125,0.04501301422715187,-0.5948929190635681,-0.23196931183338165
1700516806585671200,7.957671142578125,0.023366576060652733,-0.2529747486114502,-0.1982148140668869
1700516806595682300,7.967682373046875,0.11670184880495071,0.36310896277427673,-0.7015642523765564
1700516806605692400,7.9776923828125,0.10330827534198761,0.16002775728702545,0.15962934494018555
1700516806615703300,7.987703369140625,0.11803023517131805,0.23618510365486145,0.7378234267234802
1700516806625713400,7.99771337890625,0.29515600204467773,-0.3056238293647766,0.3242257535457611
1700516806635724300,8.007724365234376,0.014510765671730042,1.0019690990447998,0.19071295857429504
1700516806645734400,8.017734375,0.18238206207752228,-0.21786601841449738,0.4729292094707489
1700516806655745300,8.027745361328124,0.25821930170059204,-0.22003889083862305,0.4795479476451874
1700516806665755400,8.03775537109375,-0.010516024194657803,0.7139666080474854,-0.46046507358551025
1700516806675766300,8.047766357421875,0.02876959554851055,-0.3892422914505005,0.053572945296764374
1700516806685776100,8.057776123046875,-0.0033659692853689194,0.17802725732326508,0.16040804982185364
1700516806695787300,8.067787353515625,0.04386652261018753,-0.6538145542144775,-0.3503817021846771
1700516806705797000,8.077797119140625,-0.08608774840831757,0.46957334876060486,-0.3747381865978241
1700516806715808500,8.08780859375,0.0129323098808527,-0.6848039031028748,-0.14075657725334167
1700516806725818400,8.097818359375,0.08864092081785202,-0.543725848197937,-0.10707905143499374
1700516806735829200,8.107829345703125,0.04379941150546074,0.6209554076194763,-0.2719465494155884
1700516806745839400,8.11783935546875,0.05272340029478073,-0.3797667622566223,0.2887929081916809
1700516806755850200,8.127850341796876,0.02267788164317608,0.5523228049278259,0.15426653623580933
1700516806765860400,8.1378603515625,0.14813567698001862,-0.3157030940055847,-0.4263899326324463
1700516806775871200,8.147871337890624,0.10877388715744019,0.41282325983047485,0.36301469802856445
1700516806785881300,8.15788134765625,0.06850262731313705,0.36830613017082214,0.839892566204071
1700516806795892200,8.167892333984375,0.2363097369670868,-0.4363836944103241,0.2400868982076645
1700516806805902300,8.17790234375,0.034938275814056396,0.7552090883255005,-0.24479857087135315
1700516806815913200,8.187913330078125,0.07498582452535629,-0.4993400275707245,0.1221136599779129
1700516806825923300,8.19792333984375,0.05746835097670555,-0.023974308744072914,0.17207668721675873
1700516806835934500,8.2079345703125,0.030585072934627533,0.31654757261276245,-0.3528022766113281
1700516806845944300,8.2179443359375,0.18994224071502686,-0.4252953827381134,0.07656241953372955
1700516806855955500,8.22795556640625,0.038966841995716095,0.4407310485839844,-0.06712257862091064
1700516806865966300,8.23796630859375,0.16577884554862976,-0.6631481647491455,-0.31027159094810486
1700516806875976400,8.2479765625,0.09737129509449005,0.38210421800613403,-0.1776576042175293
1700516806885987300,8.2579873046875,0.10777067393064499,0.013685718178749084,0.16463609039783478
1700516806895997200,8.2679970703125,0.2746291756629944,-0.2690548896789551,0.23073920607566833
1700516806906008300,8.27800830078125,0.06544824689626694,0.7650628089904785,-0.3766244947910309
1700516806916018200,8.28801806640625,0.13303129374980927,-0.3154626190662384,0.2886168956756592
1700516806926029300,8.298029296875,0.08188474923372269,0.319488525390625,0.5169038772583008
1700516806936039200,8.3080390625,0.10700740665197372,0.03596172854304314,-0.31030088663101196
1700516806946050300,8.31805029296875,0.03718651831150055,0.46303796768188477,0.3411354720592499
1700516806956060400,8.328060302734375,0.008893893100321293,0.3087511956691742,0.6405834555625916
1700516806966071300,8.3380712890625,0.1854686588048935,-0.531173050403595,0.13069729506969452
1700516806976081400,8.348081298828125,0.009527991525828838,0.6360299587249756,-0.22337396442890167
1700516806986092300,8.35809228515625,0.0674983486533165,-0.4965823292732239,0.26020628213882446
1700516806996102400,8.368102294921876,0.15756885707378387,-0.2151900678873062,-0.09481412917375565
1700516807006113300,8.37811328125,-0.05904015153646469,0.37715792655944824,-0.6549802422523499
1700516807016123400,8.388123291015624,0.1294567883014679,-0.4913902282714844,-0.3576556146144867
1700516807026134300,8.39813427734375,-0.10160918533802032,0.2972588539123535,-0.5127706527709961
1700516807036144400,8.408144287109375,0.14153209328651428,-1.0715564489364624,-0.7581803798675537
1700516807046155300,8.4181552734375,-0.0037987329997122288,0.77847820520401,-0.4789586067199707
1700516807056165000,8.4281650390625,0.113895945250988,-0.34423619508743286,-0.061111025512218475
1700516807066176300,8.43817626953125,0.07093781977891922,-0.290386825799942,0.2659027874469757
1700516807076186000,8.44818603515625,0.09800352901220322,1.0083692073822021,0.060866281390190125
1700516807086197500,8.458197509765625,0.055579639971256256,-0.07809507101774216,0.5344708561897278
1700516807096207400,8.468207275390625,0.01375469472259283,0.5853484272956848,0.7334042191505432
1700516807106218200,8.47821826171875,0.08940551429986954,0.2960606813430786,-0.05952271446585655
1700516807116228400,8.488228271484376,0.07678532600402832,-0.015001852996647358,0.19076116383075714
1700516807126239200,8.4982392578125,0.000782436749432236,0.34724530577659607,0.26403456926345825
1700516807136249300,8.508249267578124,0.08973468095064163,-0.8472580909729004,-0.10263955593109131
1700516807146260200,8.51826025390625,-0.06827838718891144,0.5384752154350281,-0.4782182276248932
1700516807156270300,8.528270263671875,0.059172775596380234,-0.7378367781639099,-0.17153021693229675
1700516807166281200,8.53828125,0.15754781663417816,-0.10988016426563263,-0.26178207993507385
1700516807176291300,8.548291259765625,0.046364568173885345,0.3389466404914856,-0.4419816732406616
1700516807186302200,8.55830224609375,0.16331249475479126,-0.1900346577167511,0.03665095567703247
1700516807196312000,8.56831201171875,0.07813181728124619,0.49882206320762634,0.3247320055961609
1700516807206323500,8.578323486328125,0.13294580578804016,-0.5748350620269775,-0.2766084372997284
1700516807216333300,8.588333251953125,-0.0037984666414558887,0.6443571448326111,-0.470872163772583
1700516807226344400,8.598344482421876,0.01960992068052292,-0.19071455299854279,-0.0181672852486372
1700516807236354300,8.608354248046876,0.08651145547628403,-0.630174458026886,-0.13007810711860657
1700516807246365200,8.618365234375,-0.01432354561984539,0.6325857043266296,-0.3580143451690674
1700516807256375300,8.628375244140624,0.00723447697237134,-0.516069769859314,0.2260720133781433
1700516807266386200,8.63838623046875,0.052499160170555115,0.012763998471200466,0.3762740194797516
1700516807276396300,8.648396240234375,0.0664575845003128,0.40096473693847656,0.0651949793100357
1700516807286407200,8.6584072265625,0.10047654062509537,0.04201802238821983,0.4172523617744446
1700516807296417300,8.668417236328125,0.0941334217786789,0.6945635676383972,0.5311118364334106
1700516807306428200,8.67842822265625,0.16772349178791046,-0.014826616272330284,0.44892454147338867
1700516807316438300,8.688438232421875,0.10950039327144623,0.20146706700325012,0.24242621660232544
1700516807326449400,8.698449462890625,-0.00911227148026228,0.0582507885992527,0.004653341136872768
1700516807336459500,8.70845947265625,0.19890724122524261,-0.4319751262664795,-0.12500664591789246
1700516807346470400,8.718470458984376,-0.14693938195705414,0.39750075340270996,-0.4164491593837738
1700516807356480300,8.728480224609376,-0.03653137758374214,-0.5688197612762451,0.15071441233158112
1700516807366491400,8.738491455078124,-0.0323648639023304,0.024223314598202705,-0.161091148853302
1700516807376501200,8.748501220703124,-0.054068826138973236,0.02659805491566658,-0.5925405621528625
1700516807386512400,8.758512451171875,0.0577130988240242,-0.3465888500213623,0.09610336273908615
1700516807396522200,8.768522216796875,0.05318678915500641,0.3726135194301605,0.429473340511322
1700516807406533000,8.778533203125,0.22385174036026,-0.5288295149803162,0.19229567050933838
1700516807416543200,8.788543212890625,0.061947524547576904,0.33082371950149536,-0.16650748252868652
1700516807426554000,8.79855419921875,0.021876802667975426,0.039451535791158676,-0.07636294513940811
1700516807436564200,8.808564208984375,0.1608288288116455,-0.3815723955631256,0.12019991129636765
1700516807446575400,8.818575439453125,-0.08336412906646729,0.6341399550437927,-0.38742440938949585
1700516807456585500,8.82858544921875,-0.009813481941819191,-0.36145249009132385,0.02906068041920662
1700516807466596400,8.838596435546876,-0.13655970990657806,0.22931255400180817,-0.04832412302494049
1700516807476606500,8.8486064453125,0.03278404474258423,-0.5602704882621765,-0.3857695460319519
1700516807486617300,8.858617431640624,-0.08494099229574203,0.19999167323112488,0.01624608226120472
1700516807496627500,8.86862744140625,-0.002663427498191595,-0.24331438541412354,0.27125492691993713
1700516807506638300,8.878638427734375,0.2030295431613922,-0.3155560791492462,0.28500857949256897
1700516807516648200,8.888648193359375,0.06175417825579643,0.6224305629730225,0.35310691595077515
1700516807526659300,8.898659423828125,0.15681837499141693,-0.23556804656982422,0.902737557888031
1700516807536669200,8.908669189453125,0.2943224310874939,0.2241358906030655,0.9319902658462524
1700516807546680300,8.918680419921875,0.12194295227527618,0.47100719809532166,-0.11893890053033829
1700516807556690200,8.928690185546875,0.07180574536323547,-0.2353755086660385,0.0932372659444809
1700516807566699300,8.93869921875,0.07356715947389603,0.3484717011451721,0.36081811785697937
1700516807576710100,8.948710205078125,0.1931132674217224,-0.2435830980539322,-0.2509046494960785
1700516807586720300,8.95872021484375,0.03433720022439957,-0.230614572763443,-0.4164944291114807
1700516807596731100,8.968731201171876,-0.016091085970401764,0.16848434507846832,-0.5406230092048645
1700516807606741200,8.9787412109375,0.16084054112434387,-0.8430204391479492,-0.1333753615617752
1700516807616752000,8.988752197265624,-0.07878988981246948,0.5480420589447021,-0.6216294765472412
1700516807626762200,8.99876220703125,0.014858840964734554,-0.4573904573917389,-0.05577351525425911
1700516807636773000,9.008773193359374,0.023568442091345787,0.024353809654712677,0.22400353848934174
1700516807646783200,9.018783203125,0.04861307516694069,-0.21030797064304352,-0.5272824764251709
1700516807656794000,9.028794189453125,-0.09260530024766922,0.08844198286533356,0.007851531729102135
1700516807666804000,9.038803955078125,-0.027057183906435966,0.08392712473869324,0.5094432830810547
1700516807676815400,9.0488154296875,0.08350741118192673,-0.8563125729560852,0.09043668955564499
1700516807686825200,9.0588251953125,-0.1863941103219986,0.6910343766212463,-0.5015877485275269
1700516807696836400,9.06883642578125,-0.03989601880311966,-0.22859083116054535,0.17471854388713837
1700516807706846200,9.07884619140625,0.06898971647024155,-0.1705522984266281,0.6967961192131042
1700516807716857000,9.088857177734376,-0.0507047213613987,0.43235328793525696,-0.05536046251654625
1700516807726867200,9.0988671875,-0.0978970006108284,-0.3173750340938568,0.36635535955429077
1700516807736878000,9.108878173828124,-0.06302583962678909,0.3147291839122772,0.24745666980743408
1700516807746888200,9.11888818359375,0.09593478590250015,-0.3048115670681,-0.4335828721523285
1700516807756899000,9.128899169921874,-0.12808020412921906,0.0918596163392067,0.0701250284910202
1700516807766909200,9.1389091796875,0.03617797791957855,0.04117752984166145,0.22506773471832275
1700516807776920000,9.148920166015625,0.11480914056301117,-0.7637317180633545,-0.011724034324288368
1700516807786930200,9.15893017578125,-0.13834641873836517,0.5735096335411072,-0.40157780051231384
1700516807796941300,9.16894140625,0.017003484070301056,-0.11159523576498032,-0.0781904086470604
1700516807806951200,9.178951171875,-0.03503601625561714,-0.0559074729681015,-0.28919506072998047
1700516807816962300,9.18896240234375,0.0013366405619308352,0.033355291932821274,-0.9676752686500549
1700516807826972200,9.19897216796875,-0.1107744500041008,-0.36075764894485474,-0.5541031360626221
1700516807836983300,9.2089833984375,-0.09177891910076141,-0.03329271078109741,-0.6602075099945068
1700516807846993200,9.2189931640625,0.08749203383922577,-0.37399888038635254,-0.2285844385623932
1700516807857004300,9.22900439453125,-0.0779227614402771,0.3116638958454132,-0.038776956498622894
1700516807867014100,9.23901416015625,0.0001656486128922552,-0.36512258648872375,0.13793310523033142
1700516807877025000,9.24902490234375,-0.23642292618751526,0.6569600105285645,0.7650521397590637
1700516807887035100,9.25903515625,-0.010830809362232685,-0.44946008920669556,0.11409727483987808
1700516807897046000,9.2690458984375,-0.0908697172999382,0.5308350920677185,0.2818838953971863
1700516807907056000,9.27905615234375,-0.22614417970180511,0.3741285800933838,0.5217990279197693
1700516807917066000,9.28906591796875,0.022190522402524948,-0.3541777729988098,0.050226420164108276
1700516807927077000,9.2990771484375,-0.10744550079107285,0.6802808046340942,0.06149425357580185
1700516807937087000,9.3090869140625,-0.17740914225578308,-0.2603018879890442,0.4954259991645813
1700516807947098400,9.319098388671875,-0.04460368677973747,-0.44282323122024536,-0.011958658695220947
1700516807957108200,9.329108154296875,-0.12579920887947083,0.7466545104980469,-0.9441148042678833
1700516807967119000,9.339119140625,-0.13321983814239502,-0.7404759526252747,0.18939389288425446
1700516807977129200,9.349129150390626,-0.08728963136672974,0.2241785079240799,0.05613171309232712
1700516807987140000,9.35914013671875,0.07187605649232864,0.10017853230237961,-0.3364392817020416
1700516807997150200,9.369150146484374,0.040828920900821686,-0.2927040457725525,0.22998766601085663
1700516808007161000,9.3791611328125,-0.030701186507940292,0.416473925113678,-0.1688593327999115
1700516808017171200,9.389171142578125,0.20331797003746033,-0.3729991316795349,-0.10211251676082611
1700516808027182000,9.39918212890625,-0.05404885485768318,0.44069910049438477,-0.025429725646972656
1700516808037192200,9.409192138671875,-0.06959878653287888,-0.5046035051345825,-0.23036663234233856
1700516808047203000,9.419203125,-0.03575693070888519,0.7529523372650146,-0.3299778997898102
1700516808057213200,9.429213134765625,0.0004348942020442337,-0.0030184267088770866,-0.22723208367824554
1700516808067224300,9.439224365234375,-0.07852862775325775,-0.042268626391887665,0.3807060718536377
1700516808077234200,9.449234130859375,-0.2790745198726654,0.19463951885700226,0.1792334020137787
1700516808087245300,9.459245361328126,-0.14715030789375305,-0.6881911754608154,-0.31855347752571106
1700516808097255200,9.469255126953126,-0.19348131120204926,0.6601848602294922,-0.40187421441078186
1700516808107266300,9.479266357421874,-0.19806115329265594,-0.5656900405883789,0.749036967754364
1700516808117276200,9.489276123046874,-0.14887788891792297,-0.05311568081378937,0.5193209648132324
1700516808127287000,9.499287109375,-0.12643730640411377,0.33079737424850464,-0.6852510571479797
1700516808137297200,9.509297119140625,-0.17605145275592804,-0.2695193588733673,0.1409083902835846
1700516808147308000,9.51930810546875,-0.1657934933900833,0.3105109930038452,0.3364296853542328
1700516808157318100,9.529318115234375,0.02448510378599167,-0.27564916014671326,-0.12124626338481903
1700516808167328000,9.539327880859375,-0.2011626660823822,0.09449135512113571,0.4384487271308899
1700516808177339100,9.549339111328125,0.027517911046743393,0.0023723437916487455,0.10536344349384308
1700516808187349000,9.559348876953125,-0.1508994996547699,-0.2441287785768509,0.539603590965271
1700516808197360400,9.5693603515625,-0.1311979740858078,0.5186948180198669,0.3165587782859802
1700516808207370200,9.579370361328126,-0.0014194648247212172,-0.22155742347240448,0.43375730514526367
1700516808217381000,9.589381103515626,-0.2621983289718628,0.15713715553283691,0.5649377107620239
1700516808227391200,9.59939111328125,0.025063274428248405,0.09708074480295181,-0.2870277762413025
1700516808237402000,9.609402099609374,-0.1711869239807129,-0.22967979311943054,0.15821227431297302
1700516808247412200,9.619412109375,-0.01997077837586403,-0.0710962787270546,-0.21472348272800446
1700516808257423000,9.629423095703125,0.03326527774333954,-0.8356238007545471,-0.6399407982826233
1700516808267433200,9.63943310546875,-0.16177797317504883,0.4818529188632965,-0.9745845794677734
1700516808277444000,9.649444091796875,-0.10504040122032166,-0.46022433042526245,0.09218744933605194
1700516808287454200,9.6594541015625,-0.11856872588396072,0.16923242807388306,-0.021704496815800667
1700516808297465000,9.669465087890625,0.10782233625650406,-0.1497436910867691,-0.4468640387058258
1700516808307475200,9.67947509765625,-0.04766073077917099,0.05626460537314415,0.6601364016532898
1700516808317486300,9.689486328125,-0.03501098230481148,0.45740535855293274,0.6964192986488342
1700516808327496000,9.699495849609375,0.015034609474241734,-0.28130385279655457,0.449311763048172
1700516808337507300,9.70950732421875,-0.17589353024959564,0.6291055083274841,0.08906516432762146
1700516808347517200,9.71951708984375,-0.14025457203388214,-0.06919531524181366,0.5464553236961365
1700516808357528300,9.7295283203125,-0.1657993495464325,-0.22805394232273102,0.6646885275840759
1700516808367538200,9.7395380859375,-0.12561464309692383,0.25740331411361694,-0.5233250260353088
1700516808377548300,9.74954833984375,-0.09876439720392227,-0.40348726511001587,0.2735588252544403
1700516808387559200,9.75955908203125,-0.12463966757059097,0.12241699546575546,0.38243207335472107
1700516808397569300,9.7695693359375,0.05104347690939903,-0.06433477997779846,-0.16530346870422363
1700516808407580200,9.779580078125,-0.11754900217056274,0.06510177254676819,0.5027790069580078
1700516808417590000,9.789590087890625,-0.05336468666791916,0.19537216424942017,-0.031208252534270287
1700516808427601200,9.79960107421875,0.005066930316388607,-0.07384412735700607,0.1561238169670105
1700516808437611000,9.809611083984375,-0.0438753105700016,0.41180485486984253,-0.3983931839466095
1700516808447622100,9.8196220703125,0.04729694128036499,-0.26039111614227295,-0.5163203477859497
1700516808457632000,9.829632080078126,-0.09858410060405731,0.31628552079200745,-0.4657895267009735
1700516808467643100,9.83964306640625,0.039925578981637955,-0.8949939012527466,-0.885248064994812
1700516808477653200,9.8496533203125,-0.10423639416694641,0.38292261958122253,-0.914537787437439
1700516808487664000,9.8596640625,-0.03852129355072975,-0.6932101845741272,-0.5676046013832092
1700516808497674200,9.86967431640625,-0.09557738900184631,-0.12421675771474838,-0.03286980092525482
1700516808507685000,9.87968505859375,0.02678687311708927,-0.1866077035665512,-0.6913619637489319
1700516808517695200,9.8896953125,0.012010057456791401,0.4058558940887451,0.3927387595176697
1700516808527706000,9.8997060546875,-0.06352730840444565,0.5039161443710327,0.6103482842445374
1700516808537716200,9.90971630859375,0.09380745142698288,0.0933709591627121,0.32974621653556824
1700516808547726000,9.91972607421875,-0.008549279533326626,0.6943111419677734,0.6160773038864136
1700516808557737200,9.9297373046875,-0.03873354569077492,0.43839094042778015,0.6534824967384338
1700516808567748000,9.939748046875,-0.02515888214111328,-0.47551432251930237,0.538933515548706
1700516808577759000,9.949759033203126,-0.15940137207508087,0.4526159465312958,-0.3143797814846039
1700516808587769000,9.95976904296875,0.015174957923591137,-0.35009196400642395,0.25493401288986206
1700516808597780000,9.969780029296874,-0.026706179603934288,-0.06992342323064804,0.4279223084449768
1700516808607790000,9.9797900390625,0.08159100264310837,0.21823912858963013,-0.48765620589256287
1700516808617801000,9.989801025390625,0.012562130577862263,-0.2635783851146698,-0.12852256000041962
1700516808627811000,9.99981103515625,0.05873308703303337,0.3654908835887909,-0.6589694023132324
1700516808637822200,10.009822265625,0.0840243324637413,-0.7162656784057617,-0.6427025198936462
1700516808647832000,10.01983203125,-0.08474738150835037,0.5719830989837646,-0.8251780867576599
1700516808657843200,10.02984326171875,0.06975537538528442,-0.3719407916069031,-0.5452430844306946
1700516808667853000,10.03985302734375,-0.1269986927509308,0.728495180606842,0.06631537526845932
1700516808677863200,10.04986328125,-0.00043835630640387535,-1.4091240167617798,-0.62418133020401
1700516808687874000,10.0598740234375,-0.09358587861061096,1.0127959251403809,-0.7953242659568787
1700516808697884200,10.06988427734375,-0.09214537590742111,-0.25270068645477295,-0.18085819482803345
1700516808707895000,10.07989501953125,-0.1084071695804596,-0.254154235124588,0.24926522374153137
1700516808717905200,10.0899052734375,0.11404427886009216,0.2733849287033081,-0.44823530316352844
1700516808727916000,10.099916015625,0.05277186632156372,-0.2045038789510727,-0.3343348503112793
1700516808737926000,10.10992578125,-0.16683638095855713,0.6695567965507507,0.10306486487388611
1700516808747937000,10.11993701171875,0.061460696160793304,-0.39067479968070984,-0.31630629301071167
1700516808757947000,10.12994677734375,0.04229925200343132,0.9025189280509949,0.666776716709137
1700516808767958000,10.1399580078125,0.03473640978336334,0.194844052195549,1.1438626050949097
1700516808777967900,10.1499677734375,0.33085596561431885,-0.4025256037712097,0.5715718865394592
1700516808787979000,10.15997900390625,-0.03804298862814903,0.9511812925338745,0.1540910303592682
1700516808797989000,10.169989013671875,0.061516888439655304,-0.1858242005109787,0.46348270773887634
1700516808807999200,10.179999267578125,0.06543626636266708,-0.002615490462630987,0.5746225118637085
1700516808818010000,10.190010009765626,0.01474539004266262,0.6067008376121521,-0.08577162772417068
1700516808828020000,10.20002001953125,0.1934773176908493,0.020178504288196564,0.08298037201166153
1700516808838031000,10.210031005859374,-0.05456097796559334,0.4219839870929718,0.05048021674156189
1700516808848041000,10.220041015625,0.2166478931903839,-0.556868314743042,-0.2723367214202881
1700516808858052000,10.230052001953124,-0.024351412430405617,0.10870277881622314,-0.43059080839157104
1700516808868062000,10.24006201171875,-0.014401842840015888,-0.21363984048366547,-0.2613559663295746
1700516808878073000,10.250072998046875,0.019234681501984596,-0.20381811261177063,-0.20586395263671875
1700516808888083000,10.2600830078125,0.023083215579390526,0.3013124465942383,-0.8149515390396118
1700516808898093800,10.27009375,-0.016515327617526054,-0.13801538944244385,0.42360904812812805
1700516808908104000,10.28010400390625,0.07086298614740372,0.3334517478942871,0.4084700644016266
1700516808918115000,10.290114990234375,0.10792220383882523,-0.5135418772697449,-0.13904337584972382
1700516808928125200,10.300125244140625,-0.020060792565345764,0.4703632593154907,0.19139446318149567
1700516808938135000,10.310135009765625,0.01600293442606926,-0.13120196759700775,0.8155398368835449
1700516808948146200,10.320146240234376,0.012193283066153526,-0.2712671756744385,0.8109639883041382
1700516808958156000,10.330156005859376,-0.028122980147600174,0.4565712809562683,-0.1407720297574997
1700516808968167200,10.340167236328124,0.02809794805943966,-0.4271819591522217,0.5175116062164307
1700516808978177000,10.350177001953124,0.008346347138285637,0.3907528519630432,0.26334482431411743
1700516808988188000,10.36018798828125,0.044136568903923035,-0.08632290363311768,-0.30450236797332764
1700516808998198000,10.370197998046875,-0.0124220484867692,0.10884498804807663,0.03202957287430763
1700516809008209000,10.380208984375,0.07752488553524017,0.37455734610557556,-0.07045499235391617
1700516809018219000,10.390218994140625,0.10490085184574127,-0.5582424998283386,-0.02562892995774746
1700516809028230000,10.40022998046875,-0.06769036501646042,0.5012623071670532,-1.9889872074127197
1700516809038240000,10.410239990234375,-0.002674879040569067,0.38108184933662415,1.2050864696502686
1700516809048249900,10.420249755859375,0.05993124470114708,-0.17049077153205872,1.5474965572357178
1700516809058261200,10.43026123046875,0.080629862844944,0.10093194246292114,-0.09575528651475906
1700516809068271000,10.44027099609375,-0.09452464431524277,-0.16593997180461884,-0.21540498733520508
1700516809078282200,10.4502822265625,-0.013262541964650154,0.38789525628089905,-0.15076927840709686
1700516809088292000,10.4602919921875,0.04206116870045662,-0.45591452717781067,0.1482539176940918
1700516809098303000,10.470302978515624,-0.0013491574209183455,0.3057953417301178,-0.10645294189453125
1700516809108313000,10.48031298828125,0.03579847887158394,-0.30261045694351196,0.031683627516031265
1700516809118324000,10.490323974609375,-0.011138404719531536,0.08085916191339493,-0.21297219395637512
1700516809128334000,10.500333984375,-0.04502100497484207,0.10254661738872528,-0.9195253252983093
1700516809138345000,10.510344970703125,0.014994928613305092,-0.14706481993198395,-0.470647931098938
1700516809148355000,10.52035498046875,-0.011536015197634697,0.22940629720687866,-0.6050206422805786
1700516809158365000,10.530364990234375,0.05182697996497154,-0.5355606079101562,-0.4517030119895935
1700516809168376000,10.5403759765625,-0.055461395531892776,0.7084234952926636,-0.514360785484314
1700516809178386000,10.550385986328125,-0.033963561058044434,-0.36789387464523315,0.0739583820104599
1700516809188397000,10.56039697265625,-0.05994908884167671,0.5937714576721191,0.35441774129867554
1700516809198407000,10.570406982421876,0.10273197293281555,0.0534919872879982,-0.14081516861915588
1700516809208418000,10.58041796875,-0.015218900516629219,0.3698004186153412,0.23068355023860931
1700516809218428200,10.59042822265625,-0.03765363618731499,0.2570759952068329,0.23046116530895233
1700516809228439000,10.60043896484375,0.07358180731534958,-0.4612232744693756,0.0928705483675003
1700516809238449200,10.61044921875,-0.06075789034366608,0.5330711007118225,-0.021437114104628563
1700516809248459000,10.620458984375,-0.03912236914038658,-0.39149239659309387,0.4019002914428711
1700516809258470100,10.63047021484375,-0.014464426785707474,0.034157704561948776,0.4013362526893616
1700516809268480000,10.64047998046875,0.0407455638051033,0.30492767691612244,-0.24539697170257568
1700516809278491100,10.6504912109375,0.06731672585010529,-0.1976747214794159,0.19774582982063293
1700516809288501000,10.6605009765625,0.04075515270233154,0.4653322696685791,0.22523817420005798
1700516809298512000,10.670511962890625,0.13486593961715698,-0.3488093912601471,0.1096268966794014
1700516809308522000,10.68052197265625,-0.02858344092965126,0.47849175333976746,0.053277336061000824
1700516809318532900,10.690532958984376,0.08339129388332367,0.0660376027226448,0.11115635186433792
1700516809328543000,10.70054296875,0.07239403575658798,-0.061052966862916946,0.240364670753479
1700516809338554000,10.71055419921875,0.06540483981370926,0.39077815413475037,-0.19358624517917633
1700516809348564200,10.720564208984374,-0.000493750034365803,-0.2199704498052597,0.39719903469085693
1700516809358574000,10.730573974609374,-0.027341609820723534,0.38754692673683167,0.16057902574539185
1700516809368585200,10.740585205078125,0.005915945861488581,-0.4240514039993286,-0.2652524411678314
1700516809378595000,10.750594970703125,-0.05518336221575737,0.2093859761953354,-0.09457896649837494
1700516809388606000,10.76060595703125,0.008256065659224987,-0.19707684218883514,0.1585046947002411
1700516809398616000,10.770615966796875,0.033367808908224106,-0.19542196393013,-0.019047195091843605
1700516809408627000,10.780626953125,-0.049311622977256775,0.4089600741863251,-0.3722316324710846
1700516809418637000,10.790636962890625,0.003977164626121521,-0.2794926166534424,0.17706160247325897
1700516809428648000,10.80064794921875,-0.00487305223941803,0.564714252948761,0.5355819463729858
1700516809438658000,10.810657958984375,0.08059604465961456,-0.22977407276630402,0.05434739589691162
1700516809448668000,10.82066796875,-0.011813249439001083,0.28677424788475037,0.05320436507463455
1700516809458679000,10.830678955078126,0.02701750211417675,0.12605780363082886,0.027393806725740433
1700516809468689000,10.84068896484375,0.09497524797916412,-0.24111008644104004,0.04476667195558548
1700516809478700300,10.8507001953125,0.05560946464538574,0.5152878165245056,-0.0970996543765068
1700516809488710000,10.8607099609375,0.09915854036808014,-0.21330802142620087,0.3526906669139862
1700516809498721000,10.870720947265625,0.011503524146974087,0.2637283205986023,0.22076140344142914
1700516809508731100,10.880731201171875,0.07384892553091049,-0.04892812669277191,-0.46963807940483093
1700516809518742000,10.890741943359375,0.04764927923679352,0.07398448139429092,-0.07006297260522842
1700516809528752000,10.900752197265625,-0.013243633322417736,0.02232661098241806,0.21699756383895874
1700516809538762000,10.910761962890625,0.08614952862262726,-0.4886181652545929,-0.04489077627658844
1700516809548773000,10.920773193359375,-0.03754391148686409,0.3731514811515808,-0.2647605538368225
1700516809558783000,10.930782958984375,0.0014383733505383134,-0.3410753011703491,-0.03646160289645195
1700516809568793900,10.9407939453125,-0.10948068648576736,0.41128289699554443,0.32600632309913635
1700516809578803700,10.9508037109375,0.09691829234361649,-0.23046596348285675,-0.44788482785224915
1700516809588814800,10.96081494140625,-0.11824382096529007,0.07144888490438461,0.01050190906971693
1700516809598824700,10.97082470703125,0.014394652098417282,0.10554639995098114,-0.12144120782613754
1700516809608835800,10.9808359375,0.049543317407369614,-0.42958465218544006,-0.09851245582103729
1700516809618846000,10.990845947265624,-0.026197249069809914,0.4113830029964447,-0.2679576873779297
1700516809628856000,11.00085595703125,-0.002740392694249749,-0.3373982608318329,0.07992013543844223
1700516809638867000,11.010866943359375,-0.03038613498210907,0.2642801105976105,0.14165034890174866
1700516809648876800,11.020876708984375,0.01503833755850792,0.08466215431690216,-0.47947046160697937
1700516809658888000,11.030887939453125,-0.029379460960626602,-0.0449024923145771,0.06332384794950485
1700516809668897800,11.040897705078125,-0.011323228478431702,0.2302960604429245,-0.04908844828605652
1700516809678909000,11.050908935546875,0.0601365752518177,-0.46169254183769226,-0.25499632954597473
1700516809688918800,11.060918701171875,-0.027596207335591316,0.45495977997779846,-0.11968618631362915
1700516809698929000,11.070928955078125,0.07796936482191086,-0.34373313188552856,0.5132926106452942
1700516809708939800,11.080939697265626,-0.02984284982085228,0.10144699364900589,0.48935237526893616
1700516809718950000,11.090949951171876,0.03753965348005295,0.12493554502725601,-0.4187977910041809
1700516809728960800,11.100960693359376,-0.009883256629109383,-0.20288732647895813,0.03862089663743973
1700516809738971000,11.110970947265624,0.04781758785247803,0.2924145460128784,0.23669669032096863
1700516809748982000,11.12098193359375,0.12164467573165894,-0.539000391960144,-0.08754076808691025
1700516809758991600,11.13099169921875,-0.027663318440318108,0.3057524561882019,-0.2333213984966278
1700516809769003000,11.1410029296875,0.049675676971673965,-0.1986377239227295,0.10408751666545868
1700516809779012900,11.151012939453125,-0.013530989177525043,0.06317603588104248,0.2767482399940491
1700516809789023000,11.16102294921875,0.05251407250761986,0.23754490911960602,-0.12720215320587158
1700516809799033900,11.171033935546875,-0.002739860210567713,-0.21178628504276276,0.17201358079910278
1700516809809044000,11.1810439453125,0.020451745018363,0.3508182168006897,0.039675772190093994
1700516809819054800,11.191054931640625,0.08420941978693008,-0.45849859714508057,-0.41596391797065735
1700516809829065000,11.20106494140625,-0.05524115264415741,0.2723905146121979,-0.18905992805957794
1700516809839075800,11.211075927734376,0.0032349417451769114,-0.3489276170730591,0.2877795994281769
1700516809849085700,11.221085693359376,-0.03442135825753212,-0.2516721785068512,0.2098965048789978
1700516809859095800,11.231095703125,-0.011802330613136292,0.27187225222587585,-0.3975481688976288
1700516809869106700,11.241106689453124,0.0031127026304602623,-0.4524417817592621,-0.05843082070350647
1700516809879116800,11.25111669921875,-0.033848777413368225,0.39478832483291626,0.17376753687858582
1700516809889127700,11.261127685546874,0.11106899380683899,-0.7673627138137817,-0.19852215051651
1700516809899137800,11.2711376953125,-0.04812651500105858,0.47951599955558777,-0.035700473934412
1700516809909149000,11.28114892578125,0.061639394611120224,-0.14769092202186584,-0.14195235073566437
1700516809919159000,11.291158935546875,0.08207249641418457,-0.06945524364709854,0.06778676807880402
1700516809929169000,11.3011689453125,0.0601634718477726,0.3251485228538513,-0.17206843197345734
1700516809939179800,11.3111796875,0.02268666960299015,-0.26590970158576965,0.49053484201431274
1700516809949190000,11.32118994140625,0.015532353892922401,0.3957175016403198,0.366678386926651
1700516809959200800,11.33120068359375,0.0859103798866272,-0.20449508726596832,-0.19451647996902466
1700516809969211000,11.3412109375,-0.017424795776605606,0.17193767428398132,-0.09564902633428574
1700516809979221800,11.3512216796875,-0.014331269077956676,-0.05438068509101868,0.12171977758407593
1700516809989231900,11.36123193359375,0.07828308641910553,-0.4779900014400482,0.3276694715023041
1700516809999241700,11.37124169921875,0.006277603097259998,0.17073605954647064,-0.08309914916753769
1700516810009252900,11.3812529296875,0.05681987479329109,-0.36586427688598633,0.2871774435043335
1700516810019262700,11.3912626953125,-0.020474381744861603,0.12404657900333405,0.10084965080022812
1700516810029273900,11.40127392578125,0.02203446254134178,-0.18570515513420105,-0.3526861369609833
1700516810039283700,11.41128369140625,-0.011511780321598053,-0.005647765472531319,-0.18958644568920135
1700516810049294800,11.421294921875,-0.045340582728385925,-0.04733795300126076,-0.31701841950416565
1700516810059305000,11.431304931640625,0.044742438942193985,-0.6299257278442383,-0.41699910163879395
1700516810069314800,11.441314697265625,-0.11836818605661392,0.5198016166687012,-0.7694442272186279
1700516810079326000,11.451325927734375,-0.05685822293162346,-0.4672260284423828,-0.13210929930210114
1700516810089335800,11.461335693359375,-0.029990922659635544,0.27169835567474365,0.2754528820514679
1700516810099347000,11.471346923828126,0.05787874758243561,-0.7180947661399841,-0.3543389141559601
1700516810109356800,11.481356689453126,-0.062250591814517975,0.2220996469259262,-0.2755860388278961
1700516810119367000,11.491366943359376,-0.03413959592580795,-0.2523025572299957,-0.43816322088241577
1700516810129377800,11.501377685546874,0.054309576749801636,-0.3662416338920593,-0.3179401457309723
1700516810139388000,11.511387939453124,-0.005497829522937536,0.6041836142539978,-0.27018994092941284
1700516810149398800,11.521398681640624,0.033004287630319595,-0.10513893514871597,0.18157511949539185
1700516810159409000,11.531408935546875,-0.043833501636981964,0.5010103583335876,0.6359604597091675
1700516810169419800,11.541419677734375,0.09273446351289749,0.0014066817238926888,0.04392671212553978
1700516810179430000,11.551429931640625,-0.005882656667381525,0.08004556596279144,0.2031906694173813
1700516810189439700,11.561439697265625,-0.0014583469601348042,0.318261057138443,0.3474346697330475
1700516810199450600,11.57145068359375,0.10363131761550903,-0.6449379920959473,0.31908372044563293
1700516810209460700,11.581460693359375,-0.048593368381261826,0.371305376291275,-0.02743215672671795
1700516810219472000,11.591471923828125,0.031182952225208282,-0.27640655636787415,-0.021086642518639565
1700516810229482000,11.60148193359375,-0.02251622825860977,0.17709222435951233,0.01088620349764824
1700516810239491800,11.611491943359376,0.03447701781988144,0.0848323330283165,-0.39958441257476807
1700516810249503000,11.6215029296875,0.047392815351486206,-0.20929090678691864,-0.04252402484416962
1700516810259512800,11.631512939453126,0.033317744731903076,0.22449809312820435,0.06343649327754974
1700516810269524000,11.64152392578125,0.13014867901802063,-0.6171854734420776,-0.36782941222190857
1700516810279533800,11.651533935546874,-0.03520352765917778,0.5009461641311646,-0.1785297989845276
1700516810289544000,11.6615439453125,0.02076040580868721,-0.33387836813926697,0.2372700721025467
1700516810299554800,11.671554931640625,-0.022160962224006653,0.09534169733524323,0.16587898135185242
1700516810309565000,11.68156494140625,-0.008627044036984444,0.29471391439437866,-0.36123543977737427
1700516810319575800,11.691575927734375,-0.0329185351729393,-0.24795840680599213,0.2919120192527771
1700516810329585700,11.701585693359375,-0.07059347629547119,0.2672135829925537,0.3152919113636017
1700516810339595800,11.711595703125,0.0280928872525692,-0.6809505820274353,-0.3369702994823456
1700516810349606700,11.721606689453125,-0.10170585662126541,0.39793911576271057,-0.08740600943565369
1700516810359616800,11.73161669921875,-0.05621160566806793,-0.30951765179634094,0.40304678678512573
1700516810369628000,11.7416279296875,-0.014009824953973293,-0.368167906999588,0.42875295877456665
1700516810379637800,11.7516376953125,-0.02353462018072605,0.4912749230861664,-0.3727962076663971
1700516810389649000,11.76164892578125,0.027960527688264847,-0.35988226532936096,0.09128863364458084
1700516810399659000,11.771658935546874,-0.015155782923102379,0.2553689181804657,0.22796232998371124
1700516810409668900,11.7816689453125,0.10105790942907333,-0.05753679573535919,-0.43839865922927856
1700516810419680000,11.791679931640624,-0.013189838267862797,0.25782355666160583,0.06959611922502518
1700516810429689900,11.80168994140625,0.08923986554145813,0.29270297288894653,0.2852506637573242
1700516810439700000,11.811699951171875,0.09823042899370193,-0.42940303683280945,0.12804771959781647
1700516810449710800,11.8217109375,-0.048527855426073074,0.5025805830955505,-0.04746605083346367
1700516810459721000,11.831720947265625,-0.0026341325137764215,-0.17156882584095,0.3254425525665283
1700516810469731800,11.84173193359375,-0.05279051139950752,0.1379762440919876,0.526689350605011
1700516810479741700,11.85174169921875,0.02347523160278797,-0.003433879930526018,-0.09372329711914062
1700516810489751800,11.861751708984375,-0.01600080356001854,-0.27281421422958374,0.17577822506427765
1700516810499762700,11.8717626953125,-0.010880877263844013,0.2819872200489044,0.10778025537729263
1700516810509772800,11.881772705078125,-0.02292981743812561,-0.5109208226203918,-0.1368795484304428
1700516810519783700,11.89178369140625,-0.04421406611800194,0.20176614820957184,-0.23418426513671875
1700516810529793800,11.901793701171876,-0.05402994528412819,-0.2839545011520386,-0.13737356662750244
1700516810539803600,11.9118037109375,-0.00980309583246708,-0.20134402811527252,-0.23420929908752441
1700516810549815000,11.92181494140625,-0.09168517589569092,0.34403806924819946,-0.7590541839599609
1700516810559825000,11.931824951171874,0.06396007537841797,-0.4475085437297821,-0.42711538076400757
1700516810569835800,11.941835693359375,-0.09346843510866165,0.5928963422775269,-0.4230431318283081
1700516810579845600,11.951845703125,0.09835825860500336,-1.0432087182998657,-0.7695627212524414
1700516810589855700,11.961855712890625,-0.039142608642578125,1.0306131839752197,-0.441509485244751
1700516810599866600,11.97186669921875,-0.017531588673591614,-0.3874651789665222,0.35117053985595703
1700516810609876700,11.981876708984375,0.10126643627882004,-0.10347605496644974,0.8333123922348022
1700516810619887600,11.9918876953125,0.029888922348618507,0.6342619061470032,0.924767255783081
1700516810629897500,12.0018974609375,0.036853622645139694,-0.4584197700023651,1.0141527652740479
1700516810639907600,12.011907470703125,-0.07022862136363983,0.037030454725027084,0.727377712726593
1700516810649918500,12.02191845703125,0.002915362361818552,0.016172578558325768,0.08913866430521011
1700516810659928600,12.031928466796876,0.0787305012345314,-0.15698641538619995,0.04719308018684387
1700516810669939700,12.041939697265626,0.02821752242743969,0.48096102476119995,-0.08399929851293564
1700516810679949800,12.05194970703125,0.09910794347524643,-0.5693468451499939,-0.7014721035957336
1700516810689959700,12.061959716796874,-0.0738915354013443,0.2609652876853943,-0.5129455924034119
1700516810699970800,12.071970703125,-0.04782851040363312,-0.4204034209251404,-0.6129118800163269
1700516810709980700,12.081980712890624,-0.006594785954803228,-0.031563520431518555,-0.5633485913276672
1700516810719990800,12.09199072265625,0.018132664263248444,0.4184856712818146,-0.6048041582107544
1700516810730001700,12.102001708984375,0.024231037124991417,0.2773895263671875,-0.24600231647491455
1700516810740011800,12.11201171875,-0.09232247620820999,0.26896408200263977,0.8669939637184143
1700516810750022700,12.122022705078125,0.14939402043819427,-0.36719051003456116,0.12931405007839203
1700516810760032800,12.13203271484375,0.07109388709068298,0.34191206097602844,0.2804974317550659
