time,seconds_elapsed,z,y,x
1700516798692586800,0.064586669921875,0.016625583171844482,0.004202462267130613,0.12896499037742615
1700516798702596600,0.0745966796875,-0.0025422517210245132,-0.019761990755796432,0.01433187909424305
1700516798712606700,0.084606689453125,0.01272920984774828,0.0605926476418972,0.0612075999379158
1700516798722616600,0.094616455078125,0.0052308132871985435,-0.05396854877471924,-0.015364671126008034
1700516798732626700,0.104626708984375,-0.019321303814649582,0.016283655539155006,-0.08156836032867432
1700516798742636800,0.11463671875,0.014883271418511868,-0.05944173038005829,0.10437087714672089
1700516798752646700,0.124646728515625,-0.006854804698377848,-0.000987919745966792,0.05928807705640793
1700516798762656800,0.13465673828125,-0.0037343790754675865,-0.023778719827532768,-0.060181595385074615
1700516798772666600,0.14466650390625,-0.032922033220529556,-0.011014326475560665,-0.12267722934484482
1700516798782676700,0.1546767578125,0.014879575930535793,-0.013678553514182568,0.13747206330299377
1700516798792686600,0.1646865234375,-0.004580924287438393,-0.02854953519999981,0.010753114707767963
1700516798802696700,0.17469677734375,0.002275650156661868,0.053674761205911636,0.08795922249555588
1700516798812706800,0.184706787109375,0.0038573979400098324,-0.022142620757222176,-0.041025035083293915
1700516798822716700,0.194716552734375,-0.022834934294223785,0.03334859758615494,-0.0768434926867485
1700516798832726800,0.204726806640625,0.013467091135680676,-0.04173056408762932,0.111687570810318
1700516798842736600,0.214736572265625,0.0026083183474838734,0.04918842390179634,0.08856121450662613
1700516798852746800,0.224746826171875,-0.0012157931923866272,0.012151003815233707,-0.06673833727836609
1700516798862756600,0.234756591796875,-0.017101548612117767,0.04789009317755699,-0.06759987026453018
1700516798872766700,0.2447666015625,0.02467435412108898,-0.013684074394404888,0.11482734233140945
1700516798882776800,0.25477685546875,0.016276076436042786,0.004736477509140968,-0.020412502810359
1700516798892786700,0.26478662109375,0.016093196347355843,0.03887571021914482,0.07334242016077042
1700516798902796800,0.274796875,0.01727537252008915,0.047318197786808014,-0.03893592581152916
1700516798912806700,0.284806640625,-0.010611499659717083,0.06733359396457672,-0.06336739659309387
1700516798922816800,0.294816650390625,-0.00035113905323669314,-0.029293613508343697,0.07833701372146606
1700516798932827000,0.304826904296875,0.013130255043506622,0.061279501765966415,0.0643310546875
1700516798942836700,0.314836669921875,0.010634340345859528,0.013159642927348614,-0.06887706369161606
1700516798952846800,0.324846923828125,-0.023292865604162216,0.046280741691589355,-0.07308944314718246
1700516798962856700,0.334856689453125,0.020144356414675713,0.004131160210818052,0.10177797079086304
1700516798972867800,0.344867919921875,0.006959330290555954,0.02479873038828373,-0.0028007840737700462
1700516798982877700,0.354877685546875,0.030677711591124535,0.08924297243356705,0.08263634890317917
1700516798992887800,0.3648876953125,-0.008170769549906254,-0.039538390934467316,-0.05157221853733063
1700516799002897700,0.374897705078125,-0.01061421912163496,0.03517579287290573,-0.08629025518894196
1700516799012907800,0.38490771484375,0.01460542343556881,-0.06106310337781906,0.1090221107006073
1700516799022917600,0.394917724609375,-0.005879345815628767,0.012491275556385517,0.03480992838740349
1700516799032927700,0.404927734375,0.004252931568771601,0.014512124471366405,-0.04674942418932915
1700516799042937900,0.414937744140625,-0.01700415462255478,0.03182906284928322,-0.07447799295186996
1700516799052947700,0.42494775390625,0.024495409801602364,-0.01929737627506256,0.10203523188829422
1700516799062957800,0.434957763671875,-0.00407817866653204,-0.0036683487705886364,-0.0009843632578849792
1700516799072967700,0.4449677734375,0.018604248762130737,0.06526235491037369,0.08577674627304077
1700516799082977800,0.454977783203125,0.0031669707968831062,0.01853400096297264,-0.007712723687291145
1700516799092987600,0.464987548828125,-0.011670106090605259,0.07470975071191788,-0.08876889199018478
1700516799102997800,0.474997802734375,0.015260044485330582,-0.0296105295419693,0.09975335001945496
1700516799113007900,0.4850078125,-0.008384224027395248,0.018968362361192703,0.0507681667804718
1700516799123017700,0.495017822265625,0.014514700509607792,0.030704915523529053,-0.06589400768280029
1700516799133027800,0.50502783203125,-0.018771637231111526,0.02306339517235756,-0.13213199377059937
1700516799143037700,0.51503759765625,0.019041787832975388,-0.013893555849790573,0.09785193204879761
1700516799153047800,0.5250478515625,-0.0033506941981613636,0.007946018129587173,0.018010657280683517
1700516799163058000,0.535057861328125,0.016048569232225418,0.09251709282398224,0.04138708487153053
1700516799173067800,0.54506787109375,-0.002066919580101967,-0.03156261146068573,-0.004745312966406345
1700516799183078000,0.555077880859375,-0.011268140748143196,0.05128726363182068,-0.12543152272701263
1700516799193087700,0.565087646484375,0.01471436396241188,-0.04940527305006981,0.1082693412899971
1700516799203097900,0.575097900390625,-0.004227103665471077,0.022405002266168594,0.061618488281965256
1700516799213107700,0.585107666015625,0.013253332115709782,0.022341109812259674,-0.04508442059159279
1700516799223117800,0.595117919921875,-0.01838715188205242,0.03333117440342903,-0.15435445308685303
1700516799233127700,0.605127685546875,0.015346729196608067,-0.021861162036657333,0.10003810375928879
1700516799243137500,0.615137451171875,-0.0052677360363304615,0.01266565453261137,0.02127431146800518
1700516799253147600,0.625147705078125,0.016964808106422424,0.09426631033420563,0.030253833159804344
1700516799263157500,0.635157470703125,0.0038537997752428055,-0.03473028540611267,-0.002412500325590372
1700516799273167600,0.645167724609375,-0.01287050824612379,0.0346066839993,-0.13108597695827484
1700516799283177700,0.655177734375,0.009267550893127918,-0.053715188056230545,0.0901113972067833
1700516799293187600,0.6651875,-0.002775474451482296,0.003073452739045024,0.05060432106256485
1700516799303197700,0.67519775390625,0.004533571191132069,0.010827246122062206,-0.03574255108833313
1700516799313207600,0.68520751953125,-0.02242783084511757,0.02498759515583515,-0.16267544031143188
1700516799323217700,0.6952177734375,0.007170541677623987,-0.01594492420554161,0.0961872786283493
1700516799333227500,0.7052275390625,-0.010413036681711674,-0.003228459507226944,0.02527478337287903
1700516799343237600,0.715237548828125,-0.0001958194188773632,0.10370704531669617,0.012924907729029655
1700516799353248500,0.72524853515625,-0.005539207253605127,-0.0670761913061142,0.02304469235241413
1700516799363258600,0.735258544921875,-0.012711899355053902,0.03711013123393059,-0.1661537140607834
1700516799373268500,0.7452685546875,0.01240191888064146,-0.05387317016720772,0.07827442139387131
1700516799383278600,0.755278564453125,-0.006897742860019207,0.002604489214718342,0.05523275211453438
1700516799393288700,0.765288818359375,0.01727759838104248,0.025011977180838585,-0.037660446017980576
1700516799403298600,0.775298583984375,-0.016146138310432434,-0.004137652926146984,-0.1843140721321106
1700516799413308700,0.78530859375,0.004745579324662685,-0.030288854613900185,0.06518993526697159
1700516799423318500,0.795318603515625,-0.011296236887574196,-0.036904413253068924,0.014447923749685287
1700516799433328600,0.80532861328125,-0.00531930522993207,0.09069082885980606,0.0020980467088520527
1700516799443338800,0.8153388671875,-0.00098847271874547,-0.06880749017000198,0.018811246380209923
1700516799453348600,0.8253486328125,-0.020237019285559654,0.015736453235149384,-0.18548160791397095
1700516799463358700,0.835358642578125,0.004727451596409082,-0.05824057012796402,0.04967179894447327
1700516799473368600,0.84536865234375,-0.0033363723196089268,-0.005967132747173309,0.06185062229633331
1700516799483378700,0.855378662109375,0.01353368815034628,0.020606953650712967,-0.016667354851961136
1700516799493388500,0.865388427734375,-0.022528978064656258,-0.0034355977550148964,-0.187449112534523
1700516799503398700,0.875398681640625,-0.002570715267211199,-0.03846948221325874,0.047560740262269974
1700516799513408800,0.88540869140625,-0.013458230532705784,-0.05166267231106758,0.03625600412487984
1700516799523418600,0.895418701171875,0.00026264169719070196,0.11027110368013382,0.018903113901615143
1700516799533428700,0.9054287109375,-0.0013930252753198147,-0.06791742891073227,0.05743943899869919
1700516799543438600,0.9154384765625,-0.01500843558460474,0.043655700981616974,-0.16232381761074066
1700516799553448700,0.92544873046875,0.005926556885242462,-0.04073607176542282,0.096601702272892
1700516799563458600,0.93545849609375,-0.007136514410376549,0.025018440559506416,0.10068006813526154
1700516799573468400,0.945468505859375,0.016318343579769135,0.0440116748213768,0.011383267119526863
1700516799583478500,0.955478515625,-0.01668035052716732,0.012449488043785095,-0.1626947969198227
1700516799593488100,0.965488037109375,0.005658852402120829,-0.007114322856068611,0.09603181481361389
1700516799603498200,0.975498291015625,-0.008697982877492905,-0.02600119449198246,0.0664326474070549
1700516799613508400,0.98550830078125,-0.013518627732992172,0.1047920435667038,0.009498397819697857
1700516799623518200,0.995518310546875,-0.0055536446161568165,-0.1021755188703537,0.06485912203788757
1700516799633528300,1.0055283203125,-0.017452022060751915,0.029265208169817924,-0.15855789184570312
1700516799643538200,1.0155380859375,0.011032350361347198,-0.03827042505145073,0.0850268006324768
1700516799653548300,1.02554833984375,-0.008139343932271004,0.0028910930268466473,0.07299847155809402
1700516799663558100,1.03555810546875,0.01697692647576332,0.01664578728377819,-0.012676486745476723
1700516799673568300,1.045568359375,-0.022100413218140602,-0.010155487805604935,-0.17694205045700073
1700516799683578400,1.055578369140625,0.0035136034712195396,-0.028403468430042267,0.06775104999542236
1700516799693588200,1.065588134765625,-0.007663229014724493,-0.04641786217689514,0.049904052168130875
1700516799703598300,1.075598388671875,-0.005771319381892681,0.11148814857006073,-0.009084697812795639
1700516799713608200,1.085608154296875,-0.0025329729542136192,-0.12127092480659485,0.06861039251089096
1700516799723618300,1.095618408203125,-0.02615547925233841,0.031887199729681015,-0.1857699602842331
1700516799733628200,1.105628173828125,0.010518854483962059,-0.04569447413086891,0.08891770988702774
1700516799743638300,1.11563818359375,-0.0127862012013793,0.00998610071837902,0.0855133980512619
1700516799753649200,1.125649169921875,0.019990157335996628,0.023900270462036133,-0.021854374557733536
1700516799763659300,1.1356591796875,-0.03227198123931885,-0.006371879950165749,-0.17315681278705597
1700516799773669000,1.145669189453125,0.012770957313477993,-0.03129865229129791,0.08388865739107132
1700516799783679200,1.15567919921875,-0.013226554729044437,-0.00899068545550108,0.06258443742990494
1700516799793689300,1.165689453125,0.005205030553042889,0.1383577436208725,0.025753121823072433
1700516799803699200,1.17569921875,-0.0006981322076171637,-0.06994751840829849,0.04813645780086517
1700516799813709300,1.185709228515625,-0.02047695219516754,0.04542587697505951,-0.15319353342056274
1700516799823719200,1.19571923828125,0.010272171348333359,-0.04243792966008186,0.10205074399709702
1700516799833729300,1.205729248046875,-0.0014912026235833764,0.03242136910557747,0.09784383326768875
1700516799843739400,1.215739501953125,0.01245230995118618,0.03797619044780731,-0.014960747212171555
1700516799853749200,1.225749267578125,-0.020349940285086632,0.04101231321692467,-0.17899318039417267
1700516799863759400,1.23575927734375,0.0077677140943706036,-0.02661599963903427,0.11917167156934738
1700516799873769200,1.245769287109375,-0.0060699936002492905,0.021610956639051437,0.056956470012664795
1700516799883779300,1.255779296875,0.020511815324425697,0.1238212138414383,0.0467405840754509
1700516799893789200,1.2657890625,-0.0006428330671042204,-0.034651465713977814,0.0074102431535720825
1700516799903799300,1.27579931640625,-0.01201586239039898,0.05870857462286949,-0.13897280395030975
1700516799913809400,1.285809326171875,0.017550935968756676,-0.03688759729266167,0.11331696063280106
1700516799923819300,1.2958193359375,0.0017458738293498755,0.038288913667201996,0.09765304625034332
1700516799933829400,1.305829345703125,0.012455352582037449,0.02583562768995762,-0.05697457119822502
1700516799943839200,1.315839111328125,-0.01688149757683277,0.06886458396911621,-0.168330118060112
1700516799953849300,1.325849365234375,0.018653860315680504,-0.04439698904752731,0.13047149777412415
1700516799963859200,1.335859130859375,0.006135938689112663,0.022868599742650986,0.01782803051173687
1700516799973869300,1.345869384765625,0.019681880250573158,0.0766463652253151,0.06489872187376022
1700516799983879400,1.35587939453125,0.008123228326439857,-0.017229799181222916,-0.028789417818188667
1700516799993889300,1.36588916015625,-0.01449596881866455,0.044211339205503464,-0.09954605251550674
1700516800003899400,1.3758994140625,0.012446966022253036,-0.057056959718465805,0.10578659176826477
1700516800013909200,1.3859091796875,0.004157951567322016,0.020979225635528564,0.09435532242059708
1700516800023919400,1.39591943359375,0.0058234925381839275,-0.004288580268621445,-0.07049062103033066
1700516800033929500,1.405929443359375,-0.029132148250937462,0.03333090618252754,-0.14214864373207092
1700516800043939300,1.415939208984375,0.023063678294420242,-0.05843629688024521,0.1322416365146637
1700516800053949400,1.425949462890625,0.007795278448611498,0.01677291840314865,0.00781446136534214
1700516800063959300,1.435959228515625,0.020540902391076088,0.05720662698149681,0.07548698037862778
1700516800073969400,1.445969482421875,-0.0009445510804653168,-0.03547420725226402,-0.049440786242485046
1700516800083980300,1.455980224609375,-0.02528131566941738,0.04252898320555687,-0.08493272960186005
1700516800093990400,1.465990478515625,0.017967982217669487,-0.05315665155649185,0.12138404697179794
1700516800104000300,1.476000244140625,0.001795404590666294,0.0382118783891201,0.07326684892177582
1700516800114010400,1.48601025390625,-0.0001910473220050335,-0.013533073477447033,-0.0907316729426384
1700516800124020200,1.496020263671875,-0.032094765454530716,0.014383521862328053,-0.09962337464094162
1700516800134030300,1.5060302734375,0.030674558132886887,-0.03820544853806496,0.1372348964214325
1700516800144040400,1.51604052734375,0.009490708820521832,0.02730511873960495,-0.02664351835846901
1700516800154050300,1.52605029296875,0.021428724750876427,0.027358215302228928,0.1104627251625061
1700516800164060400,1.536060302734375,0.0076790908351540565,-0.005060711409896612,-0.08128434419631958
1700516800174070300,1.5460703125,-0.016326377168297768,0.04495584964752197,-0.07147432118654251
1700516800184080400,1.556080322265625,0.01856449618935585,-0.037944626063108444,0.1180143803358078
1700516800194090200,1.56609033203125,0.01061288546770811,0.030012717470526695,0.06647925823926926
1700516800204100400,1.576100341796875,-0.0008384408429265022,-0.018806489184498787,-0.12431652843952179
1700516800214110500,1.5861103515625,-0.02770519070327282,0.01900411583483219,-0.07049126923084259
1700516800224120300,1.596120361328125,0.03933589532971382,-0.04492959380149841,0.1335635930299759
1700516800234130400,1.60613037109375,0.005916254594922066,0.0408952496945858,-0.042068153619766235
1700516800244140300,1.616140380859375,0.014041826128959656,-0.05477295443415642,0.12405743449926376
1700516800254150400,1.626150390625,-0.0018806138541549444,0.018968548625707626,-0.10860651731491089
1700516800264160500,1.636160400390625,-0.010017902590334415,0.021553944796323776,-0.015713326632976532
1700516800274170400,1.64617041015625,0.0054174382239580154,-0.012402395717799664,0.10552407056093216
1700516800284180500,1.656180419921875,0.012388529255986214,0.0026545850560069084,0.05183181166648865
1700516800294190300,1.6661904296875,-0.005697508342564106,-0.05113523080945015,-0.13461849093437195
1700516800304200400,1.676200439453125,-0.018638338893651962,0.012233086861670017,-0.03621494770050049
1700516800314210300,1.686210205078125,0.02612031064927578,-0.06178409978747368,0.11056122183799744
1700516800324220400,1.696220458984375,-0.009191340766847134,0.03593580052256584,-0.041994497179985046
1700516800334230500,1.70623046875,0.005454155616462231,-0.08912215381860733,0.10620534420013428
1700516800344240400,1.716240478515625,-0.005052014719694853,0.002006686059758067,-0.12641166150569916
1700516800354250500,1.72625048828125,-0.00936491321772337,0.00207201368175447,0.0052917092107236385
1700516800364260400,1.73626025390625,0.0007108903955668211,-0.008610724471509457,0.08322272449731827
1700516800374270500,1.7462705078125,0.014980657026171684,-0.0025156766641885042,0.026031404733657837
1700516800384281300,1.75628125,-0.015071784146130085,-0.054934676736593246,-0.15503984689712524
1700516800394291500,1.76629150390625,-0.009442768059670925,0.000450601102784276,-0.016683027148246765
1700516800404301300,1.77630126953125,0.015298796817660332,-0.06511402875185013,0.09808296710252762
1700516800414311400,1.7863115234375,-0.009422431699931622,0.06087467819452286,-0.048293858766555786
1700516800424321500,1.796321533203125,0.007451622746884823,-0.09715171158313751,0.10678653419017792
1700516800434331400,1.806331298828125,-0.007635117042809725,0.021444644778966904,-0.13980500400066376
1700516800444341500,1.816341552734375,-0.003268331754952669,-0.015295791439712048,0.025761062279343605
1700516800454351400,1.826351318359375,0.0006420164136216044,0.00239443383179605,0.0848212018609047
1700516800464361500,1.836361572265625,0.020573647692799568,0.0028074902947992086,0.0207668524235487
1700516800474371300,1.846371337890625,-0.017853833734989166,-0.0398758240044117,-0.1600441336631775
1700516800484381400,1.85638134765625,-0.004565192852169275,-0.0040541747584939,0.010463959537446499
1700516800494391600,1.8663916015625,0.009136812761425972,-0.05674958974123001,0.08731625229120255
1700516800504401400,1.8764013671875,-0.00953061506152153,0.09359730035066605,-0.02781379595398903
1700516800514411500,1.88641162109375,0.0006565791554749012,-0.0999642014503479,0.08842021226882935
1700516800524421000,1.896421142578125,-0.020276132971048355,0.018892675638198853,-0.1393631547689438
1700516800534431200,1.90643115234375,-0.001069987891241908,-0.027008293196558952,0.04442312940955162
1700516800544441300,1.91644140625,-0.004430897068232298,0.020751239731907845,0.07407956570386887
1700516800554451200,1.926451171875,0.01632443256676197,0.011778978630900383,0.02004092186689377
1700516800564461600,1.936461669921875,-0.01337540615350008,-0.028053123503923416,-0.15482649207115173
1700516800574471400,1.946471435546875,-0.0031640054658055305,0.00008292810525745153,0.023091163486242294
1700516800584481500,1.9564814453125,0.0006379232509061694,-0.047003354877233505,0.08556998521089554
1700516800594491400,1.966491455078125,-0.015222546644508839,0.08942415565252304,-0.029217157512903214
1700516800604502500,1.97650244140625,0.0038206540048122406,-0.09806344658136368,0.10224606096744537
1700516800614512400,1.986512451171875,-0.009371859952807426,0.028986265882849693,-0.14605173468589783
1700516800624522500,1.9965224609375,-0.0061528971418738365,-0.022994909435510635,0.04560504108667374
1700516800634532400,2.006532470703125,-0.0033108829520642757,0.008246643468737602,0.07571586966514587
1700516800644542500,2.01654248046875,0.01776404120028019,0.007571798749268055,0.013970747590065002
1700516800654552600,2.026552490234375,-0.01592971757054329,-0.039332520216703415,-0.1531277894973755
1700516800664562400,2.0365625,-0.0022439989261329174,0.0013938707998022437,0.020519902929663658
1700516800674572500,2.046572509765625,0.005007533356547356,-0.05318165197968483,0.07583652436733246
1700516800684582400,2.05658251953125,-0.0063955895602703094,0.07664425671100616,-0.036460183560848236
1700516800694592500,2.066592529296875,0.0027011800557374954,-0.09486424177885056,0.09818048775196075
1700516800704602400,2.076602294921875,-0.00807290431112051,0.017472950741648674,-0.1543247401714325
1700516800714612500,2.086612548828125,-0.010026619769632816,-0.03565812483429909,0.018436171114444733
1700516800724622600,2.09662255859375,-0.0013353935210034251,-0.018898852169513702,0.06871665269136429
1700516800734632400,2.106632568359375,0.019959919154644012,0.011376538313925266,0.010181961581110954
1700516800744642600,2.116642578125,-0.014708846807479858,-0.04122994840145111,-0.1631631851196289
1700516800754652400,2.12665234375,-0.001236192649230361,0.0007823774358257651,-0.008261336013674736
1700516800764662500,2.13666259765625,0.013009322807192802,-0.06596043705940247,0.0736689493060112
1700516800774672400,2.14667236328125,-0.012953266501426697,0.0690365880727768,-0.027583308517932892
1700516800784682500,2.1566826171875,0.0038219853304326534,-0.09030380100011826,0.0949319526553154
1700516800794693400,2.166693359375,-0.013585401698946953,0.031330227851867676,-0.15495611727237701
1700516800804703500,2.176703369140625,-0.003406267613172531,-0.011951197870075703,0.00837048701941967
1700516800814713600,2.186713623046875,-0.0000662545207887888,-0.00950584001839161,0.07435029745101929
1700516800824723500,2.196723388671875,0.02259618043899536,0.018324993550777435,0.025754529982805252
1700516800834733600,2.206733642578125,-0.0031380667351186275,-0.033682115375995636,-0.14805512130260468
1700516800844743400,2.216743408203125,-0.0006314996862784028,0.008765213191509247,-0.02449004165828228
1700516800854753500,2.22675341796875,0.016545789316296577,-0.07313433289527893,0.09288229048252106
1700516800864763400,2.236763427734375,0.000678675714880228,0.039322707802057266,-0.014069721102714539
1700516800874773500,2.2467734375,0.006099123507738113,-0.07055441290140152,0.09837842732667923
1700516800884783600,2.25678369140625,-0.003884800709784031,0.010954033583402634,-0.12334118783473969
1700516800894793500,2.26679345703125,-0.005583902820944786,-0.010360969230532646,0.01873103901743889
1700516800904803600,2.276803466796875,0.002670032437890768,-0.040745772421360016,0.0790708065032959
1700516800914813400,2.2868134765625,0.017717696726322174,0.02730371057987213,0.04181927815079689
1700516800924823600,2.296823486328125,0.003361394163221121,-0.05112611502408981,-0.1300496906042099
1700516800934833400,2.30683349609375,-0.0028569852001965046,0.0008554758969694376,-0.04389180243015289
1700516800944843500,2.316843505859375,0.025935780256986618,-0.07743693143129349,0.10416610538959503
1700516800954854400,2.3268544921875,0.006143222097307444,0.0035113077610731125,-0.032726798206567764
1700516800964864500,2.336864501953125,0.012436272576451302,-0.03981779143214226,0.10214953124523163
1700516800974874600,2.34687451171875,0.0018636643653735518,0.003470893483608961,-0.10790691524744034
1700516800984884500,2.356884521484375,-0.008417203091084957,0.012519782409071922,-0.040657833218574524
1700516800994894600,2.36689453125,0.00641652662307024,-0.046309541910886765,0.08321212977170944
1700516801004904400,2.376904541015625,0.005869779735803604,0.024093516170978546,0.03998982906341553
1700516801014914600,2.38691455078125,-0.006088456138968468,-0.055914491415023804,-0.10113473981618881
1700516801024924400,2.39692431640625,-0.016724323853850365,0.011128725484013557,-0.07939030230045319
1700516801034934500,2.4069345703125,0.022954903542995453,-0.054322823882102966,0.12227720022201538
1700516801044944600,2.416944580078125,0.010535253211855888,0.03385443612933159,-0.016809316352009773
1700516801054954500,2.42695458984375,0.028993897140026093,-0.003865403588861227,0.10902834683656693
1700516801064964600,2.436964599609375,-0.00048569816863164306,0.015525604598224163,-0.09052630513906479
1700516801074974500,2.446974365234375,-0.008445613086223602,0.02768844924867153,-0.05531102418899536
1700516801084984600,2.456984619140625,0.012340359389781952,-0.039505768567323685,0.10006817430257797
1700516801094995500,2.466995361328125,0.005684077739715576,0.04164569824934006,0.056662529706954956
1700516801105005600,2.477005615234375,0.006501136347651482,-0.018904464319348335,-0.07680418342351913
1700516801115015400,2.487015380859375,-0.02250763587653637,0.027585918083786964,-0.10573291778564453
1700516801125025500,2.497025634765625,0.024571193382143974,-0.04366828873753548,0.14000920951366425
1700516801135035400,2.507035400390625,0.004752661567181349,0.05883615091443062,0.005350670777261257
1700516801145045500,2.51704541015625,0.038134317845106125,0.04511554166674614,0.09253457188606262
1700516801155055600,2.5270556640625,-0.0019789200741797686,-0.006942393258213997,-0.043840423226356506
1700516801165065500,2.5370654296875,-0.010605698451399803,0.052703093737363815,-0.09422130137681961
1700516801175075600,2.54707568359375,0.016233107075095177,-0.05056949704885483,0.11042558401823044
1700516801185085400,2.55708544921875,-0.011143922805786133,0.03352513909339905,0.05334072560071945
1700516801195095600,2.567095458984375,0.0014009351143613458,-0.00621217954903841,-0.05970557779073715
1700516801205105700,2.577105712890625,-0.022143805399537086,0.028793474659323692,-0.12108796834945679
1700516801215116500,2.587116455078125,0.01913142018020153,-0.04797888174653053,0.1320764571428299
1700516801225126400,2.59712646484375,-0.005474590230733156,0.0485529862344265,0.00731081236153841
1700516801235136500,2.607136474609375,0.029111400246620178,0.058386996388435364,0.06349192559719086
1700516801245146600,2.617146728515625,-0.0029866155236959457,-0.03917018696665764,-0.0271650068461895
1700516801255156500,2.627156494140625,-0.012156081385910511,0.04290424659848213,-0.11908650398254395
1700516801265166600,2.63716650390625,0.02085513062775135,-0.060810431838035583,0.10380303114652634
1700516801275176400,2.647176513671875,-0.011278210207819939,0.0149780148640275,0.04392388090491295
1700516801285186600,2.6571865234375,0.009338385425508022,0.0051706572994589806,-0.05606210231781006
1700516801295196400,2.667196533203125,-0.021082643419504166,0.013087759725749493,-0.1413676142692566
1700516801305206500,2.67720654296875,0.01753425784409046,-0.048239246010780334,0.12611442804336548
1700516801315216600,2.687216552734375,-0.00887779425829649,0.027474353089928627,0.007392170839011669
1700516801325226500,2.6972265625,0.024568580090999603,0.05954759940505028,0.05640178918838501
1700516801335237400,2.7072373046875,-0.004203579388558865,-0.044151585549116135,-0.028518162667751312
1700516801345247500,2.71724755859375,-0.02460286021232605,0.013153783045709133,-0.11599501967430115
1700516801355257600,2.727257568359375,0.015112700872123241,-0.06655038148164749,0.08945608139038086
1700516801365267500,2.737267333984375,-0.00596861494705081,0.003586898557841778,0.04821676388382912
1700516801375277600,2.747277587890625,0.004640025552362204,0.005419245921075344,-0.04486843943595886
1700516801385287400,2.757287353515625,-0.04069842770695686,-0.007487231865525246,-0.1538926661014557
1700516801395297500,2.767297607421875,0.016377799212932587,-0.02383481338620186,0.1144043430685997
1700516801405307600,2.7773076171875,-0.021478770300745964,0.02501342073082924,0.03117736242711544
1700516801415317500,2.7873173828125,0.013923323713243008,0.09394845366477966,0.026023317128419876
1700516801425327600,2.79732763671875,-0.008158009499311447,-0.06846468895673752,0.015109416097402573
1700516801435338500,2.80733837890625,-0.027086155489087105,0.04010661691427231,-0.1490435004234314
1700516801445348600,2.8173486328125,0.015284203924238682,-0.058170415461063385,0.10822610557079315
1700516801455358500,2.8273583984375,-0.009841234423220158,0.027950480580329895,0.05482646822929382
1700516801465368600,2.83736865234375,0.014513107016682625,0.019210519269108772,-0.025301393121480942
1700516801475378400,2.84737841796875,-0.02987251803278923,0.026721082627773285,-0.16805635392665863
1700516801485388500,2.857388427734375,0.01459321565926075,-0.01260022260248661,0.11493860185146332
1700516801495398400,2.8673984375,-0.020210623741149902,0.028101123869419098,0.04318203032016754
1700516801505408500,2.877408447265625,0.004615629557520151,0.12171230465173721,0.03155786544084549
1700516801515418600,2.887418701171875,-0.004354160279035568,-0.05620570480823517,0.026032142341136932
1700516801525429500,2.897429443359375,-0.0181442741304636,0.040036410093307495,-0.14223594963550568
1700516801535439600,2.907439697265625,0.00947483442723751,-0.04330072179436684,0.09577777236700058
1700516801545449500,2.917449462890625,-0.006108918692916632,0.03057510033249855,0.0630086362361908
1700516801555459600,2.92745947265625,0.009860143065452576,0.026491176337003708,-0.012745577841997147
1700516801565469400,2.937469482421875,-0.02869151160120964,0.019920093938708305,-0.17152510583400726
1700516801575479600,2.9474794921875,0.007288697175681591,-0.015514461323618889,0.09991125017404556
1700516801585489400,2.957489501953125,-0.014670397154986858,0.010458815842866898,0.04904647171497345
1700516801595499500,2.96749951171875,-0.002947636879980564,0.1297331601381302,0.01502646692097187
1700516801605509600,2.977509521484375,-0.003232861403375864,-0.08377113193273544,0.055070023983716965
1700516801615520500,2.9875205078125,-0.014922531321644783,0.039049550890922546,-0.1622370034456253
1700516801625530400,2.9975302734375,0.010675506666302681,-0.04970322176814079,0.08684737235307693
1700516801635540500,3.00754052734375,-0.010747716762125492,0.023015892133116722,0.06720894575119019
1700516801645550600,3.017550537109375,0.019895413890480995,0.024056388065218925,-0.020580297335982323
1700516801655560400,3.027560546875,-0.02345029078423977,0.006860594730824232,-0.17421400547027588
1700516801665570600,3.037570556640625,0.008564633317291737,-0.023933537304401398,0.09167838096618652
1700516801675580400,3.047580322265625,-0.009792379103600979,-0.002411352237686515,0.05878424644470215
1700516801685590500,3.057590576171875,-0.004153401590883732,0.12306534498929977,0.005944733042269945
1700516801695601400,3.067601318359375,-0.0033131777308881283,-0.09687624126672745,0.05924346670508385
1700516801705611500,3.077611572265625,-0.023765986785292625,0.03143513202667236,-0.1611749231815338
1700516801715621400,3.087621337890625,0.014397590421140194,-0.05351930484175682,0.09126321971416473
1700516801725631500,3.097631591796875,-0.014486788772046566,0.015387327410280704,0.07662409543991089
1700516801735641600,3.1076416015625,0.018991226330399513,0.03131599724292755,-0.02214302495121956
1700516801745651500,3.1176513671875,-0.04007076099514961,-0.0068380460143089294,-0.17095991969108582
1700516801755661600,3.12766162109375,0.010891029611229897,-0.0178984347730875,0.08437687903642654
1700516801765672400,3.13767236328125,-0.018473250791430473,-0.006328065879642963,0.057738080620765686
1700516801775682600,3.1476826171875,-0.005618542432785034,0.11944451928138733,0.021323418244719505
1700516801785692400,3.1576923828125,0.001462270156480372,-0.07606985419988632,0.021990805864334106
1700516801795702500,3.16770263671875,-0.027135130017995834,0.0037662405520677567,-0.14072418212890625
1700516801805712400,3.17771240234375,0.013126272708177567,-0.0478317067027092,0.07976159453392029
1700516801815722500,3.187722412109375,-0.008952982723712921,0.02134031243622303,0.06969567388296127
1700516801825732400,3.197732421875,0.004517818801105022,0.01411808654665947,-0.009373310953378677
1700516801835742500,3.207742431640625,-0.025240706279873848,0.0023849743884056807,-0.17400488257408142
1700516801845753300,3.21775341796875,0.0031445957720279694,-0.014967383816838264,0.08124367147684097
1700516801855763500,3.227763427734375,-0.018523821607232094,-0.01457122154533863,0.056141678243875504
1700516801865773300,3.237773193359375,-0.012290426529943943,0.11521153897047043,0.010904960334300995
1700516801875783400,3.247783447265625,-0.0010302274022251368,-0.0783659890294075,0.03647994250059128
1700516801885793500,3.25779345703125,-0.02671215496957302,0.0031182165257632732,-0.13027015328407288
1700516801895803400,3.267803466796875,0.003937958274036646,-0.05050290748476982,0.07172701507806778
1700516801905814500,3.277814453125,-0.010326198302209377,0.02453165501356125,0.05849882960319519
1700516801915824400,3.287824462890625,0.013612080365419388,0.008736155927181244,0.009961717762053013
1700516801925834500,3.29783447265625,-0.01827661134302616,-0.0035311628598719835,-0.15831544995307922
1700516801935844400,3.30784423828125,0.0038469950668513775,-0.00017240724992007017,0.046999696642160416
1700516801945854500,3.3178544921875,-0.0034050592221319675,-0.041015975177288055,0.06659603118896484
1700516801955864300,3.3278642578125,-0.0045691668055951595,0.06596893817186356,-0.023114582523703575
1700516801965874400,3.33787451171875,-0.0014844273682683706,-0.07403397560119629,0.0887962356209755
1700516801975885300,3.34788525390625,-0.0057087242603302,0.00754200667142868,-0.13998030126094818
1700516801985895400,3.3578955078125,-0.006877852138131857,-0.040086228400468826,0.027082983404397964
1700516801995905300,3.3679052734375,-0.004503152798861265,-0.015247422270476818,0.061198554933071136
1700516802005915400,3.377915283203125,0.020262381061911583,0.02070631831884384,0.019070543348789215
1700516802015925500,3.387925537109375,-0.00992521457374096,-0.04547514766454697,-0.14143478870391846
1700516802025935400,3.397935302734375,-0.01043734047561884,-0.002250978257507086,-0.019284909591078758
1700516802035946500,3.407946533203125,0.01823323965072632,-0.06539466232061386,0.09693434089422226
1700516802045956400,3.417956298828125,0.01141234952956438,0.0376821830868721,-0.03152749314904213
1700516802055966500,3.427966552734375,0.008064830675721169,-0.05909769609570503,0.10409244149923325
1700516802065976300,3.437976318359375,-0.005142051260918379,0.010737842880189419,-0.1166071817278862
1700516802075986400,3.447986328125,-0.008878793567419052,-0.009620712138712406,-0.02441299892961979
1700516802085996300,3.457996337890625,-0.0018951869569718838,-0.0391000397503376,0.05266820266842842
1700516802096007400,3.46800732421875,0.00875740684568882,0.05095196142792702,0.030762672424316406
1700516802106017300,3.478017333984375,0.007482818327844143,-0.057133764028549194,-0.0833929255604744
1700516802116027400,3.48802734375,-0.018717171624302864,0.011695176362991333,-0.07863817363977432
1700516802126037200,3.498037353515625,0.025022320449352264,-0.050933584570884705,0.11766023188829422
1700516802136047400,3.50804736328125,0.013025184161961079,0.04959270358085632,-0.0004949220456182957
1700516802146057500,3.518057373046875,0.023143596947193146,0.02822216786444187,0.08744931221008301
1700516802156068400,3.528068359375,-0.002375648356974125,-0.017024898901581764,-0.06531071662902832
1700516802166078200,3.538078125,-0.01238940004259348,0.03883543610572815,-0.0765918716788292
1700516802176088300,3.54808837890625,0.010786413215100765,-0.049785587936639786,0.11049486696720123
1700516802186098400,3.558098388671875,0.0006104751955717802,0.04784056916832924,0.030729196965694427
1700516802196108300,3.5681083984375,0.0025584965478628874,-0.023061227053403854,-0.05772029981017113
1700516802206119400,3.578119384765625,-0.024283237755298615,0.029758311808109283,-0.1145620122551918
1700516802216129300,3.58812939453125,0.023036938160657883,-0.03446165844798088,0.13910315930843353
1700516802226139400,3.598139404296875,-0.010682940483093262,0.0742991715669632,0.008777379058301449
1700516802236149200,3.608149169921875,0.016324041411280632,0.0750422552227974,0.05076772719621658
1700516802246159400,3.618159423828125,-0.005405489355325699,-0.04371209442615509,-0.006589305121451616
1700516802256169200,3.628169189453125,-0.014624252915382385,0.0332617424428463,-0.1188228502869606
1700516802266180600,3.6381806640625,0.014479835517704487,-0.05561726540327072,0.09698694199323654
1700516802276190500,3.6481904296875,-0.01077611930668354,0.03232249617576599,0.03617554157972336
1700516802286200600,3.65820068359375,0.011506814509630203,0.010564737021923065,-0.02265368588268757
1700516802296210400,3.66821044921875,-0.02605239488184452,0.027001190930604935,-0.14616769552230835
1700516802306220500,3.678220458984375,0.014039364643394947,-0.026141390204429626,0.11641865223646164
1700516802316231400,3.6882314453125,-0.020619794726371765,0.04542259871959686,0.03656976297497749
1700516802326241500,3.698241455078125,0.005190761759877205,0.10417832434177399,0.03223573416471481
1700516802336251400,3.70825146484375,-0.004436860792338848,-0.06586568802595139,0.023872874677181244
1700516802346261500,3.718261474609375,-0.014680709689855576,0.029454968869686127,-0.1442524790763855
1700516802356271600,3.728271728515625,0.014037100598216057,-0.053887587040662766,0.0894935354590416
1700516802366282500,3.738282470703125,-0.017307773232460022,0.018753858283162117,0.047980185598134995
1700516802376292400,3.748292236328125,0.019708076491951942,0.020225167274475098,-0.014438306912779808
1700516802386302500,3.758302490234375,-0.02651294879615307,0.00817116629332304,-0.1621215045452118
1700516802396312600,3.7683125,0.0074812499806284904,-0.017563434317708015,0.0953114926815033
1700516802406322400,3.778322509765625,-0.016971096396446228,0.0032742039766162634,0.0501975454390049
1700516802416333300,3.788333251953125,-0.006611628923565149,0.11796250939369202,0.01897580735385418
1700516802426343400,3.798343505859375,-0.002376403659582138,-0.07103324681520462,0.03939346596598625
1700516802436353500,3.808353515625,-0.025284243747591972,0.014022313058376312,-0.13845133781433105
1700516802446363400,3.81836328125,0.010807179845869541,-0.04647538438439369,0.07038496434688568
1700516802456373500,3.82837353515625,-0.011845569126307964,0.012717882171273232,0.05285010486841202
1700516802466384400,3.83838427734375,0.009527097456157207,0.0004777276189997792,0.00017171213403344154
1700516802476394500,3.84839453125,-0.02076990157365799,-0.003513636998832226,-0.1648516058921814
1700516802486404400,3.858404296875,0.0034345053136348724,-0.0008787054684944451,0.051369909197092056
1700516802496414500,3.86841455078125,-0.001905340002849698,-0.033232998102903366,0.06689409911632538
1700516802506425300,3.87842529296875,-0.0034808660857379436,0.08301904052495956,-0.012675292789936066
1700516802516435500,3.888435546875,-0.0006922102184034884,-0.07762446254491806,0.09544772654771805
1700516802526445300,3.8984453125,-0.01012645848095417,0.0206307340413332,-0.14201968908309937
1700516802536455400,3.908455322265625,-0.0027674222365021706,-0.0326450876891613,0.046382706612348557
1700516802546465300,3.91846533203125,-0.009072455577552319,-0.006751971784979105,0.06110759079456329
1700516802556476400,3.928476318359375,0.02553979493677616,0.017002709209918976,0.01146404817700386
1700516802566486800,3.93848681640625,-0.014294169843196869,-0.03411373868584633,-0.14306959509849548
1700516802576497000,3.948496826171875,-0.004478433169424534,0.0034410390071570873,0.010024047456681728
1700516802586506800,3.9585068359375,0.010817699134349823,-0.04820031672716141,0.09545985609292984
1700516802596518000,3.968517822265625,0.013135328888893127,0.060098037123680115,-0.02728215418756008
1700516802606527700,3.97852783203125,0.004923204891383648,-0.06363482028245926,0.12258058041334152
1700516802616537900,3.988537841796875,-0.006382308434695005,0.01950507052242756,-0.13063448667526245
1700516802626547700,3.998547607421875,-0.015309757553040981,-0.009647221304476261,-0.002586228307336569
1700516802636557800,4.008557861328125,0.0010534364264458418,-0.037313707172870636,0.08400030434131622
1700516802646568700,4.018568603515625,0.017435871064662933,0.038564011454582214,0.024861620739102364
1700516802656578800,4.028578857421875,-0.007214689161628485,-0.0514431931078434,-0.12549006938934326
1700516802666588700,4.038588623046875,-0.013383635319769382,0.0015071065863594413,-0.038509637117385864
1700516802676598800,4.048598876953125,0.027493489906191826,-0.05167435482144356,0.12275248765945435
1700516802686609700,4.058609619140625,0.013334088958799839,0.0481724850833416,-0.03268536180257797
1700516802696619800,4.068619873046875,0.010630980134010315,-0.04429939389228821,0.11936301738023758
1700516802706629600,4.078629638671875,-0.00027280033100396395,0.020885204896330833,-0.11101798713207245
1700516802716639700,4.0886396484375,-0.006958278827369213,0.008203386329114437,-0.0129863815382123
1700516802726650600,4.098650634765625,0.0002290603006258607,-0.023923391476273537,0.0761144682765007
1700516802736660700,4.10866064453125,0.012626439332962036,0.036381691694259644,0.04299519583582878
1700516802746670800,4.1186708984375,0.007362967822700739,-0.04077248275279999,-0.10128288716077805
1700516802756680700,4.1286806640625,-0.02286657504737377,0.004825684241950512,-0.07847172766923904
1700516802766691600,4.138691650390625,0.032538626343011856,-0.0501110665500164,0.13426637649536133
1700516802776701700,4.14870166015625,0.01092896331101656,0.047647085040807724,-0.01479535736143589
1700516802786711800,4.1587119140625,0.029225146397948265,0.025876808911561966,0.08410832285881042
1700516802796721700,4.1687216796875,-0.0038391314446926117,-0.0067704892717301846,-0.053244609385728836
1700516802806732800,4.17873291015625,-0.010286378674209118,0.04167187586426735,-0.06892343610525131
1700516802816743000,4.188742919921875,0.013011897914111614,-0.04242344945669174,0.09393514692783356
1700516802826753000,4.1987529296875,0.0054863374680280685,0.044142868369817734,0.03131543844938278
1700516802836763000,4.208762939453125,0.0074573480524122715,-0.015259258449077606,-0.05386402830481529
1700516802846773800,4.218773681640625,-0.02391389012336731,0.021265462040901184,-0.11473137140274048
1700516802856784000,4.228783935546875,0.020826390013098717,-0.0362296923995018,0.13824690878391266
1700516802866794000,4.2387939453125,-0.013990179635584354,0.07300412654876709,0.011274576187133789
1700516802876803800,4.248803955078125,0.018097475171089172,0.06518285721540451,0.048055145889520645
1700516802886814700,4.258814697265625,-0.007007611449807882,-0.024624796584248543,-0.01594167947769165
1700516802896824800,4.268824951171875,-0.006762203760445118,0.028631599619984627,-0.10782180726528168
1700516802906835000,4.2788349609375,0.01377343013882637,-0.06174783408641815,0.07992252707481384
1700516802916844800,4.2888447265625,-0.007256572134792805,0.01826600171625614,0.0254959873855114
1700516802926855700,4.298855712890625,0.006982284598052502,-0.001724218251183629,-0.007309362757951021
1700516802936865800,4.30886572265625,-0.020623473450541496,0.015960151329636574,-0.14428551495075226
1700516802946876000,4.3188759765625,0.004942340776324272,-0.017778903245925903,0.09431082010269165
1700516802956886800,4.32888671875,-0.01872291788458824,0.016705991700291634,0.018505118787288666
1700516802966897000,4.33889697265625,-0.009641803801059723,0.09226705878973007,0.011581433936953545
1700516802976906800,4.34890673828125,-0.0058661457151174545,-0.07951642572879791,0.06042826175689697
1700516802986916900,4.358916748046875,-0.008954080753028393,0.022584637627005577,-0.15836745500564575
1700516802996927700,4.368927734375,0.004464562050998211,-0.05129719525575638,0.0677696019411087
1700516803006937900,4.378937744140625,-0.01621062308549881,0.005652906373143196,0.039588555693626404
1700516803016947700,4.38894775390625,0.02687315084040165,0.01715843565762043,-0.00386673491448164
1700516803026957800,4.398957763671875,-0.01470971293747425,-0.005075497552752495,-0.14813096821308136
1700516803036968700,4.40896875,-0.004192516207695007,-0.009372045285999775,0.04249896854162216
1700516803046978800,4.418978759765625,-0.0004651562194339931,-0.04056591913104057,0.055880554020404816
1700516803056988700,4.42898876953125,-0.0033746762201189995,0.06768044084310532,-0.018156161531805992
1700516803066999600,4.43899951171875,0.003863263176754117,-0.07632014155387878,0.1010005846619606
1700516803077009700,4.449009765625,-0.0056154741905629635,0.01352695096284151,-0.14142103493213654
1700516803087019800,4.459019775390625,-0.00912631954997778,-0.019699711352586746,0.023918388411402702
1700516803097029600,4.469029541015625,-0.0040864767506718636,-0.027896348387002945,0.06761078536510468
1700516803107040800,4.479040771484375,0.017222538590431213,0.025463812053203583,0.008947737514972687
1700516803117051000,4.48905078125,-0.014400414191186428,-0.041328128427267075,-0.1387609839439392
1700516803127061000,4.49906103515625,-0.00974707305431366,-0.0012262470554560423,-0.006211203522980213
1700516803137071900,4.50907177734375,0.024420971050858498,-0.0576329231262207,0.1038450300693512
1700516803147081700,4.519081787109375,0.011773352511227131,0.05315058305859566,-0.036655887961387634
1700516803157091800,4.529091796875,0.014777121134102345,-0.04087202250957489,0.12642177939414978
1700516803167102000,4.53910205078125,-0.0024295621551573277,0.006186831742525101,-0.12620222568511963
1700516803177112800,4.54911279296875,-0.017130138352513313,-0.011369217187166214,-0.021123157814145088
1700516803187123000,4.559123046875,0.0038233480881899595,-0.04715757444500923,0.09679974615573883
1700516803197132800,4.5691328125,0.012403597123920918,0.0356912761926651,0.016319595277309418
1700516803207143700,4.579143798828125,-0.007363449782133102,-0.042930565774440765,-0.13639724254608154
1700516803217153800,4.58915380859375,-0.014599556103348732,0.005395786836743355,-0.03906795009970665
1700516803227164000,4.599163818359375,0.03355865180492401,-0.05420202761888504,0.11873633414506912
1700516803237174800,4.6091748046875,0.012985533103346825,0.045378148555755615,-0.04454931244254112
1700516803247184600,4.6191845703125,0.01619916968047619,-0.03233928233385086,0.13019400835037231
1700516803257194800,4.62919482421875,0.00021423783618956804,-0.00006517674773931503,-0.12783831357955933
1700516803267204900,4.639204833984375,-0.01883162558078766,-0.004822381306439638,-0.03336453437805176
1700516803277215700,4.6492158203125,0.011397811584174633,-0.04180431365966797,0.11407209187746048
1700516803287225600,4.6592255859375,0.008404417894780636,0.033373795449733734,0.02038182131946087
1700516803297235700,4.669235595703125,-0.003415436949580908,-0.04120313748717308,-0.140878826379776
1700516803307246600,4.67924658203125,-0.014550380408763885,0.005058631766587496,-0.04081879183650017
1700516803317256700,4.689256591796875,0.03130122274160385,-0.05416804924607277,0.12982745468616486
1700516803327266800,4.699266845703125,0.007196419406682253,0.06291542947292328,-0.04642133414745331
1700516803337278000,4.70927783203125,0.00836955290287733,-0.06937367469072342,0.11985715478658676
1700516803347287800,4.719287841796875,-0.003062065690755844,0.010048710741102695,-0.12923042476177216
1700516803357298000,4.7292978515625,0.006593573838472366,-0.0018252598820254207,0.008013265207409859
1700516803367308800,4.739308837890625,-0.002654253039509058,-0.00403781421482563,0.0843447893857956
1700516803377319000,4.74931884765625,0.010248448699712753,0.02406935580074787,0.03097328543663025
1700516803387328800,4.759328857421875,0.003063772339373827,-0.048711638897657394,-0.14579269289970398
1700516803397340000,4.76933984375,-0.011604048311710358,-0.0011373914312571287,-0.0434877872467041
1700516803407349800,4.779349853515625,0.02941848523914814,-0.05825074389576912,0.12212195247411728
1700516803417360000,4.78935986328125,0.005926219746470451,0.04327050969004631,-0.04704200103878975
1700516803427370800,4.799370849609375,0.015207868069410324,-0.052195560187101364,0.12549914419651031
1700516803437380900,4.809380859375,0.005104660522192717,0.010658982209861279,-0.13271068036556244
1700516803447390700,4.819390625,-0.010667644441127777,0.00047611980699002743,-0.0036429804749786854
1700516803457401900,4.82940185546875,0.0007042934885248542,-0.018019743263721466,0.09522539377212524
1700516803467411700,4.83941162109375,0.016594311222434044,0.019295936450362206,0.022285405546426773
1700516803477421800,4.849421875,-0.004750275053083897,-0.052486978471279144,-0.14822980761528015
1700516803487432700,4.8594326171875,-0.01641918160021305,-0.0035524580162018538,-0.024342209100723267
1700516803497442800,4.86944287109375,0.028698239475488663,-0.05600958317518234,0.12323130667209625
1700516803507452700,4.87945263671875,-0.0018029448110610247,0.07352977246046066,-0.04772179573774338
1700516803517463800,4.8894638671875,0.009961273521184921,-0.0707082450389862,0.1142592653632164
1700516803527473700,4.8994736328125,-0.0019718180410563946,-0.0020753846038132906,-0.12890625
1700516803537483800,4.90948388671875,-0.005969947203993797,-0.012540738098323345,0.013958875089883804
1700516803547495000,4.919494873046875,-0.0018734727054834366,-0.014778059907257557,0.08353608846664429
1700516803557504800,4.9295048828125,0.008410886861383915,0.012160557322204113,0.021799905225634575
1700516803567515400,4.939515380859375,-0.00801895372569561,-0.055136457085609436,-0.14651267230510712
1700516803577526300,4.9495263671875,-0.013727172277867794,-0.012513630092144012,-0.011496532708406448
1700516803587536400,4.959536376953125,0.01973012089729309,-0.052716176956892014,0.11405127495527267
1700516803597546200,4.969546142578125,-0.004593450576066971,0.08459168672561646,-0.03785417601466179
1700516803607557400,4.979557373046875,0.0094336848706007,-0.07706725597381592,0.10994566231966019
1700516803617567200,4.989567138671875,-0.006471473723649979,-0.005491435062140226,-0.134129136800766
1700516803627577300,4.999577392578125,-0.0033340039663016796,-0.025579925626516342,0.02013767510652542
1700516803637588200,5.009588134765625,-0.005045875906944275,-0.00815756805241108,0.08584855496883392
1700516803647598300,5.019598388671875,0.013056161813437939,0.001635674387216568,0.019240761175751686
1700516803657608200,5.029608154296875,-0.011461816728115082,-0.053711552172899246,-0.16564899682998657
1700516803667619300,5.039619384765625,-0.007316606119275093,-0.018436921760439873,0.00043077394366264343
1700516803677629200,5.049629150390625,0.01329244114458561,-0.059603251516819,0.10955706983804703
1700516803687639300,5.059639404296875,0.00041951925959438086,0.08598430454730988,-0.042945921421051025
1700516803697650200,5.069650146484375,0.005323503166437149,-0.0773455947637558,0.09814481437206268
1700516803707660300,5.079660400390625,-0.005724620074033737,0.005324781872332096,-0.13685864210128784
1700516803717670100,5.089670166015625,0.002253865357488394,-0.03114541433751583,0.036616094410419464
1700516803727681300,5.099681396484375,-0.0059310938231647015,0.005123910494148731,0.07435815036296844
1700516803737691400,5.10969140625,0.013576536439359188,0.011072627268731594,0.0197770819067955
1700516803747702300,5.119702392578125,-0.008084017783403397,-0.03826749324798584,-0.1604590117931366
1700516803757712400,5.12971240234375,-0.009768233634531498,-0.012753134593367577,0.013801553286612034
1700516803767722500,5.139722412109375,0.010249416343867779,-0.050417687743902206,0.10094018280506134
1700516803777733400,5.1497333984375,-0.008187742903828621,0.1008262187242508,-0.03257283195853233
1700516803787743200,5.1597431640625,0.010153447277843952,-0.06965284794569016,0.09550337493419647
1700516803797753300,5.16975341796875,-0.008413121104240417,0.005660172551870346,-0.13855020701885223
1700516803807764200,5.17976416015625,-0.005227980203926563,-0.030704492703080177,0.03936892747879028
1700516803817774300,5.1897744140625,-0.0053612226620316505,-0.00030373805202543736,0.08021127432584763
1700516803827784200,5.1997841796875,0.01271871104836464,0.02131607010960579,0.011476957239210606
1700516803837795300,5.20979541015625,-0.017531493678689003,-0.030764387920498848,-0.17021244764328003
1700516803847805200,5.21980517578125,-0.007261013146489859,-0.012079916894435883,0.026328831911087036
1700516803857816300,5.22981640625,0.004724372178316116,-0.037010885775089264,0.09714783728122711
1700516803867826200,5.239826171875,-0.012330245226621628,0.11819467693567276,-0.03239177539944649
1700516803877836300,5.249836181640625,0.007452943827956915,-0.07426517456769943,0.09360100328922272
1700516803887847200,5.25984716796875,-0.014310674741864204,0.014528606086969376,-0.14890457689762115
1700516803897857300,5.269857177734375,0.001298731192946434,-0.03714308142662048,0.043890319764614105
1700516803907867100,5.2798671875,-0.006086480803787708,0.006466446910053492,0.0797593742609024
1700516803917878300,5.289878173828125,0.013698499649763107,0.020584115758538246,0.0044602807611227036
1700516803927888400,5.299888427734375,-0.015963522717356682,-0.027810847386717796,-0.17306789755821228
1700516803937899300,5.309899169921875,-0.005015668459236622,-0.015429656952619553,0.036643628031015396
1700516803947909400,5.319909423828125,-0.0005436884821392596,-0.03480415418744087,0.08654914051294327
1700516803957919200,5.329919189453125,-0.012477313168346882,0.13116617500782013,-0.017618276178836823
1700516803967930400,5.339930419921875,0.0034188288263976574,-0.07776626944541931,0.0829584002494812
1700516803977940200,5.349940185546875,-0.013938195072114468,0.02345401979982853,-0.15554945170879364
1700516803987951400,5.359951416015625,0.003052240237593651,-0.03881467878818512,0.05983584374189377
1700516803997961200,5.369961181640625,-0.008224738761782646,0.0139002101495862,0.0811673104763031
1700516804007971300,5.379971435546875,0.017294736579060555,0.022741371765732765,-0.0035363975912332535
1700516804017982200,5.389982177734375,-0.015871118754148483,-0.016729045659303665,-0.1798636019229889
1700516804027992300,5.399992431640625,0.004515378270298243,-0.01519160158932209,0.062054216861724854
1700516804038003200,5.410003173828125,-0.007958200760185719,-0.023926392197608948,0.08448270708322525
1700516804048013300,5.420013427734375,-0.01398493442684412,0.14093606173992157,-0.012524794787168503
1700516804058023200,5.430023193359375,0.0015704059042036533,-0.08033975213766098,0.06490961462259293
1700516804068034300,5.440034423828125,-0.01945311948657036,0.014431757852435112,-0.15371300280094147
1700516804078044200,5.450044189453125,0.007351060397922993,-0.04085085541009903,0.07313257455825806
1700516804088054300,5.46005419921875,-0.007527487352490425,0.013195065781474113,0.07327532023191452
1700516804098065400,5.4700654296875,0.0056906696408987045,0.02658431977033615,-0.016686294227838516
1700516804108075300,5.4800751953125,-0.01871240697801113,-0.008122260682284832,-0.18217165768146515
1700516804118086400,5.49008642578125,0.005463684909045696,-0.009206273593008518,0.08378937840461731
1700516804128096300,5.50009619140625,-0.016362251713871956,-0.002374733332544565,0.07465820014476776
1700516804138106400,5.5101064453125,-0.006090042646974325,0.15131595730781555,-0.0032083005644381046
1700516804148117200,5.5201171875,-0.00029314012499526143,-0.086241215467453,0.043564531952142715
1700516804158127400,5.53012744140625,-0.019817177206277847,0.022490868344902992,-0.15870442986488342
1700516804168138200,5.54013818359375,0.015606858767569065,-0.03942709043622017,0.09047317504882812
1700516804178148400,5.5501484375,-0.00894863810390234,0.023495081812143326,0.07316997647285461
1700516804188158200,5.560158203125,0.007535796612501144,0.024864744395017624,-0.030684784054756165
1700516804198169300,5.57016943359375,-0.025816835463047028,0.0021294979378581047,-0.17619313299655914
1700516804208179200,5.58017919921875,0.007977345958352089,-0.016912637278437614,0.10942501574754715
1700516804218190000,5.590190185546875,-0.01616065762937069,0.02199924923479557,0.06313369423151016
1700516804228200200,5.6002001953125,0.001666542491875589,0.12603405117988586,0.02551095373928547
1700516804238211300,5.61021142578125,0.0008863689145073295,-0.04113239049911499,-0.005912677850574255
1700516804248221400,5.620221435546875,-0.023330820724368095,0.018883012235164642,-0.12499060481786728
1700516804258231300,5.630231201171875,0.010152838192880154,-0.041459959000349045,0.0957534909248352
1700516804268242400,5.640242431640625,0.003940748516470194,0.024366194382309914,0.06458039581775665
1700516804278252300,5.650252197265625,0.011603150516748428,0.012435678392648697,-0.04309280589222908
1700516804288263400,5.660263427734375,-0.031925950199365616,0.02280469611287117,-0.16942518949508667
1700516804298273300,5.670273193359375,0.013292260468006134,-0.0238803643733263,0.12794217467308044
1700516804308283400,5.680283447265625,-0.01326904259622097,0.029470473527908325,0.0407492071390152
1700516804318294300,5.690294189453125,0.01172343734651804,0.11286265403032303,0.034360021352767944
1700516804328304400,5.700304443359375,-0.005869671236723661,-0.05511809140443802,-0.014125222340226173
1700516804338315300,5.710315185546875,-0.02670135721564293,0.03051683120429516,-0.12870506942272186
1700516804348325400,5.720325439453125,0.01746184192597866,-0.04943498969078064,0.11726873368024826
1700516804358336300,5.730336181640625,-0.009382468648254871,0.028134316205978394,0.06827878952026367
1700516804368346000,5.74034619140625,0.008598396554589272,-0.004544532857835293,-0.07314252108335495
1700516804378356200,5.750356201171875,-0.029336467385292053,0.02532072551548481,-0.15225176513195038
1700516804388367000,5.7603671875,0.025482306256890297,-0.030663447454571724,0.14883564412593842
1700516804398377200,5.770377197265625,0.004169251769781113,0.027048232033848763,0.015448283404111862
1700516804408388400,5.780388427734375,0.021625205874443054,0.05208061262965202,0.062299944460392
1700516804418398500,5.7903984375,0.0019897245801985264,-0.020453963428735733,-0.053473081439733505
1700516804428409300,5.800409423828125,-0.020952077582478523,0.025273311883211136,-0.08161470293998718
1700516804438419500,5.81041943359375,0.010619382373988628,-0.034603577107191086,0.10728640854358673
1700516804448429300,5.82042919921875,-0.0048320116475224495,0.0285977590829134,0.06125473231077194
1700516804458440200,5.830440185546875,0.010667146183550358,-0.030495019629597664,-0.09017679840326309
1700516804468450300,5.8404501953125,-0.028055747970938683,0.021134885028004646,-0.12288867682218552
1700516804478461200,5.850461181640625,0.02559855580329895,-0.03359059989452362,0.14785566926002502
1700516804488471300,5.86047119140625,0.01717204786837101,0.02387136034667492,-0.014502616599202156
1700516804498482200,5.870482177734375,0.021036429330706596,0.003214739728718996,0.09130324423313141
1700516804508492300,5.8804921875,-0.000628118752501905,-0.000166409183293581,-0.08579084277153015
1700516804518502100,5.890502197265625,-0.011233310215175152,0.028431348502635956,-0.05082659050822258
1700516804528513300,5.90051318359375,0.004038054496049881,-0.025742674246430397,0.09350555390119553
1700516804538523100,5.910523193359375,0.007562084123492241,0.01927661895751953,0.054247476160526276
1700516804548534300,5.9205341796875,0.009074226953089237,-0.054360050708055496,-0.11326722055673599
1700516804558544400,5.93054443359375,-0.026315176859498024,0.0069702984765172005,-0.09560851752758026
1700516804568554800,5.9405546875,0.024962391704320908,-0.05054812133312225,0.1540364772081375
1700516804578564600,5.950564697265625,0.015303933061659336,0.028139442205429077,-0.03396733105182648
1700516804588575500,5.960575439453125,0.017919691279530525,-0.01824510097503662,0.0994810089468956
1700516804598585600,5.970585693359375,0.0022754839155822992,-0.0051055969670414925,-0.09942090511322021
1700516804608595700,5.980595703125,-0.018555494025349617,0.011077900417149067,-0.03663235902786255
1700516804618606600,5.990606689453125,0.008463566191494465,-0.03234153240919113,0.10300910472869873
1700516804628616400,6.000616455078125,0.012542463839054108,0.025846142321825027,0.02816416323184967
1700516804638627800,6.0106279296875,-0.0023050541058182716,-0.05383358523249626,-0.1415204107761383
1700516804648637700,6.0206376953125,-0.028400570154190063,-0.004158972762525082,-0.07203134894371033
1700516804658648800,6.03064892578125,0.023084325715899467,-0.05506141856312752,0.12539048492908478
1700516804668658700,6.04065869140625,0.007122937124222517,0.058262210339307785,-0.050567757338285446
1700516804678669600,6.050669677734375,0.010980745777487755,-0.029894443228840828,0.09347205609083176
1700516804688679700,6.0606796875,-0.019942017272114754,0.00550722423940897,-0.1467919498682022
1700516804698690600,6.070690673828125,-0.01363445445895195,0.03637683764100075,-0.03243139013648033
1700516804708700700,6.08070068359375,-0.006657771300524473,-0.029333464801311493,0.07747486978769302
1700516804718710800,6.090710693359375,0.010467788204550743,0.030745185911655426,0.00020139571279287338
1700516804728721700,6.1007216796875,0.0005946502787992358,-0.05347302183508873,-0.14650335907936096
1700516804738731500,6.1107314453125,-0.04941582679748535,0.05390261113643646,-0.08316274732351303
1700516804748742700,6.12074267578125,0.028081363067030907,-0.06520593166351318,0.05739463493227959
1700516804758752500,6.13075244140625,-0.011496856808662415,0.01466195099055767,-0.04928044229745865
1700516804768764000,6.140763916015625,0.021056028082966805,-0.047231778502464294,0.12747037410736084
1700516804778773800,6.150773681640625,0.010106837376952171,-0.03931621462106705,-0.14936506748199463
1700516804788784600,6.16078466796875,-0.012184619903564453,0.027207685634493828,-0.114778071641922
1700516804798794800,6.170794677734375,0.010143104009330273,-0.07131552696228027,0.05133998394012451
1700516804808805600,6.1808056640625,0.002683323808014393,-0.05936885252594948,0.09941429644823074
1700516804818815700,6.190815673828125,0.013046293519437313,-0.098050057888031,-0.127663254737854
1700516804828826600,6.20082666015625,-0.01002333965152502,-0.020919056609272957,-0.07063459604978561
1700516804838836700,6.210836669921875,0.02089039608836174,-0.09071147441864014,0.12363974750041962
1700516804848847600,6.22084765625,-0.009700270369648933,-0.005285782739520073,-0.020486531779170036
1700516804858857700,6.230857666015625,0.007938137277960777,0.01840248703956604,0.11337980628013611
1700516804868867600,6.24086767578125,-0.002924363361671567,0.046604566276073456,-0.19098727405071259
1700516804878878700,6.250878662109375,-0.013432961888611317,0.07807139307260513,-0.07176325470209122
1700516804888888600,6.260888671875,0.014349134638905525,0.003047478850930929,0.023990435525774956
1700516804898899500,6.2708994140625,-0.018233178183436394,0.11553046852350235,-0.025574028491973877
1700516804908909600,6.28090966796875,0.007116918917745352,0.03788440302014351,-0.1940394788980484
1700516804918920700,6.290920654296875,-0.040227197110652924,0.1719904989004135,-0.18092426657676697
1700516804928930800,6.300930908203125,0.007676680572330952,0.03445792570710182,0.006730586290359497
1700516804938941700,6.310941650390625,-0.038781631737947464,0.09651756286621094,-0.1800755113363266
1700516804948951800,6.320951904296875,-0.03483376279473305,0.05460527166724205,0.17436538636684418
1700516804958962700,6.330962646484375,-0.01700402982532978,-0.28770506381988525,-0.34672802686691284
1700516804968972800,6.340972900390625,-0.042061179876327515,0.1698438674211502,-0.3770774304866791
1700516804978983700,6.350983642578125,-0.006779872812330723,-0.20428995788097382,-0.007349320221692324
1700516804988993500,6.36099365234375,-0.027656393125653267,-0.05067562311887741,-0.0733613669872284
1700516804999004700,6.371004638671875,-0.021837176755070686,-0.1724957674741745,-0.3218836486339569
1700516805009014500,6.3810146484375,-0.012269238941371441,-0.04251007363200188,-0.40421178936958313
1700516805019025700,6.391025634765625,-0.03330381587147713,-0.11452791839838028,-0.166608989238739
1700516805029035500,6.401035400390625,-0.023002974689006805,-0.18159084022045135,-0.2485227733850479
1700516805039046700,6.411046630859375,0.008079045452177525,-0.014080675318837166,-0.028524620458483696
1700516805049056800,6.421056884765625,-0.04474102705717087,-0.3333697021007538,0.005740143824368715
1700516805059067600,6.431067626953125,-0.057929202914237976,0.18047921359539032,-0.6720548272132874
1700516805069077800,6.441077880859375,0.08721227943897247,-0.13185977935791016,0.08026393502950668
1700516805079088600,6.451088623046875,-0.0708806961774826,0.012046195566654205,0.3248503506183624
1700516805089098800,6.4610986328125,0.07787948846817017,0.013509069569408894,-0.22269423305988312
1700516805099109600,6.471109619140625,0.09066978096961975,0.18891216814517975,-0.35726597905158997
1700516805109119700,6.48111962890625,-0.00592200830578804,-0.0353558287024498,-0.0062296511605381966
1700516805119130600,6.491130615234375,0.013543796725571156,0.10904785990715027,-0.1596282720565796
1700516805129140700,6.501140625,-0.03273581713438034,-0.19229041039943695,0.25464746356010437
1700516805139151600,6.511151611328125,0.0782787948846817,-0.002475399523973465,-0.08363643288612366
1700516805149161500,6.521161376953125,-0.06914421916007996,0.4994593858718872,0.0972108468413353
1700516805159172900,6.5311728515625,0.09485585987567902,-0.4670698940753937,0.30754634737968445
1700516805169182700,6.5411826171875,0.047420434653759,0.1396629363298416,-0.1924632340669632
1700516805179193900,6.55119384765625,0.0018448668997734785,0.09153826534748077,0.09980843961238861
1700516805189203700,6.56120361328125,0.008315282873809338,0.20806968212127686,0.501170814037323
1700516805199214600,6.571214599609375,0.08309494704008102,-0.9452919363975525,-0.03619127720594406
1700516805209224700,6.581224609375,0.09064847230911255,0.7957325577735901,-0.6239506602287292
1700516805219235600,6.591235595703125,-0.017184505239129066,0.15870212018489838,0.03975025191903114
1700516805229245700,6.60124560546875,0.11058064550161362,-0.7872691750526428,0.23789209127426147
1700516805239256600,6.611256591796875,0.03557591140270233,0.7048946022987366,-0.09632635861635208
1700516805249266700,6.6212666015625,-0.11337696015834808,-0.23227623105049133,-0.07953433692455292
1700516805259277600,6.631277587890625,0.19420091807842255,-0.9812751412391663,0.5382145643234253
1700516805269287700,6.64128759765625,0.0518573522567749,1.1232655048370361,-0.34529152512550354
1700516805279298800,6.651298828125,-0.009879427962005138,-0.4745709002017975,-0.15332986414432526
1700516805289308700,6.66130859375,0.08567319065332413,-0.3983014225959778,0.44422194361686707
1700516805299319800,6.67131982421875,0.021497327834367752,0.7396923899650574,-0.16154415905475616
1700516805309329700,6.68132958984375,-0.013785561546683311,-0.7791720628738403,0.04944904148578644
1700516805319340800,6.6913408203125,0.11063297092914581,-0.13265056908130646,0.17546360194683075
1700516805329350700,6.7013505859375,0.08803151547908783,0.9476625919342041,0.015984466299414635
1700516805339361800,6.71136181640625,0.279170960187912,-1.0045677423477173,0.2550470530986786
1700516805349371600,6.72137158203125,0.04959076642990112,0.6851634383201599,0.33587583899497986
1700516805359382500,6.731382568359375,-0.010392694734036922,0.02085062302649021,0.372126966714859
1700516805369392600,6.741392578125,-0.09177437424659729,-0.9916475415229797,0.23009338974952698
1700516805379403500,6.751403564453125,-0.11323044449090958,1.3403812646865845,-0.23950891196727753
1700516805389413600,6.76141357421875,0.13299503922462463,-0.9381056427955627,-0.47454407811164856
1700516805399424500,6.771424560546875,-0.03064674139022827,0.5955448150634766,-0.5998936891555786
1700516805409434600,6.7814345703125,-0.23892565071582794,0.392168253660202,-0.4530975818634033
1700516805419445800,6.79144580078125,0.07774728536605835,-1.468703269958496,-0.06380060315132141
1700516805429456000,6.801455810546875,0.07617176324129105,1.041412591934204,0.6760769486427307
1700516805439466800,6.811466796875,0.13137994706630707,-0.6150670647621155,0.9481107592582703
1700516805449476600,6.8214765625,-0.04504888877272606,0.3604810833930969,0.2404353767633438
1700516805459487700,6.83148779296875,-0.08268313109874725,-0.18726922571659088,-0.23736578226089478
1700516805469497600,6.84149755859375,-0.03986109048128128,-0.8804738521575928,-0.5767302513122559
1700516805479508700,6.8515087890625,0.13071706891059875,1.7894169092178345,-0.5475342869758606
1700516805489518600,6.8615185546875,0.15167668461799622,-1.2622538805007935,0.04274124652147293
1700516805499529700,6.87152978515625,-0.11859379708766937,0.7128715515136719,0.42695069313049316
1700516805509539600,6.88153955078125,-0.03555431216955185,-0.202851340174675,0.6409716606140137
1700516805519550500,6.891550537109375,-0.022687068209052086,-1.060702919960022,0.18960826098918915
1700516805529560600,6.901560546875,0.08965225517749786,1.595190405845642,-0.1303527057170868
1700516805539571700,6.91157177734375,0.1082252785563469,-1.1050153970718384,-0.16896624863147736
1700516805549581800,6.921581787109375,-0.11858762800693512,0.7843418717384338,-0.33599597215652466
1700516805559592700,6.9315927734375,-0.05860847607254982,-0.5567308664321899,-0.06019774079322815
1700516805569603000,6.94160302734375,0.04725190997123718,-0.20152615010738373,0.14044827222824097
1700516805579614000,6.951614013671875,0.01677284762263298,0.480846643447876,0.5003554224967957
1700516805589624800,6.961624755859375,-0.018524955958127975,-0.7355920672416687,0.4914229214191437
1700516805599635000,6.971635009765625,0.016748296096920967,1.0150089263916016,0.21441137790679932
1700516805609645800,6.981645751953125,-0.010122464969754219,-1.4783339500427246,0.12987199425697327
1700516805619656000,6.991656005859375,-0.07414348423480988,0.9810453057289124,-0.14433296024799347
1700516805629666800,7.001666748046875,0.09417148679494858,-0.1747400015592575,-0.15800721943378448
1700516805639677000,7.011677001953125,-0.0335543230175972,0.154771089553833,-0.4431697130203247
1700516805649688000,7.02168798828125,-0.04396861419081688,0.2341093122959137,-0.19398093223571777
1700516805659698000,7.031697998046875,0.034888990223407745,-0.9778660535812378,0.1625697761774063
1700516805669709000,7.041708984375,0.017979515716433525,0.8913387656211853,0.319408655166626
1700516805679719000,7.051718994140625,-0.0624118335545063,-1.0987604856491089,0.2960842549800873
1700516805689730000,7.06172998046875,-0.014500764198601246,1.1538828611373901,-0.0840124785900116
1700516805699740000,7.071739990234375,0.0751095712184906,-0.9316273927688599,-0.08687737584114075
1700516805709750800,7.081750732421875,-0.04721580818295479,0.6647408604621887,-0.4079267680644989
1700516805719761000,7.091760986328125,0.03896951302886009,0.0873255506157875,-0.06063908711075783
1700516805729771800,7.101771728515625,-0.08713861554861069,-0.5930359363555908,0.3966515064239502
1700516805739782000,7.111781982421875,-0.009144001640379429,0.76658034324646,0.5575347542762756
1700516805749792800,7.121792724609375,-0.08125041425228119,-1.4585826396942139,0.44810599088668823
1700516805759803000,7.131802978515625,-0.007516866084188223,1.3217829465866089,-0.11586108803749084
1700516805769814000,7.14181396484375,0.07817034423351288,-0.8541416525840759,-0.2549034059047699
1700516805779824000,7.15182421875,-0.12065024673938751,0.803013026714325,-0.585148811340332
1700516805789835000,7.1618349609375,0.004900215193629265,0.1753070056438446,-0.42484888434410095
1700516805799844900,7.171844970703125,-0.01234224159270525,-0.8868548274040222,-0.32385537028312683
1700516805809856000,7.18185595703125,-0.06972324103116989,0.8006787300109863,0.1443198323249817
1700516805819865900,7.191865966796875,0.012141171842813492,-0.8042068481445312,0.46642637252807617
1700516805829877000,7.201876953125,-0.01495063491165638,0.654096782207489,0.4773935377597809
1700516805839886800,7.211886962890625,-0.0561603344976902,-1.5068957805633545,0.36624953150749207
1700516805849898000,7.22189794921875,0.03993663564324379,1.4420541524887085,-0.15329721570014954
1700516805859908900,7.231908935546875,0.08974859118461609,-0.0642680749297142,0.23362813889980316
1700516805869918700,7.241918701171875,-0.08299548923969269,-0.21969415247440338,-0.06874743103981018
1700516805879930000,7.25193017578125,0.05003467947244644,0.14111874997615814,0.1381741464138031
1700516805889940000,7.26193994140625,0.007129826117306948,-0.3657130300998688,-0.2547028362751007
1700516805899951000,7.271951171875,-0.01718292199075222,0.4215702712535858,0.07623238861560822
1700516805909961000,7.2819609375,-0.05696841701865196,-1.0823969841003418,0.0965922549366951
1700516805919971800,7.291971923828125,0.005640499759465456,0.821972668170929,-0.199302077293396
1700516805929982000,7.30198193359375,0.035406649112701416,-1.3034324645996094,-0.13523069024085999
1700516805939992800,7.311992919921875,0.04270150139927864,1.162649393081665,-0.2400689572095871
1700516805950003000,7.3220029296875,0.06510188430547714,-0.5944715738296509,0.02652013674378395
1700516805960013800,7.332013916015625,-0.08765944838523865,0.31427162885665894,0.05409408360719681
1700516805970024000,7.34202392578125,-0.026520991697907448,-0.22844679653644562,0.4450458586215973
1700516805980034800,7.352034912109375,0.026812389492988586,0.2550908923149109,0.07209599763154984
1700516805990045000,7.362044921875,-0.006156479939818382,0.3956783711910248,0.6305832266807556
1700516806000056000,7.37205615234375,0.08355645090341568,-0.36597317457199097,0.38227716088294983
1700516806010066000,7.38206591796875,0.10705405473709106,0.314330518245697,0.20485204458236694
1700516806020077000,7.3920771484375,-0.06617631018161774,-0.23130692541599274,-0.5721745491027832
1700516806030087000,7.4020869140625,-0.06705036014318466,0.37415340542793274,-0.1291145235300064
1700516806040098000,7.41209814453125,-0.045893844217061996,-0.7080638408660889,0.08134159445762634
1700516806050108000,7.42210791015625,0.0035061994567513466,0.3760208785533905,-0.20165175199508667
1700516806060119000,7.432119140625,-0.025330979377031326,-0.8533750772476196,-0.5038653016090393
1700516806070129000,7.44212890625,0.0375201553106308,0.7306318283081055,-0.5689029097557068
1700516806080139800,7.452139892578125,0.11848586052656174,-0.6248134970664978,-0.06034732237458229
1700516806090151000,7.46215087890625,0.05043170228600502,0.6165447235107422,-0.12934929132461548
1700516806100160800,7.472160888671875,0.034266505390405655,-0.7724013328552246,0.03334610536694527
1700516806110172200,7.482172119140625,0.030050991103053093,0.47355222702026367,-0.20699246227741241
1700516806120181800,7.492181640625,0.08011330664157867,-0.03169192746281624,-0.10422071814537048
1700516806130193000,7.50219287109375,-0.03225850686430931,0.13441768288612366,-0.1746988743543625
1700516806140203000,7.512203125,-0.10872260481119156,-0.23725958168506622,0.2052912414073944
1700516806150214000,7.5222138671875,0.08768285810947418,0.2116500437259674,0.13453930616378784
1700516806160224000,7.53222412109375,-0.041314855217933655,0.31477439403533936,0.7423385381698608
1700516806170235000,7.54223486328125,-0.0024830393958836794,0.325484037399292,0.6371543407440186
1700516806180245000,7.552244873046875,0.15294311940670013,-0.4448673129081726,0.5465344786643982
1700516806190255900,7.562255859375,0.030476054176688194,0.8002488613128662,0.061223674565553665
1700516806200266000,7.572265869140625,0.1094970628619194,-0.4117633104324341,0.4137181043624878
1700516806210276900,7.58227685546875,0.05019592121243477,0.4642963111400604,0.1298712193965912
1700516806220286700,7.59228662109375,0.2104695737361908,-0.647013247013092,-0.0123042743653059
1700516806230297900,7.6022978515625,0.003915347624570131,0.6777101755142212,-0.36767062544822693
1700516806240307700,7.6123076171875,0.09837480634450912,-0.48979419469833374,0.05907892435789108
1700516806250319000,7.622319091796875,0.08455300331115723,0.6573296785354614,-0.33754193782806396
1700516806260329000,7.632328857421875,0.16513334214687347,-1.1472008228302002,-0.41321995854377747
1700516806270339800,7.64233984375,-0.024905839934945107,0.7971863746643066,-0.3988974988460541
1700516806280350000,7.652349853515625,-0.0659453272819519,-1.0265041589736938,-0.0721016451716423
1700516806290360800,7.66236083984375,-0.1673310548067093,0.5149401426315308,-0.513148844242096
1700516806300371000,7.672370849609375,0.005021600052714348,-0.8063215613365173,-0.28085213899612427
1700516806310381800,7.6823818359375,0.10530000180006027,0.6197490096092224,-0.1164722666144371
1700516806320392000,7.692391845703125,0.055180951952934265,-0.49571776390075684,0.21893154084682465
1700516806330402800,7.70240283203125,-0.1251792311668396,0.364927738904953,0.1700444221496582
1700516806340413000,7.712412841796875,-0.024574171751737595,-0.6370077729225159,-0.06878771632909775
1700516806350423800,7.722423828125,0.10401256382465363,0.6460039019584656,-0.1531132459640503
1700516806360435000,7.73243505859375,-0.04745012894272804,-0.5174967050552368,-0.006991580128669739
1700516806370445000,7.742445068359375,-0.130140483379364,0.13593490421772003,0.19569414854049683
1700516806380456000,7.7524560546875,0.10939274728298187,0.12805302441120148,-0.1787060797214508
1700516806390466000,7.762466064453125,0.01587531343102455,0.11701874434947968,0.5700094103813171
1700516806400477000,7.772476806640625,0.052503012120723724,0.34034156799316406,0.3047224283218384
1700516806410487000,7.782487060546875,0.1819443553686142,-0.6477460265159607,0.06317000091075897
1700516806420498000,7.792497802734375,0.004046035464853048,0.7845728993415833,-0.12575675547122955
1700516806430507800,7.8025078125,0.13076457381248474,-0.6977489590644836,0.051126670092344284
1700516806440519000,7.812518798828125,0.026751376688480377,0.4484935998916626,0.215457022190094
1700516806450528800,7.82252880859375,0.1459408849477768,-0.01806105114519596,-0.3749500811100006
1700516806460540000,7.832539794921875,0.09504232555627823,0.19289898872375488,0.07585488259792328
1700516806470549800,7.8425498046875,0.025049660354852676,-0.033577561378479004,0.3529141843318939
1700516806480561000,7.852560791015625,0.2330072671175003,-0.5124284029006958,0.23683099448680878
1700516806490571000,7.862571044921875,0.040414392948150635,0.8587746620178223,-0.2479306161403656
1700516806500582000,7.872581787109375,0.08018307387828827,-0.6263207197189331,0.39421236515045166
1700516806510592000,7.882592041015625,0.03240729123353958,0.8549321293830872,0.28836527466773987
1700516806520603000,7.892602783203125,0.15819615125656128,-0.7451974749565125,-0.19820189476013184
1700516806530613000,7.902613037109375,-0.050944555550813675,0.5287977457046509,-0.1323230117559433
1700516806540624000,7.912623779296875,0.00735127879306674,-0.1922391653060913,0.09998401254415512
1700516806550634000,7.922634033203125,0.11443965137004852,-0.36673134565353394,-0.07340588420629501
1700516806560644900,7.932644775390625,-0.060431934893131256,0.3440975248813629,-0.597154438495636
1700516806570655200,7.9426552734375,0.0011235690908506513,-0.39708659052848816,-0.07824363559484482
1700516806580666400,7.952666259765625,-0.07401333004236221,0.4003598392009735,-0.1188308373093605
1700516806590676200,7.96267626953125,0.15785984694957733,-1.1598045825958252,-0.5821889042854309
1700516806600687400,7.972687255859375,0.057616859674453735,1.0102276802062988,-0.46908941864967346
1700516806610697200,7.982697265625,0.1355087161064148,-0.37098008394241333,0.592266857624054
1700516806620708400,7.992708251953125,0.31270596385002136,-0.1001797616481781,0.6348991394042969
1700516806630718200,8.00271826171875,0.13369973003864288,0.7234912514686584,-0.010495536960661411
1700516806640729000,8.01272900390625,0.07993572950363159,0.02079957351088524,0.6726725697517395
1700516806650739200,8.0227392578125,0.08749458193778992,0.7728522419929504,0.5903812050819397
1700516806660750300,8.032750244140624,0.23048220574855804,-0.8250085115432739,-0.09369247406721115
1700516806670761500,8.042761474609375,-0.05701509118080139,0.5626187920570374,-0.3751044273376465
1700516806680771300,8.052771240234375,-0.038787081837654114,-0.18853063881397247,0.1731988787651062
1700516806690782200,8.0627822265625,0.18406037986278534,-0.6116824150085449,-0.04451081529259682
1700516806700792300,8.072792236328125,-0.1324002593755722,0.35094916820526123,-0.6003615856170654
1700516806710803200,8.08280322265625,-0.03497704118490219,-0.4908163845539093,-0.0072977193631231785
1700516806720813300,8.092813232421875,-0.02861670032143593,0.4166366159915924,0.1128426119685173
1700516806730824200,8.10282421875,0.1568993628025055,-0.7794156670570374,-0.3726087808609009
1700516806740834300,8.112834228515625,-0.008046982809901237,0.5900962352752686,-0.05405045300722122
1700516806750845200,8.12284521484375,0.059130989015102386,-0.5052427649497986,0.08382245898246765
1700516806760855300,8.132855224609376,0.07118432968854904,-0.33617788553237915,-0.12248244881629944
1700516806770866400,8.142866455078124,0.07162215560674667,1.2237216234207153,-0.0019967863336205482
1700516806780876300,8.152876220703124,0.10550558567047119,-0.2585914731025696,0.7656011581420898
1700516806790887400,8.162887451171875,0.13233959674835205,0.18604379892349243,0.6942518949508667
1700516806800897300,8.172897216796875,0.05253557860851288,0.48843589425086975,-0.21635587513446808
1700516806810908400,8.182908447265625,0.04989105835556984,0.01838637702167034,0.2452160120010376
1700516806820918300,8.192918212890625,-0.002943512052297592,0.3376532793045044,0.13577421009540558
1700516806830929200,8.20292919921875,0.14972274005413055,-0.6789690852165222,-0.135295107960701
1700516806840939300,8.212939208984375,0.03348905220627785,0.32667431235313416,-0.2647198438644409
1700516806850950100,8.2229501953125,0.07983018457889557,-0.30905792117118835,-0.04336242377758026
1700516806860960300,8.232960205078125,0.19108910858631134,-0.22128871083259583,-0.021137423813343048
1700516806870971100,8.24297119140625,0.03863753005862236,0.6579043865203857,-0.3606038987636566
1700516806880981200,8.252981201171876,0.172119140625,-0.3231256604194641,0.16445490717887878
1700516806890992400,8.262992431640624,0.10132619738578796,0.5661339163780212,0.34555041790008545
1700516806901002500,8.27300244140625,0.25161030888557434,-0.5726518034934998,-0.2111530900001526
1700516806911013400,8.283013427734375,0.03763781115412712,0.6173614859580994,-0.12283362448215485
1700516806921023500,8.2930234375,0.053486987948417664,0.07034476846456528,0.4081507623195648
1700516806931034400,8.303034423828125,0.2126777023077011,-0.4929191470146179,0.1912011355161667
1700516806941044200,8.313044189453125,0.007256785873323679,1.0055137872695923,-0.24571889638900757
1700516806951055400,8.323055419921875,0.11659872531890869,-0.5092939138412476,0.6797612905502319
1700516806961065200,8.333065185546875,0.09897196292877197,0.09527157992124557,0.49875807762145996
1700516806971076400,8.343076416015625,-0.017315227538347244,0.4309374690055847,-0.3093602955341339
1700516806981086200,8.353086181640625,0.03772185742855072,-0.03778223320841789,0.3533134162425995
1700516806991097000,8.36309716796875,0.03485150262713432,0.3817359209060669,0.09621904790401459
1700516807001107200,8.373107177734376,0.10011782497167587,-0.5952537059783936,-0.43140217661857605
1700516807011118000,8.3831181640625,-0.00043621205259114504,0.21965952217578888,-0.5912386775016785
1700516807021128200,8.393128173828124,0.011755608953535557,-0.4954430162906647,-0.5053242444992065
1700516807031139300,8.403139404296875,0.08748845756053925,-0.39990636706352234,-0.5710955262184143
1700516807041149400,8.4131494140625,0.016832979395985603,0.11118026077747345,-0.7594162821769714
1700516807051160300,8.423160400390625,0.05889388173818588,-0.03803931549191475,-0.14237864315509796
1700516807061170400,8.43317041015625,0.07734553515911102,0.7407404184341431,0.5027437806129456
1700516807071181300,8.443181396484375,0.06946656852960587,-0.859031617641449,-0.2669568657875061
1700516807081191400,8.45319140625,0.04673023149371147,0.8817804455757141,0.2755421996116638
1700516807091202300,8.463202392578125,0.0648525133728981,0.1591346561908722,0.5319463014602661
1700516807101212200,8.473212158203125,0.15299807488918304,-0.5182454586029053,0.27749067544937134
1700516807111223300,8.483223388671876,-0.025832127779722214,0.8254018425941467,-0.1441548466682434
1700516807121233200,8.493233154296876,-0.005336862988770008,-0.3933508098125458,0.3282981812953949
1700516807131244300,8.503244384765624,0.09454260021448135,-0.08000756055116653,0.2877025604248047
1700516807141254100,8.513254150390624,0.02448679693043232,0.09630798548460007,-0.5018401145935059
1700516807151265300,8.523265380859375,0.06857356429100037,-0.4289083778858185,-0.1545727252960205
1700516807161275400,8.533275390625,-0.02680896408855915,0.3219134509563446,-0.25712090730667114
1700516807171286300,8.543286376953125,0.1343061625957489,-0.7309161424636841,-0.38694149255752563
1700516807181296400,8.55329638671875,0.03706362098455429,0.6429994702339172,-0.2811667025089264
1700516807191307300,8.563307373046875,0.14170587062835693,-0.14170867204666138,0.18659570813179016
1700516807201317400,8.5733173828125,0.17878222465515137,-0.3175817131996155,0.07907982915639877
1700516807211328300,8.583328369140625,0.031222864985466003,0.6580731868743896,-0.48342612385749817
1700516807221338400,8.59333837890625,0.02861115150153637,-0.2443225234746933,-0.20215804874897003
1700516807231349200,8.603349365234376,-0.0958748534321785,0.2831772565841675,0.1531696915626526
1700516807241359400,8.613359375,0.07084169238805771,-0.32559314370155334,-0.38319069147109985
1700516807251370200,8.623370361328124,-0.017101207748055458,0.1895969659090042,-0.06142117828130722
1700516807261380000,8.633380126953124,-0.024069461971521378,0.0013865556102246046,0.393839955329895
1700516807271391500,8.6433916015625,0.16092941164970398,-0.39760398864746094,0.11036428809165955
1700516807281401300,8.6534013671875,0.07476864755153656,0.3118286430835724,0.09039284288883209
1700516807291412500,8.66341259765625,0.1322449892759323,-0.017921822145581245,0.33147522807121277
1700516807301422300,8.67342236328125,0.24079743027687073,-0.02788406051695347,0.5640226006507874
1700516807311433200,8.68343310546875,-0.006153235677629709,0.4968896806240082,0.3232254683971405
1700516807321443300,8.693443359375,0.024020172655582428,-0.16893921792507172,0.3075006306171417
1700516807331454200,8.7034541015625,-0.015359192155301571,0.39053523540496826,0.15731538832187653
1700516807341464300,8.71346435546875,0.07075465470552444,0.024264324456453323,-0.4425494074821472
1700516807351475200,8.72347509765625,-0.0018377904780209064,-0.2693995237350464,-0.008716724812984467
1700516807361485300,8.7334853515625,-0.024075597524642944,-0.008689847774803638,-0.05882304161787033
1700516807371496200,8.74349609375,0.14616669714450836,-0.8202775716781616,-0.46166449785232544
1700516807381506300,8.75350634765625,-0.1496405005455017,0.422920823097229,-0.41675639152526855
1700516807391517400,8.763517333984375,0.10246632248163223,-0.4604931175708771,0.24546417593955994
1700516807401527300,8.77352734375,0.12202276289463043,-0.08736705034971237,0.5530442595481873
1700516807411538400,8.783538330078125,0.0052783009596168995,0.45129960775375366,-0.11741529405117035
1700516807421548300,8.79354833984375,0.09277267754077911,-0.27646419405937195,0.055762212723493576
1700516807431559400,8.803559326171875,-0.03379405289888382,0.4703676402568817,0.12094307690858841
1700516807441569300,8.8135693359375,0.1181008443236351,-0.3391092121601105,-0.2036314308643341
1700516807451580200,8.823580078125,-0.005895403213799,0.1874704211950302,-0.2495078295469284
1700516807461590300,8.83359033203125,-0.045103393495082855,-0.25535693764686584,-0.046629924327135086
1700516807471601200,8.84360107421875,0.02034085802733898,-0.5190405249595642,-0.17962685227394104
1700516807481611300,8.853611328125,-0.10383140295743942,0.5000743269920349,-0.2798404097557068
1700516807491622100,8.8636220703125,-0.018727432936429977,-0.689362645149231,0.274168998003006
1700516807501632300,8.87363232421875,-0.030086804181337357,0.5454460382461548,0.3510369062423706
1700516807511643400,8.883643310546875,0.12931138277053833,0.032171521335840225,0.24260735511779785
1700516807521653200,8.8936533203125,0.1212540715932846,0.33076751232147217,0.6586441397666931
1700516807531664400,8.903664306640625,0.04605785384774208,0.4946872293949127,0.9196848273277283
1700516807541674500,8.913674560546875,0.31023794412612915,-0.4544820189476013,0.5152259469032288
1700516807551685400,8.923685302734375,-0.05471287667751312,0.5257457494735718,-0.18564587831497192
1700516807561695200,8.9336953125,0.004272143356502056,-0.011688369326293468,0.058685045689344406
1700516807571705000,8.943705078125,0.2045692801475525,-0.5830464363098145,0.337190181016922
1700516807581715200,8.953715087890625,0.0001903217053040862,0.4349062144756317,-0.4071809649467468
1700516807591726000,8.96372607421875,0.0261249840259552,-0.3190692961215973,-0.36465829610824585
1700516807601736200,8.973736083984376,-0.011469573713839054,0.23597513139247894,-0.12277264147996902
1700516807611747300,8.983747314453124,0.1209220215678215,-0.49683624505996704,-0.48214200139045715
1700516807621757200,8.993757080078124,-0.022742820903658867,0.1518203169107437,-0.35813209414482117
1700516807631768300,9.003768310546874,-0.023696765303611755,0.04005490243434906,0.06774251163005829
1700516807641778200,9.013778076171874,0.21013617515563965,-0.9475119709968567,-0.07969846576452255
1700516807651789300,9.023789306640625,-0.19273777306079865,0.8134366869926453,-0.43075796961784363
1700516807661799200,9.033799072265625,0.0049806321039795876,-0.48449134826660156,0.4178687036037445
1700516807671810000,9.04381005859375,0.05742200091481209,-0.11756208539009094,0.5318237543106079
1700516807681820200,9.053820068359375,-0.10524719208478928,0.10208767652511597,-0.3679496943950653
1700516807691831000,9.0638310546875,-0.038856714963912964,-0.02070935256779194,-0.17367956042289734
1700516807701841200,9.073841064453125,-0.026589535176753998,0.3234787583351135,0.5096898674964905
1700516807711852000,9.08385205078125,0.06891514360904694,-0.6317856311798096,0.29719626903533936
1700516807721862100,9.093862060546876,-0.09529217332601547,0.579279899597168,0.005807860754430294
1700516807731873300,9.103873291015624,-0.07369820028543472,-0.26225319504737854,0.23840941488742828
1700516807741883400,9.11388330078125,0.12270762026309967,-0.499705970287323,-0.010716859251260757
1700516807751894300,9.123894287109374,-0.10118619352579117,0.677841067314148,-0.43172720074653625
1700516807761904000,9.133904052734374,0.04366326704621315,-0.552492618560791,0.3632339835166931
1700516807771914200,9.143914306640625,-0.015184334479272366,0.09226665645837784,0.39109331369400024
1700516807781925000,9.153925048828125,0.05488666146993637,0.22645168006420135,-0.4759599566459656
1700516807791935200,9.163935302734375,0.009294943884015083,-0.37630051374435425,-0.13059671223163605
1700516807801946000,9.173946044921875,-0.001450112322345376,0.1365942358970642,-0.1898733526468277
1700516807811956200,9.183956298828125,0.13802124559879303,-0.6851887702941895,-0.6574914455413818
1700516807821967000,9.193967041015625,-0.18481633067131042,0.49116337299346924,-0.7940528988838196
1700516807831977200,9.203977294921875,-0.020090505480766296,-0.9024152755737305,-0.5521454215049744
1700516807841988000,9.213988037109376,-0.07279513776302338,0.6281152367591858,-0.31073901057243347
1700516807851998200,9.223998291015626,0.11981265991926193,-0.6813797354698181,-0.31872448325157166
1700516807862009000,9.234009033203124,-0.08387910574674606,0.1920892745256424,0.14479896426200867
1700516807872019000,9.24401904296875,-0.09778160601854324,0.32239028811454773,0.3761318027973175
1700516807882030300,9.2540302734375,-0.02452550269663334,-0.7548778057098389,0.43066588044166565
1700516807892040200,9.264040283203125,-0.1160530224442482,0.7953224182128906,0.08404853194952011
1700516807902051300,9.27405126953125,-0.04566919803619385,-0.2294265478849411,0.42533284425735474
1700516807912061200,9.284061279296875,-0.1105605810880661,0.1786022186279297,0.5039480328559875
1700516807922072000,9.294072021484375,-0.07147762179374695,0.5682336688041687,-0.128170907497406
1700516807932082200,9.304082275390625,-0.10444622486829758,-0.3186604678630829,0.598987877368927
1700516807942093000,9.314093017578125,-0.23510470986366272,0.3714591860771179,0.5430545806884766
1700516807952103200,9.324103271484375,0.015730176120996475,-0.3419252336025238,-0.781650185585022
1700516807962114000,9.334114013671876,-0.2499876171350479,0.11934724450111389,-0.2616356313228607
1700516807972124200,9.344124267578126,-0.08461064100265503,-0.09075911343097687,-0.07923012971878052
1700516807982135000,9.354135009765624,0.08251456916332245,-0.5452913045883179,-0.10622115433216095
1700516807992145200,9.364145263671874,-0.18193653225898743,0.4711243510246277,-0.12940716743469238
1700516808002156300,9.37415625,0.00003326835576444864,-0.19210375845432281,0.053514011204242706
1700516808012166100,9.384166259765625,-0.041051581501960754,0.268643319606781,-0.007520316168665886
1700516808022177300,9.39417724609375,-0.016302207484841347,0.18315133452415466,-0.34545794129371643
1700516808032187100,9.404187255859375,-0.0038564573042094707,-0.1618707776069641,0.062834732234478
1700516808042197200,9.414197265625,-0.07866651564836502,0.15597274899482727,-0.6111797094345093
1700516808052208000,9.4242080078125,0.08220146596431732,-0.2981300354003906,-0.37803536653518677
1700516808062218200,9.43421826171875,-0.1494596004486084,0.4961242973804474,0.017669763416051865
1700516808072229000,9.44422900390625,-0.10236025601625443,-0.3705093264579773,0.3442752957344055
1700516808082239200,9.4542392578125,-0.2790783643722534,0.16845758259296417,0.12648020684719086
1700516808092250000,9.46425,-0.12775035202503204,0.05271501466631889,-0.5711861848831177
1700516808102260200,9.47426025390625,-0.17969001829624176,0.06402057409286499,0.4584083557128906
1700516808112271000,9.48427099609375,-0.22439809143543243,0.13961920142173767,0.7476012706756592
1700516808122281000,9.494281005859374,-0.04887866973876953,-0.7717758417129517,-0.15616051852703094
1700516808132292400,9.504292236328125,-0.26430630683898926,0.6428921222686768,-0.5518388748168945
1700516808142302200,9.51430224609375,-0.16648931801319122,-0.45804864168167114,0.20874027907848358
1700516808152313300,9.524313232421875,-0.06385321915149689,-0.2836936116218567,0.25631606578826904
1700516808162323200,9.5343232421875,-0.13986466825008392,0.5356871485710144,-0.08749273419380188
1700516808172334000,9.544333984375,-0.041058726608753204,-0.3299168646335602,0.5875647664070129
1700516808182344200,9.55434423828125,-0.1242118626832962,0.47088488936424255,0.35357344150543213
1700516808192355000,9.56435498046875,0.03003283590078354,-0.01305700559169054,0.24546532332897186
1700516808202365200,9.574365234375,-0.12148123979568481,-0.038001514971256256,0.557586133480072
1700516808212376000,9.5843759765625,-0.15259654819965363,0.16560274362564087,0.258985310792923
1700516808222386200,9.59438623046875,-0.03555474057793617,-0.489128053188324,0.2771921455860138
1700516808232397000,9.60439697265625,-0.19875432550907135,0.24266092479228973,-0.16147683560848236
1700516808242407200,9.6144072265625,-0.06570762395858765,-0.27358734607696533,0.1313805878162384
1700516808252418300,9.624418212890625,-0.21959811449050903,-0.05489229038357735,-0.18998464941978455
1700516808262428200,9.63442822265625,0.002750443760305643,-0.2127775102853775,-1.258367657661438
1700516808272438000,9.64443798828125,-0.13487718999385834,-0.2503190338611603,-0.27938371896743774
1700516808282449200,9.65444921875,-0.08778158575296402,-0.06712577491998672,-0.03032381273806095
1700516808292459300,9.664459228515625,0.0835622027516365,-0.6366129517555237,-0.2844812572002411
1700516808302470100,9.67447021484375,-0.05914036184549332,0.6763643026351929,0.042504679411649704
1700516808312480300,9.684480224609375,0.015953855589032173,-0.2473861575126648,0.8474544286727905
1700516808322491100,9.6944912109375,-0.11276398599147797,0.3545974791049957,0.8551967740058899
1700516808332501200,9.704501220703126,-0.0476454421877861,0.444467693567276,-0.015927445143461227
1700516808342512000,9.71451220703125,-0.06780251860618591,-0.07403582334518433,0.45303383469581604
1700516808352522200,9.724522216796874,-0.17345410585403442,0.29619044065475464,0.6776542067527771
1700516808362533000,9.734533203125,0.022226030007004738,-0.49945715069770813,-0.11108674854040146
1700516808372543000,9.74454296875,-0.26935631036758423,-0.03028700314462185,-0.13107430934906006
1700516808382554000,9.75455419921875,-0.09489445388317108,-0.07277489453554153,0.1539422869682312
1700516808392564000,9.76456396484375,-0.0550258606672287,-0.2549108862876892,0.2603188157081604
1700516808402575400,9.774575439453125,-0.1206500232219696,0.2776939868927002,0.09974796324968338
1700516808412585200,9.784585205078125,0.07736692577600479,-0.06451954692602158,0.5117882490158081
1700516808422596000,9.79459619140625,-0.045133862644433975,0.3447878360748291,0.197287455201149
1700516808432606200,9.804606201171875,0.08256417512893677,-0.025817936286330223,-0.21864691376686096
1700516808442616300,9.8146162109375,-0.058233246207237244,-0.009285854175686836,-0.3753514587879181
1700516808452627200,9.824627197265626,0.010191883891820908,0.14331328868865967,-0.729712724685669
1700516808462637300,9.83463720703125,0.008799329400062561,-0.44837817549705505,-0.3872103989124298
1700516808472648200,9.844648193359374,-0.09185324609279633,0.05677955597639084,-1.2646013498306274
1700516808482658000,9.854657958984374,-0.020591380074620247,-0.6169909238815308,-0.6342766284942627
1700516808492669200,9.864669189453124,-0.14794321358203888,0.44006937742233276,-0.07634331285953522
1700516808502679000,9.874678955078124,0.08130676299333572,-1.2475746870040894,-0.41342952847480774
1700516808512690200,9.884690185546875,-0.003167378716170788,1.263079285621643,-0.024570712819695473
1700516808522700000,9.894699951171875,-0.012860041111707687,-0.3303154408931732,0.4962320923805237
1700516808532711200,9.904711181640625,-0.05227162688970566,0.1987641453742981,0.5114783644676208
1700516808542721300,9.91472119140625,0.00212605157867074,0.975877583026886,0.4185355007648468
1700516808552732200,9.924732177734375,0.06983958184719086,0.01157037727534771,0.7824596762657166
1700516808562742300,9.9347421875,-0.14273686707019806,0.7158579230308533,0.9596853256225586
1700516808572754200,9.944754150390626,-0.030604468658566475,0.04077163711190224,-0.20850811898708344
1700516808582764000,9.954763916015626,-0.1353171318769455,-0.3456157445907593,0.12766863405704498
1700516808592775200,9.964775146484374,-0.05495623126626015,0.12190219014883041,0.22049283981323242
1700516808602785000,9.974784912109374,0.12999624013900757,-0.36738157272338867,-0.06541758030653
1700516808612795100,9.984795166015624,-0.07181837409734726,0.13204605877399445,-0.24629975855350494
1700516808622806000,9.994805908203125,0.1161971315741539,-0.08081158250570297,-0.34831592440605164
1700516808632816000,10.004816162109375,0.014517376199364662,0.1311696469783783,-0.4481722116470337
1700516808642827000,10.014826904296875,0.010595075786113739,-0.09972930699586868,-0.9949027299880981
1700516808652837000,10.024837158203125,0.017649255692958832,-0.1776006817817688,-0.5705210566520691
1700516808662848000,10.034847900390625,0.026945117861032486,0.311893492937088,-0.5163840651512146
1700516808672858000,10.044858154296875,-0.0415218248963356,-0.7283356189727783,-0.12051364034414291
1700516808682869000,10.054868896484376,-0.0600445531308651,0.17608824372291565,-0.9055691361427307
1700516808692878800,10.06487890625,-0.08576776087284088,0.37986454367637634,-0.46310752630233765
1700516808702890200,10.07489013671875,-0.2327055037021637,0.19362525641918182,0.29672718048095703
1700516808712900000,10.084900146484374,0.06687162071466446,-0.610247790813446,-0.16154102981090546
1700516808722911200,10.0949111328125,0.0637621134519577,0.5436594486236572,-0.39750590920448303
1700516808732921000,10.104921142578124,0.006833586376160383,-0.3466060161590576,-0.32879766821861267
1700516808742932000,10.114931884765625,-0.09870296716690063,0.1946561187505722,0.09211524575948715
1700516808752942000,10.124942138671875,-0.026368845254182816,0.7803851366043091,0.04739464819431305
1700516808762952200,10.1349521484375,0.07469523698091507,-0.25517401099205017,0.9682560563087463
1700516808772963000,10.144963134765625,0.11580193042755127,0.5421335697174072,1.2235972881317139
1700516808782973000,10.154972900390625,0.23689384758472443,0.6831374764442444,0.057026755064725876
1700516808792984000,10.164984130859375,-0.04250956326723099,-0.3531293570995331,0.5895654559135437
1700516808802994000,10.174993896484375,0.06102460250258446,0.5417148470878601,0.3949097990989685
1700516808813005000,10.185005126953126,0.14294077455997467,-0.16540607810020447,0.1888437420129776
1700516808823015000,10.195014892578126,-0.010833431966602802,0.27065348625183105,0.024380609393119812
1700516808833026000,10.205026123046874,0.17229750752449036,0.25932440161705017,-0.1839376986026764
1700516808843036000,10.215035888671874,0.10609607398509979,-0.22848635911941528,0.24508288502693176
1700516808853047000,10.225047119140624,0.10166563838720322,0.4074312448501587,-0.7373172640800476
1700516808863057200,10.23505712890625,-0.018171066418290138,-0.5071168541908264,-0.16406983137130737
1700516808873067300,10.2450673828125,-0.04014693945646286,0.20253829658031464,-0.19191797077655792
1700516808883078100,10.255078125,0.14510992169380188,-0.6304798126220703,-0.6713383197784424
1700516808893088000,10.265087890625,-0.11281270533800125,0.4767238199710846,-0.23357084393501282
1700516808903099100,10.27509912109375,0.0884861871600151,-0.2774941623210907,0.48261478543281555
1700516808913109000,10.28510888671875,0.087868332862854,-0.047581061720848083,0.3161509931087494
1700516808923120000,10.2951201171875,-0.014336551539599895,0.35229355096817017,-0.22771131992340088
1700516808933130000,10.3051298828125,0.036730628460645676,-0.1700330376625061,0.7521995902061462
1700516808943140900,10.315140869140626,-0.07644675672054291,0.3487566411495209,1.0291638374328613
1700516808953151000,10.32515087890625,0.10534967482089996,-0.3760966956615448,0.038737718015909195
1700516808963161900,10.335161865234374,-0.08646515011787415,0.15073813498020172,0.2865021824836731
1700516808973172000,10.345171875,0.008314617909491062,0.0647534504532814,0.10597740858793259
1700516808983182000,10.35518212890625,0.06611984223127365,-0.35118749737739563,0.1316497027873993
1700516808993193200,10.365193115234375,-0.04350252449512482,0.4247649610042572,-0.19162581861019135
1700516809003203000,10.375203125,0.03220827132463455,-0.227364644408226,0.2530851364135742
1700516809013214200,10.385214111328125,0.018810437992215157,0.371580570936203,0.194649800658226
1700516809023224000,10.39522412109375,0.28972429037094116,0.8254668116569519,-1.5681824684143066
1700516809033235200,10.405235107421875,-0.18984973430633545,-0.303130567073822,-0.05365696921944618
1700516809043245000,10.4152451171875,0.10221322625875473,0.12640918791294098,1.1178297996520996
1700516809053256000,10.425255859375,0.18502847850322723,-0.7045953273773193,0.9508048892021179
1700516809063266000,10.43526611328125,-0.08272871375083923,0.4608120322227478,-0.30706271529197693
1700516809073277000,10.44527685546875,0.04731450974941254,-0.010044682770967484,-0.181721031665802
1700516809083287000,10.455287109375,-0.04443981871008873,0.010847078636288643,0.2748679220676422
1700516809093297000,10.465296875,0.08463986963033676,0.016401102766394615,-0.19509266316890717
1700516809103308000,10.47530810546875,-0.0023331986740231514,-0.14393369853496552,0.017449770122766495
1700516809113318000,10.48531787109375,-0.0269171055406332,0.11587763577699661,-0.2059747874736786
1700516809123329000,10.4953291015625,0.030606189742684364,-0.4659036099910736,-0.5777653455734253
1700516809133339000,10.5053388671875,-0.05247857794165611,0.4658019542694092,-0.6716494560241699
1700516809143350000,10.51535009765625,0.00942904967814684,-0.26276862621307373,-0.5313588976860046
1700516809153360100,10.525360107421875,-0.08171497285366058,0.36173251271247864,-0.3372029662132263
1700516809163371000,10.53537109375,0.020191902294754982,-0.27152472734451294,-0.6493865847587585
1700516809173381000,10.545381103515625,-0.05234861001372337,0.3109264373779297,-0.27845725417137146
1700516809183392000,10.55539208984375,-0.05844511836767197,0.1408814787864685,0.17448249459266663
1700516809193402000,10.565402099609376,0.1416940987110138,-0.459811806678772,0.08039514720439911
1700516809203412000,10.575411865234376,-0.05308879539370537,0.9228765964508057,0.02282704785466194
1700516809213423000,10.585423095703124,0.001861807075329125,-0.3592229187488556,0.3868289589881897
1700516809223433000,10.595432861328124,-0.02451152354478836,0.5748739838600159,0.4479864239692688
1700516809233444000,10.605444091796874,-0.035736214369535446,0.2168295830488205,-0.17360229790210724
1700516809243454000,10.615453857421874,-0.026527848094701767,-0.12470980733633041,0.1259211003780365
1700516809253464800,10.62546484375,-0.05272163823246956,0.33509987592697144,0.45930731296539307
1700516809263475000,10.635474853515625,0.12059769779443741,-0.5764789581298828,-0.0384020134806633
1700516809273486000,10.645486083984375,-0.01586933247745037,0.5138679146766663,-0.04458454251289368
1700516809283496200,10.65549609375,0.08923431485891342,-0.021725408732891083,0.17674142122268677
1700516809293507000,10.665507080078125,0.04533848911523819,0.04712396487593651,0.47433024644851685
1700516809303517200,10.67551708984375,0.09529157727956772,0.3984350264072418,-0.11809266358613968
1700516809313527000,10.685527099609375,0.0690799430012703,-0.102827288210392,0.2203919142484665
1700516809323538200,10.6955380859375,-0.0049796337261796,0.47601932287216187,0.20980553328990936
1700516809333548000,10.705548095703126,0.14155735075473785,-0.2841632068157196,-0.1433730274438858
1700516809343559000,10.715558837890624,-0.05226875841617584,0.36794567108154297,0.042391080409288406
1700516809353569000,10.725569091796874,0.07743731141090393,-0.16044095158576965,0.17487402260303497
1700516809363580000,10.735579833984374,-0.010709814727306366,-0.13961084187030792,0.1669592410326004
1700516809373590000,10.745590087890625,-0.016040930524468422,0.3300732970237732,-0.38630685210227966
1700516809383601000,10.755600830078125,-0.013954972848296165,-0.3921065628528595,0.17078696191310883
1700516809393611000,10.765611083984375,-0.06001967191696167,0.28686100244522095,0.19182859361171722
1700516809403620900,10.775620849609375,0.06758493930101395,-0.38445961475372314,-0.4531553089618683
1700516809413632300,10.78563232421875,-0.07179825007915497,0.2543879747390747,-0.06999409943819046
1700516809423642000,10.79564208984375,0.051502060145139694,0.1260518729686737,0.255209743976593
1700516809433653000,10.805653076171875,0.05893121659755707,-0.28306055068969727,0.5820778608322144
1700516809443663000,10.8156630859375,0.03055114857852459,0.49313879013061523,-0.08549287170171738
1700516809453674000,10.825674072265626,0.07243841141462326,-0.1828189194202423,0.22867943346500397
1700516809463684000,10.83568408203125,0.008699292317032814,0.4017374813556671,0.17559552192687988
1700516809473695000,10.845695068359374,0.06974639743566513,-0.01658625528216362,-0.2437591254711151
1700516809483705000,10.855705078125,-0.01014585793018341,0.12614449858665466,0.18926644325256348
1700516809493715000,10.86571484375,0.011702715419232845,0.060813698917627335,0.03410668671131134
1700516809503726000,10.87572607421875,0.10623100399971008,-0.41674160957336426,-0.09449280798435211
1700516809513736000,10.88573583984375,0.05871274694800377,0.36606767773628235,-0.26105913519859314
1700516809523747000,10.8957470703125,0.035563625395298004,-0.28833073377609253,0.35449784994125366
1700516809533757000,10.9057568359375,0.0357857309281826,0.2307683527469635,0.30515986680984497
1700516809543767800,10.915767822265625,-0.0006774331559427083,-0.26588720083236694,-0.43799862265586853
1700516809553778000,10.92577783203125,-0.029375391080975533,-0.09083522856235504,-0.08637665957212448
1700516809563789000,10.9357890625,0.017941124737262726,0.023554354906082153,-0.05523913353681564
1700516809573799000,10.945798828125,0.11281224340200424,-0.5399340391159058,0.08035757392644882
1700516809583809000,10.95580908203125,-0.024207528680562973,0.42606061697006226,-0.3896435499191284
1700516809593820000,10.96581982421875,-0.04817917197942734,-0.3559979498386383,0.04935165494680405
1700516809603829800,10.975829833984376,-0.03956308960914612,0.25305837392807007,0.13988740742206573
1700516809613841000,10.9858408203125,-0.00044072227319702506,0.03174622356891632,-0.4452868700027466
1700516809623850800,10.995850830078124,-0.035323336720466614,-0.0505179837346077,-0.05937540531158447
1700516809633862000,11.00586181640625,0.025126958265900612,0.18254722654819489,-0.01489768736064434
1700516809643871700,11.015871826171875,0.056880537420511246,-0.47185587882995605,-0.23910248279571533
1700516809653882600,11.025882568359375,-0.039170362055301666,0.4764057695865631,-0.1663007140159607
1700516809663892700,11.035892822265625,-0.028077103197574615,-0.405840128660202,0.16606025397777557
1700516809673902800,11.04590283203125,-0.008937232196331024,0.17148415744304657,0.08777343481779099
1700516809683914000,11.0559140625,-0.006004247814416885,0.24555478990077972,-0.4262893795967102
1700516809693923800,11.065923828125,0.02766449935734272,-0.10721445828676224,0.20784494280815125
1700516809703935000,11.07593505859375,-0.009259027428925037,0.19729293882846832,0.4669548273086548
1700516809713944800,11.08594482421875,0.12499012053012848,-0.5480451583862305,-0.03270772099494934
1700516809723956000,11.0959560546875,-0.07238020747900009,0.38386157155036926,-0.14415787160396576
1700516809733965800,11.1059658203125,0.019312957301735878,-0.2114180475473404,0.22156259417533875
1700516809743976000,11.115975830078124,0.01413773000240326,0.04098188877105713,0.35685139894485474
1700516809753986800,11.12598681640625,0.06730667501688004,0.18800301849842072,-0.4498049020767212
1700516809763997000,11.135996826171874,0.01175477635115385,-0.17474472522735596,-0.05694761499762535
1700516809774007800,11.1460078125,0.010629325173795223,0.42550620436668396,0.17535194754600525
1700516809784018000,11.156017822265625,0.0472848117351532,-0.4316265285015106,0.004334609489887953
1700516809794028800,11.16602880859375,-0.0138810770586133,0.33171796798706055,0.021686701104044914
1700516809804038700,11.17603857421875,0.05908647179603577,-0.11396753787994385,0.05874957889318466
1700516809814049800,11.1860498046875,0.030357353389263153,0.02272665500640869,0.03134991228580475
1700516809824059600,11.1960595703125,-0.03152727335691452,0.21415185928344727,-0.48927655816078186
1700516809834069800,11.20606982421875,-0.04319751262664795,-0.31323525309562683,0.16929468512535095
1700516809844081000,11.216080810546876,-0.00786899495869875,0.21971352398395538,0.24437721073627472
1700516809854091000,11.226091064453126,0.09314577281475067,-0.7430101633071899,-0.18867649137973785
1700516809864102000,11.236101806640624,-0.06960754841566086,0.3165932595729828,-0.1495186686515808
1700516809874112000,11.246112060546874,0.037275489419698715,-0.3630145788192749,-0.01930101029574871
1700516809884123000,11.256122802734374,-0.033826734870672226,-0.16285555064678192,0.22784458100795746
1700516809894132700,11.2661328125,0.04634559899568558,0.37219002842903137,-0.3476130962371826
1700516809904142800,11.276142822265625,0.005302777513861656,-0.35237252712249756,0.04723884165287018
1700516809914153700,11.28615380859375,0.03083183988928795,0.49313345551490784,-0.0302109457552433
1700516809924163800,11.296163818359375,0.09168657660484314,-0.2127879112958908,-0.23220957815647125
1700516809934174700,11.3061748046875,-0.03738299012184143,0.4938214123249054,0.097886823117733
1700516809944184800,11.316184814453125,0.049780186265707016,-0.17522980272769928,0.4209005832672119
1700516809954195700,11.32619580078125,0.10367751121520996,-0.38378965854644775,0.17738458514213562
1700516809964205800,11.336205810546875,0.013076012022793293,0.4188861548900604,-0.13873931765556335
1700516809974215700,11.346215576171875,0.023947568610310555,-0.3391650915145874,0.18047568202018738
1700516809984226800,11.356226806640626,-0.0297614224255085,0.2710568606853485,0.4470551311969757
1700516809994237000,11.36623681640625,0.059618525207042694,-0.21745796501636505,-0.17398203909397125
1700516810004247800,11.376247802734374,-0.0749342292547226,-0.11442908644676208,0.12533040344715118
1700516810014258000,11.3862578125,0.02041279897093773,0.08143815398216248,-0.019536765292286873
1700516810024268000,11.39626806640625,0.06439996510744095,-0.36683782935142517,-0.13245487213134766
1700516810034279000,11.40627880859375,-0.01924007013440132,0.1822897493839264,-0.28438690304756165
1700516810044288800,11.416288818359375,-0.0358809195458889,-0.3457889258861542,-0.11042679101228714
1700516810054300000,11.4262998046875,-0.12014546990394592,0.2826140224933624,-0.14461883902549744
1700516810064309800,11.436309814453125,0.004851860925555229,-0.5559747219085693,-0.834489107131958
1700516810074321000,11.44632080078125,-0.13941262662410736,0.2718665301799774,-0.4103817343711853
1700516810084330800,11.456330810546875,0.00881246943026781,-0.303639680147171,0.016431817784905434
1700516810094340900,11.4663408203125,0.03285602107644081,-0.524921178817749,0.06197506934404373
1700516810104351700,11.476351806640626,-0.08237607777118683,0.48770949244499207,-0.3375592827796936
1700516810114361900,11.48636181640625,-0.013393545523285866,-0.4809578061103821,-0.1722899079322815
1700516810124372700,11.496372802734374,-0.10432513803243637,0.6507843732833862,-0.17800143361091614
1700516810134382800,11.5063828125,0.08190599083900452,-0.32129472494125366,-0.40159881114959717
1700516810144392700,11.516392822265624,0.026912597939372063,0.4540782570838928,-0.18455664813518524
1700516810154403800,11.52640380859375,0.005165225826203823,0.06967092305421829,0.3977288603782654
1700516810164414000,11.5364140625,0.14261572062969208,-0.7142801880836487,0.36471906304359436
1700516810174424800,11.5464248046875,0.008098919875919819,0.7869237065315247,0.1131715252995491
1700516810184435000,11.55643505859375,0.02193289063870907,-0.2852426767349243,0.34336891770362854
1700516810194445800,11.56644580078125,-0.03047465719282627,0.24269652366638184,0.5413142442703247
1700516810204456000,11.5764560546875,-0.000828746531624347,0.10747113823890686,-0.09102519601583481
1700516810214465800,11.5864658203125,-0.022274382412433624,-0.1996144950389862,0.018514610826969147
1700516810224477000,11.596476806640625,-0.012052907608449459,0.3312888741493225,-0.09710421413183212
1700516810234486800,11.60648681640625,0.0975249856710434,-0.5272050499916077,-0.2588534355163574
1700516810244497700,11.61649755859375,-0.030476119369268417,0.31749624013900757,-0.17758189141750336
1700516810254507800,11.6265078125,0.04375709965825081,-0.2239164113998413,0.06732826679944992
1700516810264518000,11.636517822265626,0.01365183386951685,0.057744916528463364,0.07152114063501358
1700516810274528800,11.64652880859375,0.022206706926226616,0.28991425037384033,-0.5305612683296204
1700516810284538600,11.65653857421875,0.008791652508080006,-0.1726813018321991,0.11042071133852005
1700516810294550000,11.666550048828125,-0.014928324148058891,0.38753777742385864,0.22353261709213257
1700516810304559900,11.676559814453125,0.08211909234523773,-0.4882567524909973,-0.2744868993759155
1700516810314570000,11.686570068359375,-0.05558738112449646,0.35811153054237366,-0.027951428666710854
1700516810324580900,11.696580810546875,-0.042905185371637344,-0.4623994529247284,0.4203214645385742
1700516810334591000,11.706591064453125,-0.0628701001405716,-0.08800189942121506,0.16044940054416656
1700516810344601900,11.716601806640625,-0.07614360749721527,0.380845308303833,-0.3989986479282379
1700516810354612000,11.726612060546875,-0.0019961439538747072,-0.3662075996398926,0.13020184636116028
1700516810364621800,11.736621826171875,-0.08935315161943436,0.3513958156108856,0.6051436066627502
1700516810374633000,11.746633056640626,0.09593455493450165,-0.5806915760040283,-0.18424245715141296
1700516810384642800,11.756642822265626,-0.08083192259073257,0.10223548859357834,0.03143410012125969
1700516810394653700,11.76665380859375,0.03652026876807213,0.011427558958530426,-0.017390698194503784
1700516810404663800,11.776663818359374,0.0814579650759697,-0.36350542306900024,-0.043673738837242126
1700516810414674000,11.786673828125,0.023198913782835007,0.5842208862304688,-0.22974029183387756
1700516810424684800,11.796684814453124,0.08729565888643265,-0.25450944900512695,0.33600813150405884
1700516810434694700,11.806694580078124,-0.00003498292062431574,0.3943992853164673,0.4390908479690552
1700516810444705800,11.816705810546875,0.07811960577964783,0.05641106888651848,-0.23963749408721924
1700516810454715600,11.826715576171875,0.0008122976869344711,-0.00020027579739689827,0.05370863154530525
1700516810464725800,11.836725830078125,0.018382186070084572,0.3084089457988739,0.3334845304489136
1700516810474737000,11.84673681640625,0.01932840794324875,-0.41103628277778625,0.21402311325073242
1700516810484747000,11.8567470703125,-0.05908264219760895,0.26882293820381165,-0.007863769307732582
1700516810494758000,11.8667578125,0.015850722789764404,-0.17715798318386078,0.15664182603359222
1700516810504768000,11.87676806640625,-0.07878722995519638,-0.16899776458740234,0.17860913276672363
1700516810514777900,11.88677783203125,-0.01668018288910389,0.13261349499225616,-0.31700247526168823
1700516810524788700,11.896788818359376,-0.02141537331044674,-0.33566609025001526,-0.09937845915555954
1700516810534798800,11.906798828125,-0.04832847788929939,0.2652847170829773,-0.14689165353775024
1700516810544809700,11.916809814453124,0.01207001693546772,-0.7659472823143005,-0.6446557641029358
1700516810554819800,11.92681982421875,-0.0885671079158783,0.5314601063728333,-0.5034003257751465
1700516810564830000,11.936829833984374,0.011609201319515705,-0.21836118400096893,-0.612614631652832
1700516810574840800,11.9468408203125,-0.04138290882110596,-0.01840544492006302,-0.33264291286468506
1700516810584850400,11.956850341796875,0.028366651386022568,0.6122187376022339,-0.5773153305053711
1700516810594861800,11.96686181640625,-0.0117866275832057,-0.021634895354509354,0.08476276695728302
1700516810604871700,11.97687158203125,-0.019442889839410782,0.5435495972633362,0.6525309681892395
1700516810614881800,11.9868818359375,0.07636699825525284,-0.059333041310310364,0.8709141612052917
1700516810624892700,11.996892578125,0.01690632291138172,0.006518224719911814,1.0913904905319214
1700516810634902800,12.00690283203125,-0.037528157234191895,0.11950576305389404,0.7148150205612183
1700516810644913700,12.01691357421875,-0.03979446366429329,-0.4518558979034424,0.41245540976524353
1700516810654923800,12.026923828125,-0.09900239109992981,0.4604512155056,0.10490026324987411
1700516810664933600,12.03693359375,0.05389922484755516,-0.07613826543092728,-0.1735966056585312
1700516810674944500,12.046944580078126,0.06860173493623734,-0.09738896042108536,-0.18652226030826569
1700516810684954600,12.05695458984375,0.013972772285342216,0.4044002294540405,-0.7916891574859619
1700516810694964700,12.06696484375,-0.014041552320122719,-0.275603324174881,-0.4392735958099365
1700516810704975600,12.0769755859375,-0.08745616674423218,0.2715236246585846,-0.5964973568916321
1700516810714985700,12.08698583984375,0.1178586333990097,-0.6263810396194458,-0.6749351620674133
1700516810724996600,12.09699658203125,-0.027087759226560593,0.46313202381134033,-0.42653343081474304
1700516810735006500,12.10700634765625,-0.008734319359064102,-0.4146578311920166,0.20625735819339752
1700516810745016600,12.1170166015625,0.02451889030635357,-0.19179098308086395,0.578628420829773
1700516810755027700,12.12702783203125,0.05984652042388916,0.627465009689331,0.27809464931488037
1700516810765037800,12.137037841796875,0.02835644781589508,-0.44152891635894775,0.36360812187194824
1700516810775048700,12.147048583984375,-0.060902856290340424,0.1393219530582428,0.5635753273963928
1700516810785058800,12.157058837890625,0.0310420710593462,0.1554284393787384,0.084144227206707
1700516810795068700,12.167068603515625,-0.034384869039058685,-0.3527274429798126,0.4498734772205353
1700516810805079800,12.177079833984376,-0.050652965903282166,0.11442933231592178,0.43492212891578674
