time,seconds_elapsed,z,y,x
1700516155171500300,0.060500244140625,0.4084627274692058,-0.5860606435611844,-0.08707965997271239
1700516155181509400,0.07050927734375,-0.2932645689278841,0.27820523922294377,-0.09346892261840402
1700516155191519200,0.080519287109375,1.09080435539484,-0.5015621591880918,-0.11188501540534197
1700516155201528300,0.0905283203125,-0.8231623035013675,-0.25087036531269546,0.19322306298613548
1700516155211537400,0.100537353515625,-0.2676011353611946,0.6766326026290654,0.12283139336612074
1700516155221547000,0.110547119140625,0.8616618377655744,1.1446861677080393,-0.4145971751036122
1700516155231556000,0.12055615234375,0.8183113563388585,-2.476352704620361,0.30833573520109053
1700516155241565200,0.130565185546875,-1.5809546014696358,1.0926184190794825,-0.19864640320912003
1700516155251575300,0.1405751953125,-0.056042789739370345,0.33423692304641006,0.5706799729473888
1700516155261584400,0.15058447265625,0.4939513919234276,-0.6318455125279724,-0.01620199693404138
1700516155271593200,0.16059326171875,-0.5030307704359293,0.7669136159263551,-0.08802128820437938
1700516155281603300,0.170603271484375,1.3166355565190315,-0.7596889253698289,-0.0625482991758734
1700516155291612200,0.180612060546875,-1.0730489184737204,-0.26410788641795513,0.2718149901965633
1700516155301621200,0.190621337890625,-0.18487959753274916,0.8364069849997758,0.16749715864248574
1700516155311631000,0.200631103515625,0.9854723418295382,1.152690902726352,-0.5429079497288912
1700516155321640200,0.21064013671875,0.6656944445073604,-2.6056629751443863,-0.029070830857381224
1700516155331649300,0.220649169921875,-1.743786033323407,0.9805043441586195,-0.0737163935959339
1700516155341658400,0.230658447265625,0.4435299491971731,0.29411826314777134,0.2251550188956782
1700516155351668500,0.24066845703125,0.12244564545154571,-0.6185251354448497,-0.07145582825280726
1700516155361677000,0.250677001953125,-0.7411439455062151,0.7323761171609163,-0.21952296782545744
1700516155371686100,0.26068603515625,1.2774772660851479,-0.8199179147526622,-0.24389577705971896
1700516155381696300,0.2706962890625,-0.8550006263107061,-0.23711335037797687,0.19735325812604276
1700516155391705300,0.280705322265625,-0.20778467230200767,1.0666893203139305,-0.0004722206216305494
1700516155401714400,0.29071435546875,1.0568810430049895,0.7178466565489768,-0.49358854996040463
1700516155411724300,0.300724365234375,0.4220663054078817,-2.470463062059879,0.1575974767230451
1700516155421733000,0.310733154296875,-1.7970295477330684,1.479520764386654,-0.21823380479775367
1700516155431742200,0.3207421875,0.3594365384936333,0.307195332994312,0.2750554699551314
1700516155441752300,0.33075244140625,0.11971475918292998,-0.8332946981981396,0.223692764323391
1700516155451761200,0.34076123046875,-0.14422785367071628,0.5889718548327684,-0.33568054598346353
1700516155461770200,0.350770263671875,0.9651800799071788,-0.7477255158536136,-0.02267590565588325
1700516155471780400,0.3607802734375,-1.1567127055883406,-0.058375178209692236,0.17407997109889983
1700516155481789400,0.37078955078125,-0.05324643701910972,1.1707334860257803,-0.051953986055776474
1700516155491798300,0.38079833984375,1.228585517144203,0.4658005254551768,-0.31132910833079364
1700516155501807000,0.39080712890625,0.37989305106699467,-2.2208742609903216,0.2509938455618918
1700516155511817200,0.400817138671875,-1.8573913697153328,1.6398939894333482,-0.1421811868065968
1700516155521826300,0.410826416015625,0.518275685840845,0.22549743912518022,0.4052018625097349
1700516155531835400,0.42083544921875,0.2888081740409136,-0.4233357408218085,-0.015461480765044689
1700516155541845200,0.43084521484375,0.10493103154897689,0.0336734292820096,0.03182524413205683
1700516155551854000,0.44085400390625,0.5052700737953185,-0.2636661339998245,-0.08516235510930419
1700516155561863200,0.45086328125,-1.1372931348472832,-0.18186930980086324,0.484813853482902
1700516155571873300,0.460873291015625,0.3608540040761232,1.3360511817373335,-0.23296222204789518
1700516155581882000,0.470882080078125,1.3436656022638083,-0.4516714623376727,0.020045337956584988
1700516155591891200,0.48089111328125,-0.2490828973740339,-1.6230974606722592,-0.08039550603367387
1700516155601901300,0.4909013671875,-1.7786866663128136,0.9685261754646897,0.17210622334051875
1700516155611910400,0.500910400390625,1.2703589585125445,0.24625395755842328,0.15992350851781664
1700516155621919200,0.510919189453125,-0.3833808931827545,-0.5199247682221233,-0.02911821366306394
1700516155631929000,0.52092919921875,0.13455635448396205,-0.09525660975277424,-0.02092175546493381
1700516155641938200,0.530938232421875,0.46804421272873875,-0.284953398308903,-0.3153858729083091
1700516155651947300,0.540947265625,-1.2348726345896721,-0.3073969930462539,0.5209154232272878
1700516155661957400,0.550957275390625,0.2517541624099016,1.7188295789822936,-0.5713886326733977
1700516155671966200,0.56096630859375,1.2295493937402964,-1.0227160308137535,0.2039308098854497
1700516155681975000,0.57097509765625,-0.2916436897277832,-1.4048628521569073,-0.2772088120641187
1700516155691985200,0.580985107421875,-1.5558505553513764,1.5786489548757672,0.2541269924884662
1700516155701994200,0.590994140625,0.807631556892395,-0.27443244268596173,0.030823227482661603
1700516155712003300,0.60100341796875,-0.11769815866351127,-0.1301639647439122,-0.07515044498704374
1700516155722012200,0.61101220703125,0.6644079118281603,0.0020689152285456656,-0.09425448350552469
1700516155732022300,0.621022216796875,0.027351532784104345,-0.40598596209213134,-0.21185809575337916
1700516155742031400,0.63103125,-1.053646298867464,0.018730565563589333,0.4533865956924855
1700516155752040200,0.641040283203125,0.548421817779541,1.790659135918319,-0.6369266151845455
1700516155762050000,0.651050048828125,1.4145359587788582,-1.3544447704315186,0.24880437269359826
1700516155772059100,0.66105908203125,-0.6758756467819214,-0.906826529007405,-0.36429252715744076
1700516155782068200,0.671068115234375,-1.3731354423761366,1.282599723665416,0.30682978761754925
1700516155792078300,0.681078369140625,1.055285882768035,-0.07898191290870309,-0.08921049798894673
1700516155802087400,0.69108740234375,-0.5051239433228969,-0.09063377225771546,-0.0032237478194758295
1700516155812096300,0.70109619140625,0.6892050839543342,0.013724720100313424,-0.09012176761496811
1700516155822106400,0.7111064453125,0.05060322903394699,-0.5341456012763083,-0.06384878731518984
1700516155832115200,0.721115234375,-1.1088602365672589,0.161171974208951,0.5277177601858973
1700516155842124300,0.731124267578125,0.7416232534557581,1.7290350389152764,-0.655543929632008
1700516155852134100,0.741134033203125,1.3251415190577507,-1.786310000798106,0.4115717994004488
1700516155862143200,0.751143310546875,-1.0871446638435125,-0.5220072735846042,-0.2759413128789514
1700516155872152300,0.76115234375,-1.3020552425026892,1.4571467277541756,0.3680794983502477
1700516155882162400,0.771162353515625,0.9504922138631343,-0.5539141315855085,0.04923431530091911
1700516155892171300,0.781171142578125,-0.37624972612857815,0.02565378895550966,0.0859988059334457
1700516155902180400,0.791180419921875,0.7758171994805335,-0.18828940597623586,-0.1914788496673107
1700516155912190500,0.8011904296875,-0.5285492425739765,-0.2583532684139907,0.06971534126102924
1700516155922199600,0.811199462890625,-0.5945037699967622,0.030311113242059946,0.45425935993902383
1700516155932208400,0.82120849609375,0.7555734528750181,1.692752742309123,-0.6776318427994847
1700516155942218200,0.83121826171875,1.185674011656642,-1.9896597593925893,0.4012523942315951
1700516155952227300,0.841227294921875,-1.1730670435398816,-0.08160700071528554,-0.379680723490566
1700516155962236400,0.851236328125,-0.9046236121356487,1.077729915896803,0.38007125717811285
1700516155972245500,0.86124560546875,1.1364297960162162,-0.62810588760823,-0.1485756736166775
1700516155982255400,0.87125537109375,-0.41210371432006354,0.2304677748836577,-0.029957367900945244
1700516155992264200,0.88126416015625,0.7826420770645142,-0.10606105849221348,-0.32810565374977885
1700516156002274300,0.8912744140625,-0.7039052249580622,-0.4400121503345668,0.01903893739301711
1700516156012283400,0.901283447265625,-0.32214287288784976,0.2990001899704337,0.2790369408067316
1700516156022292500,0.91129248046875,0.7113491112232208,1.6918717216908932,-0.6915707901723682
1700516156032301300,0.92130126953125,0.9282248524755239,-2.1790685247875747,0.27050862030573186
1700516156042311400,0.9313115234375,-1.320885030657053,0.2298901211261749,-0.3105645902317017
1700516156052320500,0.941320556640625,-0.5894301199942827,0.9967622359983622,0.2747179816290736
1700516156062329300,0.951329345703125,0.9745902978092431,-0.5767099007613956,-0.06062208035364747
1700516156072339200,0.961339111328125,-0.7619260367721319,0.3651632455773651,0.02036865162681788
1700516156082348300,0.971348388671875,0.9323696971952915,-0.1864608753748238,-0.25221166038643567
1700516156092357400,0.981357421875,-0.6709925509154796,-0.3990753059208393,0.17371102818865328
1700516156102367500,0.991367431640625,-0.35180735878944397,0.44357349607795477,0.3208331419961527
1700516156112376600,1.00137646484375,0.5830559087872504,1.5898891646839677,-0.5446762745756656
1700516156122385200,1.01138525390625,0.8974141191482543,-2.2977939806722105,0.4056041962329298
1700516156132395300,1.021395263671875,-1.2714105133920908,0.37682007336243983,-0.21859818113073706
1700516156142404400,1.031404296875,-0.4544786287128925,0.876194805508852,0.3632113443246111
1700516156152413400,1.041413330078125,0.9087222796261311,-0.7378133397787809,0.01059065985828638
1700516156162423300,1.05142333984375,-0.5908978544592857,0.37384208046495915,0.018965287634916603
1700516156172432400,1.061432373046875,1.059366430079937,-0.21428367893248795,-0.226724569767341
1700516156182441500,1.07144140625,-0.797879393684864,-0.5192186657793819,0.18237356952857225
1700516156192451600,1.08145166015625,-0.28717911153435705,0.4944520349219441,0.2528368065474555
1700516156202460400,1.09146044921875,0.7471738733202219,1.5005705666780471,-0.5763998849641532
1700516156212469200,1.10146923828125,0.8084469649285078,-2.338803013539314,0.29037841903232037
1700516156222479400,1.111479248046875,-1.459303905788064,0.4501169263720512,-0.17958810352850704
1700516156232488400,1.121488525390625,-0.23753449839949606,0.813494165315479,0.20875589195434002
1700516156242497500,1.13149755859375,0.8959586596429348,-0.7868428897552192,-0.012842092046886681
1700516156252507400,1.14150732421875,-0.80626085306108,0.628924802775681,-0.08228574022706597
1700516156262516200,1.15151611328125,1.1605097597837448,-0.36421193620190023,-0.26105164065249264
1700516156272525300,1.161525390625,-0.8261959721088409,-0.4871070789866149,0.144720934417285
1700516156282535400,1.171535400390625,-0.27303718893527984,0.7484466697350144,0.19597521123848854
1700516156292544300,1.181544189453125,0.7875701811164617,1.3600183327801525,-0.5484466964924708
1700516156302553300,1.19155322265625,0.7991483907073735,-2.386773702112585,0.2771326415553689
1700516156312563500,1.2015634765625,-1.5753227330625057,0.6309115926787257,-0.19816724139004946
1700516156322572500,1.211572509765625,-0.05535071582198143,0.8452806118071079,0.15930537661947308
1700516156332581400,1.221581298828125,0.7351859138846397,-0.7907720458976923,0.05869564233571291
1700516156342591200,1.23159130859375,-0.6014058044701814,0.39252486136406656,-0.055425425026006996
1700516156352600300,1.241600341796875,1.0069190344840289,-0.2870236287117004,-0.27780078660789875
1700516156362609400,1.251609375,-0.8805266972333192,-0.26057459772527214,0.24910565719511357
1700516156372619300,1.261619384765625,-0.1491243935406208,0.5696284180678427,0.13305292765107005
1700516156382628400,1.27162841796875,0.7748667668879031,1.2743458361916242,-0.49703233373872935
1700516156392637200,1.28163720703125,0.7821434798926115,-2.330431783296168,0.28465887234173715
1700516156402647300,1.291647216796875,-1.6293541829794644,0.7852798782221972,-0.18858374928031116
1700516156412656400,1.301656494140625,0.020707856985926625,0.6270407425947487,0.27170455209203065
1700516156422666200,1.311666259765625,0.7610229504525661,-0.7715374763347208,0.03253631501086056
1700516156432675300,1.32167529296875,-0.6631319005429744,0.5533939071036875,-0.05343154779504984
1700516156442684400,1.331684326171875,1.0433733266562222,-0.39360754203423853,-0.22116872573848811
1700516156452694500,1.341694580078125,-0.9189122497290372,-0.43198301152735946,0.2916971734806895
1700516156462703400,1.351703369140625,0.0029267011016607283,0.7790124883905053,0.051365445578098294
1700516156472712200,1.361712158203125,0.701173169645667,1.1478313338659702,-0.41235633737426247
1700516156482722300,1.371722412109375,0.6036076984286308,-2.380235678645968,0.20139299850352108
1700516156492731400,1.3817314453125,-1.609054322272539,0.8646844004571438,-0.10047788806501776
1700516156502740500,1.391740478515625,0.17386545156538485,0.532978603323549,0.22101839401498435
1700516156512750300,1.401750244140625,0.6953361340552568,-0.7525063203893602,0.05551916772406548
1700516156522759400,1.411759521484375,-0.6687345428556204,0.49448389136493204,-0.08110986484810709
1700516156532768500,1.4217685546875,0.9976473482698202,-0.3091786157660186,-0.2512886637900025
1700516156542778400,1.4317783203125,-0.8478051618486643,-0.38598216172233224,0.3074475907223299
1700516156552787200,1.441787109375,0.0015688567519187926,0.7419339268401265,0.03440433737244457
1700516156562796300,1.45179638671875,0.5913286470919847,1.1488580465652047,-0.3886886442020535
1700516156572806400,1.461806396484375,0.7131225506365299,-2.194877649946511,0.1590111794458702
1700516156582815500,1.4718154296875,-1.539087052077055,0.7235843234181404,-0.060899070664122694
1700516156592824600,1.481824462890625,0.15433365262150764,0.5530279964007437,0.17460267979875205
1700516156602834400,1.49183447265625,0.7170733340889215,-0.8117958369649946,0.03939114934168756
1700516156612843300,1.50184326171875,-0.7693664159059524,0.8594969148166477,-0.1760180264893919
1700516156622852400,1.511852294921875,1.2676046913683414,-0.503118740980327,-0.18234785056542605
1700516156632862200,1.5218623046875,-0.9173556679368019,-0.5651936504907906,0.2467590575363487
1700516156642871300,1.531871337890625,-0.042843116426467896,0.9249899622075259,0.04658774631489068
1700516156652881400,1.54188134765625,0.7383224583446979,1.155200693590194,-0.4475159500934183
1700516156662890500,1.551890380859375,0.6476023229777813,-2.3600642666243017,0.22143205284979192
1700516156672899600,1.561899658203125,-1.535425606960058,0.7693731379076838,-0.1358060988167301
1700516156682909400,1.571909423828125,0.07112286997139454,0.6628200581148267,0.24101371881738304
1700516156692918300,1.581918212890625,0.5981979483395815,-0.7982824215278029,0.07730130287799984
1700516156702927400,1.59192724609375,-0.7241250061661004,0.5654721751712263,-0.14372874504216016
1700516156712937500,1.6019375,1.031620345020294,-0.3357257002994418,-0.14309227376952766
1700516156722946300,1.6119462890625,-0.9011147272318601,-0.37220045073777436,0.18935820425152777
1700516156732955400,1.621955322265625,-0.1113397295475006,0.6074428926773369,0.10489073607120662
1700516156742965500,1.631965576171875,0.7666203320682048,1.3404887257933615,-0.4912746104622259
1700516156752974300,1.641974365234375,0.6997270624905825,-2.318541731277108,0.2996578136289492
1700516156762983400,1.6519833984375,-1.4976953035026788,0.6639046384811401,-0.24253413331769405
1700516156772993300,1.6619931640625,0.03584580488502979,0.6613591917820274,0.2933923234933987
1700516156783002400,1.67200244140625,0.774253603425622,-0.851918880777806,0.013759864478930831
1700516156793011500,1.682011474609375,-0.7905044810026883,0.724959411163628,-0.1908407709594816
1700516156803021300,1.692021240234375,1.1842577151179312,-0.37061274315491316,-0.1164433728294447
1700516156813030400,1.702030517578125,-0.8689981720030308,-0.5663270384348928,0.19405878315791486
1700516156823040500,1.71204052734375,-0.12452245172560214,0.8241888700701295,0.06464538105297833
1700516156833049300,1.72204931640625,0.7823246816784143,1.3343359022520482,-0.44741636217646297
1700516156843058400,1.732058349609375,0.6878484086483716,-2.4351235992617903,0.2326409176716581
1700516156853068300,1.742068359375,-1.4641267958998678,0.7128520631320774,-0.18171474029365925
1700516156863077400,1.752077392578125,-0.005753448960185051,0.7109928451314568,0.26812698586620387
1700516156873086500,1.76208642578125,0.720306324660778,-0.9381408279426395,0.0813590538362041
1700516156883097000,1.77209716796875,-0.8419120121568441,0.8552766667731105,-0.19561971233170478
1700516156893106200,1.782106201171875,1.3201520402073859,-0.5720492154739797,-0.12837671600095926
1700516156903115300,1.792115234375,-1.0011100559443236,-0.4567848598286509,0.2159264777034521
1700516156913125400,1.80212548828125,-0.21987609211206435,0.9465518056742847,0.11004464823566376
1700516156923134200,1.81213427734375,0.9830909996509551,1.1582513133324681,-0.4594113724073395
1700516156933144300,1.822144287109375,0.6948813760250806,-2.6343045477390286,0.26629041808880866
1700516156943153200,1.832153076171875,-1.7040245162993668,1.0316602386392653,-0.19304054602608084
1700516156953162200,1.842162353515625,0.006765840873122215,0.6661395579263567,0.30951325454786416
1700516156963172000,1.852172119140625,0.7424211258351803,-1.0138615470983088,0.09608904198892414
1700516156973181200,1.86218115234375,-0.4881681323468685,0.643785102777183,-0.1858397478017956
1700516156983190300,1.872190185546875,1.0615437741190195,-0.501349100959301,-0.11033807822428643
1700516156993200400,1.882200439453125,-1.2099351772099733,-0.29567440654858945,0.30051201930548993
1700516157003209500,1.89220947265625,-0.002551438048481941,1.0462671484015882,-0.0027873656962066886
1700516157013219300,1.90221923828125,1.2132932554662228,0.7989791716203093,-0.3519284278858453
1700516157023228200,1.912228271484375,0.5001484929978848,-2.499190559372306,0.19683518906868994
1700516157033237200,1.9222373046875,-2.0617969209730624,1.332997054863721,-0.10144187425896525
1700516157043247000,1.9322470703125,0.43710079293251036,0.4833455344960093,0.24752726542986928
1700516157053256200,1.942256103515625,0.6211883633047341,-0.9455237778007983,0.06831679957471788
1700516157063265300,1.952265380859375,-0.2631862415283918,0.5917009875357151,-0.14174502387903629
1700516157073275400,1.962275390625,0.7822340807855129,-0.6554369621261954,-0.18167554079443216
1700516157083284200,1.9722841796875,-1.2351198873490095,-0.06184402336403727,0.39647531602289526
1700516157093294000,1.982294189453125,0.340803734216094,1.3458724646583198,-0.24110380825363098
1700516157103303200,1.99230322265625,1.376758893570304,-0.13556699283123017,-0.1202515329407528
1700516157113312300,2.002312255859375,0.054875499525666234,-2.040421978380531,0.01043835537340492
1700516157123322400,2.012322265625,-2.0622417421311137,1.6015535912536083,0.03148760967552662
1700516157133331200,2.022331298828125,0.9057342037260532,0.0612426964700222,0.10347308782562613
1700516157143340300,2.03234033203125,0.25007892267405984,-0.5703301365964114,0.0269340380243957
1700516157153350400,2.042350341796875,0.16447276932001112,0.10017419241070746,-0.1895022523647174
1700516157163359200,2.052359130859375,0.12269172916710376,-0.31653862314000725,-0.13203480011709035
1700516157173369000,2.062369140625,-0.9635212067842482,-0.15609247898757456,0.49867356160711496
1700516157183378200,2.072378173828125,0.5308201101154089,1.6209544572941958,-0.5409382570911199
1700516157193387300,2.08238720703125,1.3108832766026257,-1.017473307854682,0.16081483133435248
1700516157203397400,2.0923974609375,-0.5585328774273395,-1.1932825869642198,-0.2349221239440143
1700516157213406200,2.10240625,-1.766740792453289,1.5920478040225803,0.2210369891176
1700516157223415000,2.1124150390625,1.2127549108058213,-0.31742198184579606,0.04723904983047396
1700516157233425200,2.122425048828125,-0.0663052405565977,-0.14178878995552657,-0.027680655140615996
1700516157243434200,2.132434326171875,0.4094488158971071,-0.040461189725995064,-0.1978509785151109
1700516157253444000,2.142444091796875,-0.4802116203844547,-0.20182605615854263,-0.01904204266555607
1700516157263453200,2.152453125,-0.5303419712096452,-0.049750703857839106,0.4897328243803233
1700516157273462300,2.162462158203125,0.7591203317016363,1.7422079703517257,-0.6688016167424619
1700516157283472400,2.172472412109375,1.0833546239107847,-1.7851668221123516,0.3629334041660651
1700516157293481500,2.1824814453125,-1.1246055027097464,-0.2887671113781631,-0.3264174814671278
1700516157303491300,2.1924912109375,-1.0621452471435069,1.205081015177071,0.3497304063849151
1700516157313500200,2.202500244140625,1.3560463604092596,-0.5256573205247521,-0.027958960625343022
1700516157323509200,2.21250927734375,-0.4592863212555647,0.0967617536187172,-0.01664937537536025
1700516157333519000,2.22251904296875,0.5989619184494018,-0.1533200916647911,-0.23521628458499907
1700516157343528200,2.232528076171875,-0.6916700127631425,-0.2380883328899741,0.09816964765526354
1700516157353538300,2.242538330078125,-0.2113683760076761,0.21303470178470013,0.3696179234312847
1700516157363547400,2.25254736328125,0.6881757409065962,1.6026370025761425,-0.6477468460150063
1700516157373556200,2.26255615234375,0.9463345096617937,-2.2953236450359222,0.38810350125785914
1700516157383566000,2.272566162109375,-1.4472662619918584,0.40736324179470534,-0.30353633556272835
1700516157393575200,2.2825751953125,-0.4710106613188982,0.9142616474442183,0.33625794401261955
1700516157403585300,2.292585205078125,1.1161679292321205,-0.7783196838207542,0.05635908914692699
1700516157413594400,2.302594482421875,-0.5620306564152241,0.4054433796480298,-0.09239760359246284
1700516157423603200,2.312603271484375,0.924158918210864,-0.3505757711678743,-0.2500407826207578
1700516157433613300,2.32261328125,-1.0426309838563204,-0.26027546864822504,0.24130192464161662
1700516157443622400,2.332622314453125,-0.07578501656353473,0.7187734160050749,0.14916662524715066
1700516157453632300,2.34263232421875,0.9537374793946742,1.134222349099815,-0.5234311689078808
1700516157463641000,2.35264111328125,0.7395996386736631,-2.4952239938288927,0.2868451668722555
1700516157473650200,2.362650146484375,-1.882035397106409,1.0622221117720008,-0.19415234319288283
1700516157483660300,2.372660400390625,0.16387421890497206,0.6120234984658658,0.2530839862415567
1700516157493669400,2.38266943359375,0.8806833490997552,-0.8869665210224688,0.08510419518128037
1700516157503679200,2.39267919921875,-0.3969704425960779,0.40275355604216456,-0.12924359849598258
1700516157513688300,2.402688232421875,0.707872375023365,-0.40443405647501346,-0.25580606814920903
1700516157523698400,2.412698486328125,-1.097791145542264,-0.15868936361297964,0.3570226092197001
1700516157533707300,2.422707275390625,0.24030630120038984,1.0718404194667934,-0.12431746720541267
1700516157543716000,2.432716064453125,1.0933049400389194,0.39822438817992806,-0.28396500832606103
1700516157553726200,2.442726318359375,0.35410686790347096,-2.232124846062064,0.11401662060655653
1700516157563735300,2.4527353515625,-2.002152891871333,1.4742448698103428,-0.0791271300656721
1700516157573745200,2.4627451171875,0.7132330252736806,0.24330285266786814,0.1724873316125944
1700516157583754200,2.472754150390625,0.4450017753154039,-0.6610683921419084,0.053215603489428755
1700516157593763300,2.482763427734375,-0.0702963560193777,0.17583952811732886,-0.11230291202384977
1700516157603773400,2.4927734375,0.31146073535382746,-0.2789446594133973,-0.1930674705656245
1700516157613782300,2.5027822265625,-0.9015437662988901,-0.2167959540143609,0.500179801451601
1700516157623792000,2.512792236328125,0.43423722019493577,1.4001133195422588,-0.40771344347186383
1700516157633801200,2.52280126953125,1.0546657050430774,-0.3840060393437743,0.045866921227052805
1700516157643810300,2.532810302734375,-0.13477847280204294,-1.6663561721622944,-0.07027761478628963
1700516157653820200,2.542820068359375,-1.7697843979328869,1.4933349163360894,0.13233528090100735
1700516157663829200,2.552829345703125,1.090714923545718,-0.07268295889496802,0.05836359736975282
1700516157673839400,2.56283935546875,-0.011578794112801551,-0.3615589374750852,0.056092875958792865
1700516157683848200,2.57284814453125,0.15370412254631519,0.10453297214210033,-0.16028722726367414
1700516157693858000,2.582858154296875,0.06396072325706481,-0.32343627369925376,-0.12946553415097295
1700516157703867100,2.5928671875,-0.6598024638593196,-0.21699834471866486,0.5234062536623328
1700516157713876200,2.602876220703125,0.46877778770029543,1.7119791285656392,-0.6056299615038558
1700516157723886300,2.61288623046875,0.939856838080287,-1.1068697934024034,0.2797426779232919
1700516157733895400,2.6228955078125,-0.47621407518088815,-1.057041640394181,-0.22669380930289626
1700516157743905300,2.6329052734375,-1.427358030951023,1.3829182929828763,0.22964111480116842
1700516157753914400,2.642914306640625,1.2053157007157802,-0.2557432320460677,-0.01831442251075059
1700516157763924500,2.652924560546875,-0.40482407870590686,-0.11888298453390597,0.04215703385844827
1700516157773933000,2.66293310546875,0.44447453657090663,0.08770166432857512,-0.2099215382002294
1700516157783942100,2.672942138671875,-0.12208967162072658,-0.3512723751299083,-0.02011204651724547
1700516157793952300,2.6829521484375,-0.5279886860817671,-0.11465279961824416,0.47199126985408363
1700516157803961300,2.69296142578125,0.5008376443058252,1.8085566116586327,-0.6604955606900155
1700516157813971200,2.70297119140625,0.9162789786159992,-1.5502661793477832,0.3652365300092846
1700516157823980300,2.712980224609375,-0.7013508643001317,-0.6184592306017875,-0.2473099694173783
1700516157833990400,2.722990478515625,-1.1100123292118311,1.2243527018800378,0.22389555688649415
1700516157843999200,2.732999267578125,1.211464870995283,-0.37549335480332374,-0.0178378910401836
1700516157854009000,2.743009033203125,-0.5609925455391407,-0.006599982786923647,0.04280033673066646
1700516157864018200,2.75301806640625,0.5664332752883434,0.041484979815781114,-0.3294089183680713
1700516157874027300,2.76302734375,-0.2386532732963562,-0.23934096329957244,0.11236691717077046
1700516157884040000,2.7730400390625,-0.3059662295907736,-0.24624782007858156,0.35140820340402423
1700516157894049000,2.783049072265625,0.44007191769778725,1.7732739936143158,-0.6321143925972282
1700516157904059000,2.793058837890625,0.7756126168191433,-1.4283435348570346,0.3522296758547425
1700516157914068000,2.80306787109375,-0.6981114439874887,-0.5561870449535549,-0.240719813904725
1700516157924078000,2.813078125,-0.9787304663538933,1.0677755081154405,0.22702581773623823
1700516157934087000,2.8230869140625,1.207630407398939,-0.3566189968548715,-0.059671940021961925
1700516157944097000,2.833096923828125,-0.7379974641740321,-0.015175065039098263,0.0967368749057874
1700516157954106000,2.843106201171875,0.530922401446104,0.30254136970862744,-0.2835440795002505
1700516157964116200,2.8531162109375,0.02494973233938217,-0.7093995845906436,0.0944395212162286
1700516157974124800,2.863124755859375,-0.43747079528868194,0.02898541759625077,0.31163163494132456
1700516157984134000,2.8731337890625,0.3367892378777265,1.7862552018709479,-0.5746674716809764
1700516157994144000,2.88314404296875,0.6886918737351894,-1.3172867139041422,0.3046471463488415
1700516158004153000,2.893153076171875,-0.44916824734508987,-0.8329941078163683,-0.15461254262812435
1700516158014163000,2.903162841796875,-1.0398124193042515,1.2350810166433452,0.12306516558937727
1700516158024172000,2.913172119140625,1.09595223967731,-0.40402226080372927,0.02070281548462808
1700516158034182100,2.92318212890625,-0.6489683506339788,-0.10783201368749142,0.08675386208444834
1700516158044191000,2.93319091796875,0.4693845214217901,0.40976241189092394,-0.32439397628288713
1700516158054200800,2.943200927734375,0.2648778478771448,-0.671008625267446,0.10996968330331146
1700516158064210000,2.9532099609375,-0.6128104110598563,-0.1538574134118855,0.3305997355878353
1700516158074220000,2.963219970703125,0.37865561822652816,1.6878120710365474,-0.5459191873088479
1700516158084229000,2.97322900390625,0.5931032555490732,-0.7171630581989884,0.27824637495093046
1700516158094239000,2.983239013671875,-0.07148468902111053,-1.2898577319696545,-0.14873875522390007
1700516158104248000,2.993248046875,-1.291904435366392,1.2488222494870425,0.14028664176426828
1700516158114257200,3.003257080078125,1.0615846906512976,-0.3155987119413912,0.08683047098461538
1700516158124267000,3.01326708984375,-0.41032501420974726,-0.4797884265363216,0.135502476227656
1700516158134275800,3.02327587890625,0.0816553699016571,0.943780733525753,-0.3306484701003879
1700516158144286000,3.033285888671875,0.7954764241963624,-0.9866345174767076,0.06731259096823633
1700516158154295000,3.043294921875,-0.941706849861145,-0.18289339215159414,0.3405545086953789
1700516158164305000,3.053304931640625,0.4203168313920498,1.5562397007994353,-0.48398701073732225
1700516158174314000,3.06331396484375,0.4945148710250854,-0.15759426185265182,0.14205452821962536
1700516158184324000,3.073323974609375,0.1513853242099285,-1.770179534730315,-0.07930551883988082
1700516158194333200,3.083333251953125,-1.3775029899358748,1.243231589873135,0.06414908543601631
1700516158204343000,3.093343017578125,0.857581874975562,-0.15036416446864603,0.10288030956424772
1700516158214352000,3.103351806640625,-0.1966992146641016,-0.6875722220554947,0.16722053365819156
1700516158224362000,3.113362060546875,-0.29013796133995057,1.1597003430970012,-0.3346083867073059
1700516158234371000,3.12337109375,1.3009382211714982,-0.9563765957266092,0.02040558610372245
1700516158244381000,3.133380859375,-1.1387369039148092,-0.32387744159549475,0.33782168619800357
1700516158254390000,3.14339013671875,0.25285890878140926,1.4279416760578751,-0.33965302981100975
1700516158264400100,3.153400146484375,0.694088179820776,0.39054377054944633,-0.029654256768524644
1700516158274409000,3.163408935546875,0.3889905497580766,-2.1960743123851714,-0.0070372051604092115
1700516158284419000,3.173419189453125,-1.5784101776838302,1.2519034104980529,0.013153276887908577
1700516158294428200,3.18342822265625,0.5742758054822683,0.0817586841456592,0.18262717896346
1700516158304438000,3.19343798828125,0.23553134188354014,-0.8004974672287702,0.11061598185021429
1700516158314446800,3.20344677734375,-0.4411632200658321,0.8972107055306434,-0.28667079668603834
1700516158324457000,3.21345703125,1.1856705045253038,-0.6036795946210622,-0.03235354232247919
1700516158334466000,3.223466064453125,-1.0676502743005751,-0.442106200004369,0.3047161199318245
1700516158344476000,3.233475830078125,0.17821721703410148,1.133335191001743,-0.1851579030174762
1700516158354485000,3.243485107421875,0.7399661338984966,0.8225788045249879,-0.21700342275258153
1700516158364495000,3.2534951171875,0.48151919585168357,-2.3115647318713366,0.09252817116957157
1700516158374504200,3.263504150390625,-1.662567301273346,1.1087412863627075,-0.02945906298998743
1700516158384514000,3.27351416015625,0.38409576345384117,0.3461351583719253,0.21231292684879152
1700516158394523000,3.28352294921875,0.4758154312521219,-0.9656419983305037,0.07923208827748894
1700516158404533000,3.293532958984375,-0.6844003140211105,1.1294966357521712,-0.2449155485615134
1700516158414542000,3.3035419921875,1.3233809391260147,-0.7688495524249971,-0.10739055353030562
1700516158424552000,3.313552001953125,-1.1224041932731865,-0.39764702668339014,0.3115886725824326
1700516158434561000,3.32356103515625,0.012979893082380295,1.2105369424954056,-0.10164448415897787
1700516158444571100,3.333571044921875,0.9850216754525899,0.8106757468938827,-0.3070588106004521
1700516158454580000,3.343580078125,0.5327040241658687,-2.5251333944022654,0.15608305357210336
1700516158464590000,3.353590087890625,-1.7916338261693714,1.2364265860334038,-0.07877689185589551
1700516158474599000,3.363598876953125,0.3623544717669487,0.417653165140748,0.20909608369413762
1700516158484608800,3.37360888671875,0.6037918228238821,-1.0247164108507334,0.11969163403566926
1700516158494617900,3.383617919921875,-0.4554658861845731,0.8914933507971465,-0.25092815991453826
1700516158504628000,3.3936279296875,1.1545178258925675,-0.7218598377130925,-0.12929200421497225
1700516158514637000,3.403636962890625,-1.193614741528034,-0.19781901247426867,0.32256460543125864
1700516158524647000,3.41364697265625,0.06629939533770084,1.24927890721336,-0.09327321738321334
1700516158534656000,3.423656005859375,1.2340525503784416,0.5401856120929122,-0.2945507728135213
1700516158544666000,3.433666015625,0.3968278192549944,-2.4710762255221606,0.1479869139432907
1700516158554676000,3.443676025390625,-2.027345785316825,1.5256202522605657,-0.04114413048885762
1700516158564685000,3.45368505859375,0.5441466246783733,0.3318779388301074,0.21150208538994192
1700516158574695200,3.463695068359375,0.46775721248090263,-0.9392167866110801,0.13617295936774462
1700516158584704000,3.4737041015625,-0.08476268826723098,0.5461408672355115,-0.20983824383094907
1700516158594713900,3.4837138671875,0.7226555181354284,-0.597709141909331,-0.16051555612683296
1700516158604723000,3.493722900390625,-1.347431092277169,-0.02872676666006446,0.42513497226350005
1700516158614733000,3.503733154296875,0.2620119370520115,1.4167724856592714,-0.258813250608556
1700516158624742100,3.5137421875,1.4942618219226598,-0.16712226091548799,-0.12087700789533555
1700516158634752000,3.523751953125,-0.19670038370788095,-1.805524258225411,-0.009412190663442016
1700516158644761000,3.533760986328125,-2.0675170521855355,1.3459240487150848,0.0914947730012238
1700516158654771200,3.543771240234375,1.3189391572862863,0.23143545087203382,0.10809672903828323
1700516158664779800,3.55377978515625,-0.240761059230566,-0.5842210070438683,0.04256495707221329
1700516158674790000,3.563789794921875,0.252665432035923,0.07149637945890426,-0.13344134244676678
1700516158684799000,3.573799072265625,0.38816578937172885,-0.3587967792853713,-0.1875051967959851
1700516158694808800,3.583808837890625,-1.2556342675894498,0.10082505753487347,0.5147518590962514
1700516158704819000,3.59381884765625,0.5928676932275295,1.4114137351050973,-0.492788120297715
1700516158714828000,3.603828125,1.6414011791259049,-0.8483870533898472,0.07536050754114985
1700516158724838100,3.613838134765625,-1.0167670592814684,-1.2539908842965959,-0.16900047587752343
1700516158734847000,3.623846923828125,-1.5332675521433352,1.3051738129146397,0.2758016121473163
1700516158744857000,3.633857177734375,1.605529655277729,0.15430354974418878,-0.028812545247375962
1700516158754866000,3.643865966796875,-0.9199357475578784,-0.472074929549545,0.038179946921020745
1700516158764875800,3.653875732421875,0.8070762610971928,-0.18885741512253879,-0.20733404245767742
1700516158774884900,3.663884765625,-0.08371288695335388,-0.04242825201526284,-0.07291011871434748
1700516158784895000,3.67389501953125,-0.910990224558115,0.20880685495659707,0.5606379234151915
1700516158794904800,3.68390478515625,0.601294745311141,1.463112796551734,-0.6808006820939481
1700516158804914000,3.693913818359375,1.6302023242413997,-1.6598863916262983,0.27967209690511224
1700516158814924000,3.703924072265625,-1.6050561925470828,-0.3214548906236887,-0.14846541817523537
1700516158824933000,3.71393310546875,-0.6881529445528983,1.2853817555993794,0.24845526699498294
1700516158834943000,3.72394287109375,1.1553086840093134,-0.39714185364022847,0.036529768561199306
1700516158844952000,3.7339521484375,-0.5152683207184076,-0.22088073910996317,0.04478478854615241
1700516158854962200,3.743962158203125,0.9552718493551016,-0.23934373977854848,-0.33235399537663907
1700516158864971800,3.7539716796875,-0.784007520198822,0.002775309932231903,0.14565280843991785
1700516158874980900,3.76398095703125,-0.4155044626742601,0.4838340486653149,0.277559306002222
1700516158884988200,3.77398828125,1.0826222179830074,0.9787480020105839,-0.5999274755459278
1700516158894997000,3.7839970703125,0.9752654205918312,-2.0524318573869764,0.28857151574082673
1700516158905007000,3.794007080078125,-1.847111383241415,0.4398379628114402,-0.20663152021151035
1700516158915016200,3.80401611328125,0.22189678428471088,0.8583426302149891,0.17216606376897542
1700516158925026300,3.8140263671875,0.6961983038425446,-0.4026984648540616,0.007593779597245156
1700516158935036200,3.8240361328125,-0.20460954939723014,-0.4410943926133215,-0.053304925740696486
1700516158945045200,3.834045166015625,0.5947258883148432,0.009838087925314903,-0.3499188781617209
1700516158955055400,3.844055419921875,-0.9700807114303112,-0.1944856302678585,0.3828328308459371
1700516158965064000,3.85406396484375,0.1048000986456871,1.1150466701172292,-0.20813114765211937
1700516158975074000,3.864073974609375,1.0021236169010401,0.02035553641691804,-0.1939584280559793
1700516158985083100,3.874083251953125,0.5573299313783645,-1.823903233872354,0.06648823244068772
1700516158995093000,3.884093017578125,-1.8907547101348638,1.365517222457379,-0.1016157329885289
1700516159005103000,3.89410302734375,0.34264030199348927,0.20843407612144946,0.15364103071484714
1700516159015112200,3.9041123046875,0.4340338065773248,-0.24293021996319292,0.07214746377877891
1700516159025122000,3.9141220703125,0.171267251765728,-0.14114537748545408,-0.12856708747390658
1700516159035131100,3.924131103515625,0.26974633069634435,-0.0830481394343078,-0.22650475300420075
1700516159045141200,3.934141357421875,-1.0800444764494894,-0.2320341474175453,0.5386452507831156
1700516159055151000,3.944151123046875,0.434126745557785,1.6050367571942508,-0.4691386934345588
1700516159065160000,3.954159912109375,1.0028057539463042,-0.8002313636384903,0.13495514454320073
1700516159075170000,3.964170166015625,0.015939327409863473,-1.2102226158492266,-0.13937500681206583
1700516159085179100,3.97417919921875,-1.7151970676988362,1.3867089174374938,0.191565943428874
1700516159095189000,3.98418896484375,0.7622451857239008,-0.06386486166715621,0.046960232889093456
1700516159105199000,3.99419921875,-0.01923603086769581,-0.1884538027577102,0.1193860752178356
1700516159115208200,4.004208251953125,0.5615682996004819,-0.24612843148261307,-0.18918507617432623
1700516159125218000,4.014218017578125,0.12811316969394684,-0.27112609461694953,-0.07188198124300688
1700516159135227100,4.02422705078125,-0.9586176526516675,-0.09399521151483059,0.5633331538485363
1700516159145237200,4.0342373046875,0.3303817089229822,1.7121962784476576,-0.6225559983961284
1700516159155247000,4.0442470703125,1.2741910840213297,-1.5513861232884227,0.3212780727520585
1700516159165256000,4.054255859375,0.13636135807931424,-0.8964294920250773,-0.32069121277481316
1700516159175266000,4.06426611328125,-1.7966811726868153,1.3743207066379486,0.4025008233901113
1700516159185275100,4.074275146484375,0.6458581096589565,-0.22058964720889926,-0.050119756365939974
1700516159195285000,4.084284912109375,-0.2288490876406431,-0.14400295887365935,0.111904085431993
1700516159205295000,4.094295166015625,1.1513719290822744,-0.09859656783044338,-0.36959056050032374
1700516159215304200,4.10430419921875,-0.43907998405098914,-0.24201646611914038,0.07042827530335634
1700516159225314000,4.11431396484375,-0.9281921192497015,-0.11827975794374943,0.458771101742424
1700516159235323100,4.1243232421875,0.5851631101995706,1.855347296667099,-0.7363057116948067
1700516159245333200,4.134333251953125,1.4377204350113868,-1.744710308561474,0.3724043392794206
1700516159255343000,4.144343017578125,-0.8020704156339168,-0.2372673718959093,-0.28913948835451153
1700516159265352000,4.15435205078125,-1.495384103950858,0.9614835634768009,0.2929184954365715
1700516159275362000,4.164362060546875,1.1301315726548433,-0.15758432498052716,-0.07650123854149132
1700516159285372000,4.174371826171875,-0.20237784482240675,-0.08313362576067447,0.04797912760805338
1700516159295381000,4.184381103515625,0.6212497381031513,0.07484525149539113,-0.34680823532789945
1700516159305391000,4.19439111328125,-0.6228630185186863,-0.3863074481539428,0.2044242924908176
1700516159315401000,4.20440087890625,-0.3586626315116882,0.032197511510550975,0.33998324814606457
1700516159325410000,4.21441015625,0.5967576864033937,1.8470387563966213,-0.6845845845468342
1700516159335420200,4.224420166015625,0.9188649034559726,-1.799205868858844,0.375480276126042
1700516159345429200,4.23442919921875,-0.9291279387950897,-0.24463687775060533,-0.14566979610733688
1700516159355439000,4.244439208984375,-0.7825760260909795,0.9641533672079443,0.12322145212963223
1700516159365449200,4.25444921875,1.0929542269051074,-0.31647520251497624,-0.041080673331208524
1700516159375458000,4.2644580078125,-0.6460808124989271,-0.0061734279379248615,0.09889668328817933
1700516159385468000,4.274468017578125,0.7381149530738592,0.039039486359804865,-0.3606675415933132
1700516159395478000,4.28447802734375,-0.2291331652790308,-0.5159897668607533,0.15289448666386304
1700516159405487000,4.294487060546875,-0.6383107630193233,0.13005699723809958,0.3327028818795457
1700516159415497000,4.3044970703125,0.4719534951269626,1.7784608947329221,-0.6669986589737236
1700516159425507000,4.314507080078125,0.88046941408813,-1.7412967007257043,0.3369829338189214
1700516159435516200,4.32451611328125,-0.6266250014007091,-0.4356747056521475,-0.1654689772831276
1700516159445526000,4.334526123046875,-0.9482359593689441,0.9905499373547733,0.1745726499866694
1700516159455535000,4.34453515625,0.8452525547564029,-0.3139439304716885,-0.05610277629829943
1700516159465545200,4.354545166015625,-0.6293804375886917,0.11253873007372021,0.027946283806860445
1700516159475555000,4.36455517578125,0.8916770368009805,0.1925784814722836,-0.31473296195752914
1700516159485564200,4.374564208984375,-0.28356910434365273,-0.5600521959491074,0.09458419038392603
1700516159495574300,4.38457421875,-0.9331137935608624,0.3791277657829225,0.3390802714243531
1700516159505584000,4.394584228515625,0.7259189038455486,1.6924607736252246,-0.7242317544762045
1700516159515593000,4.404593017578125,1.3054448849409819,-1.3322513510629534,0.32308841010965406
1700516159525603000,4.41460302734375,-1.1937719779163598,-0.44921924687996506,-0.25027049972340465
1700516159535613200,4.42461328125,-1.0461837079018355,1.1395946897879243,0.21670655869785696
1700516159545622000,4.4346220703125,1.531466640201211,0.03553893089294433,-0.11724449661187827
1700516159555632000,4.444632080078125,-1.0178776508718728,-0.3254758167028427,0.08004402571488171
1700516159565642200,4.454642333984375,1.1611539029061793,0.06778408093750476,-0.2669207153489813
1700516159575651000,4.464651123046875,-0.09869126037657261,-0.42384266743063925,0.07034341003149748
1700516159585661200,4.4746611328125,-1.0206851095080376,0.03798836987167597,0.41851201045978814
1700516159595671300,4.48467138671875,0.9548714518606662,1.71601978225857,-0.7659218284100293
1700516159605680000,4.49468017578125,1.2606219928741453,-1.8608249974258242,0.47488867179602384
1700516159615690200,4.504690185546875,-1.4025181887269018,-0.6034633215218782,-0.28138595161829144
1700516159625700400,4.514700439453125,-0.65698565287292,1.1243914215676485,0.41386546329557894
1700516159635709000,4.524708984375,1.1266560054987669,-0.5099301745608449,0.04215429391209036
1700516159645719000,4.534718994140625,-0.9331067792981862,-0.11661810834184289,0.09373520887177438
1700516159655729200,4.544729248046875,1.3171318156033753,-0.31240240011811254,-0.2249422894604504
1700516159665738000,4.554738037109375,-0.5608312174975871,-0.44121407347023484,0.25600736287496983
1700516159675748000,4.564748046875,-0.7311001058757305,0.37729996583387254,0.3576706978648901
1700516159685758200,4.57475830078125,1.104459955781698,1.7028876212239263,-0.6649770900182426
1700516159695767000,4.58476708984375,1.0551982044845818,-2.5242139414697884,0.39376189234573394
1700516159705777200,4.594777099609375,-1.5275748934596776,0.6046705053545535,-0.23656492271497845
1700516159715787300,4.604787353515625,-0.17310674215257166,0.8915605708144605,0.2949262550624087
1700516159725796000,4.614796142578125,0.8088409326821565,-0.6348384107336401,-0.04274020404126495
1700516159735806200,4.62480615234375,-0.5443097062855958,0.39977264053523537,-0.014920067364722489
1700516159745816300,4.63481640625,0.9465794243335723,-0.259248902079463,-0.4353459120891988
1700516159755826200,4.644826171875,-1.0142319878458976,-0.08669453311264515,0.21684925510417669
1700516159765835000,4.6548349609375,-0.20853870553970336,0.887455619713664,0.05511551882661879
1700516159775845000,4.66484521484375,0.951166167601943,0.9931382002823054,-0.5676130596574396
1700516159785855000,4.67485498046875,0.5687316153585911,-2.217569520356506,0.24321532051488756
1700516159795864000,4.684864013671875,-1.885188892701268,1.4323131691403685,-0.3439349449139088
1700516159805874200,4.694874267578125,0.2023112093269825,0.5412057489208877,0.1550677755823359
1700516159815884000,4.704884033203125,0.33669162272214886,-0.5571050365813076,0.015560739888437092
1700516159825893000,4.71489306640625,-0.08236030330061912,0.17406521192118524,-0.0877858720133081
1700516159835903200,4.7249033203125,0.5793430257439613,-0.3952756213769316,-0.3728521195795387
1700516159845913000,4.7349130859375,-1.0357114137262105,-0.045785891880095,0.42537060765027995
1700516159855923200,4.744923095703125,0.18348901995718478,1.2413130429007113,-0.2968326001403853
1700516159865932300,4.754932373046875,1.0486235022693873,-0.2730618849851191,-0.10730941458549349
1700516159875942100,4.764942138671875,0.1793231324493885,-1.8875367710016666,0.0650974722020328
1700516159885951500,4.774951416015625,-1.6880699913203716,1.3483734876938163,-0.035278234130144116
1700516159895960600,4.784960693359375,0.5905021331399679,0.12377192561924456,0.1655992891319096
1700516159905970700,4.794970703125,0.20408990943729877,-0.28081030715480443,0.1765870950816199
1700516159915980500,4.80498046875,0.21755086403489113,-0.28413448314145207,-0.048196642816253
1700516159925989400,4.8149892578125,0.512982840129733,-0.373325655375421,-0.1996398712258786
1700516159935999500,4.82499951171875,-0.9896610256910323,0.04477817614227533,0.5216903165899217
1700516159946009300,4.83500927734375,0.44594285555779933,1.566989204481244,-0.44335079323798415
1700516159956019500,4.84501953125,1.4673931042194366,-1.192855009201914,0.21432938123773781
1700516159966028500,4.855028564453125,-0.36435178306400773,-1.0318423172079025,-0.2431055765300989
1700516159976038400,4.865038330078125,-1.633754463765025,1.388637985803932,0.33875092987213284
1700516159986048500,4.875048583984375,1.0856149700582027,-0.11533669022917747,-0.07744593551307916
1700516159996058400,4.885058349609375,-0.06273790346384048,-0.2959989623278379,0.16428919291403143
1700516160006067500,4.8950673828125,0.6958066741764545,-0.14464622521325946,-0.34771314827837047
1700516160016077600,4.90507763671875,-0.586829582107067,-0.037164194007217884,0.0005377601385116576
1700516160026087400,4.91508740234375,-0.7231126142531633,0.0521472436055541,0.4807562486551702
1700516160036096500,4.925096435546875,0.7939514065861701,1.6423481045871973,-0.7248679334878921
1700516160046106600,4.935106689453125,1.209756313511729,-1.903547410082072,0.3377373323827982
1700516160056116500,4.945116455078125,-1.4301052838325499,-0.08043313463032245,-0.31053193007111546
1700516160066126600,4.955126708984375,-0.8751064257502555,1.2070688279934227,0.3284219896899536
1700516160076135400,4.965135498046875,1.1413988166004418,-0.2533898007877171,-0.14114647346399722
1700516160086145300,4.975145263671875,-0.5716454569786786,-0.19406214415878056,0.183667226068303
1700516160096155400,4.9851552734375,0.88087974845469,-0.020649258666485548,-0.43465942766238
1700516160106165500,4.99516552734375,-0.74512570861876,-0.07812792642787099,0.1974230354266241
1700516160116174300,5.00517431640625,-0.37991000220179555,0.29172186953052875,0.30990777029078453
1700516160126184400,5.015184326171875,0.8773480671972036,1.4017743846222757,-0.6545497309628874
1700516160136194600,5.025194580078125,0.9790689045280218,-1.9127952770292758,0.28619236551932986
1700516160146203400,5.035203369140625,-1.9042992513626813,0.23924641688391565,-0.18263543533515184
1700516160156213500,5.045213623046875,0.2444774494051933,0.9387050376966595,0.30662831022869796
1700516160166223600,5.0552236328125,0.8048796278357505,-0.3361152841389179,-0.10308518448658287
1700516160176233500,5.0652333984375,-0.7479618088275194,-0.10144085134565829,0.1220081308171153
1700516160186242600,5.07524267578125,0.8320043661266565,-0.060168052975833414,-0.386759795031324
1700516160196252700,5.085252685546875,-0.6761053638845682,-0.2236354446455836,0.3247090335814282
1700516160206262500,5.095262451171875,-0.009702478846907616,0.6172061618007719,-0.008519077748619019
1700516160216272600,5.105272705078125,0.5344225185215473,1.0096901066325605,-0.38917080169580875
1700516160226281500,5.115281494140625,0.8211468720257282,-2.18853310322538,0.1553117404060438
1700516160236291300,5.125291259765625,-1.5609943479806183,0.8949186490707098,-0.08657149125486611
1700516160246301400,5.135301513671875,0.19931904177367685,0.406595472292602,0.2287753648173064
1700516160256311300,5.145311279296875,0.4881581954747438,-0.4370741971865296,-0.028782040511257944
1700516160266320400,5.1553203125,-0.439606053751707,0.17802140220105647,-0.03859948750734329
1700516160276330500,5.16533056640625,0.8940326600164175,-0.18491525336802006,-0.2831369234714657
1700516160286340400,5.17534033203125,-0.9275655117839574,-0.36468116114884613,0.34226350457035004
1700516160296350500,5.1853505859375,0.16924012985229492,0.8814891125246882,-0.14438001202512532
1700516160306359600,5.195359619140625,0.6979501159459353,0.8386692308433353,-0.25940321585834025
1700516160316369400,5.205369384765625,0.6463678127467631,-2.07947739296183,0.02883987164571881
1700516160326379500,5.215379638671875,-1.6668401562869548,0.7919771839037537,0.02309424066580832
1700516160336389600,5.2253896484375,0.47250586831271646,0.4381960408233106,0.15073953711967913
1700516160346399500,5.2353994140625,0.4430155699342489,-0.45215603098422286,-0.05634381851255894
1700516160356408600,5.24540869140625,-0.5916811137914657,0.2559332016602158,-0.07568389427661895
1700516160366418700,5.255418701171875,1.1069599559038876,-0.2219368240341544,-0.24059571260102092
1700516160376428500,5.265428466796875,-0.8676613704413175,-0.4412624426566064,0.2940003358565271
1700516160386438700,5.275438720703125,0.05036649766862392,0.8509041507773101,-0.043079957389645276
1700516160396447500,5.285447509765625,0.8088625599920749,0.9180217306300997,-0.3240529808254912
1700516160406457300,5.295457275390625,0.6900099705964327,-2.2219902594082055,0.04370879334509373
1700516160416467500,5.305467529296875,-1.6426900498926638,0.9793383691191673,-0.00884757905062288
1700516160426477300,5.315477294921875,0.25670856994688507,0.36400910710617895,0.2332871066207066
1700516160436486400,5.325486328125,0.5373936432868242,-0.5444504299305379,-0.07213171822037548
1700516160446496500,5.33549658203125,-0.585106411576271,0.47013417074531316,-0.004337883073836565
1700516160456506400,5.34550634765625,1.112690608510375,-0.3154834149986505,-0.2545347330391407
1700516160466516500,5.3555166015625,-0.9772387664914131,-0.42026261698678136,0.3873041675737127
1700516160476526600,5.365526611328125,0.003896422916650772,1.0285301239199935,-0.048375396916642784
1700516160486535400,5.375535400390625,0.5955705224454403,1.053747859545797,-0.34215153209585697
1700516160496545500,5.385545654296875,0.5215870023459196,-2.2174071694016457,0.12093531395383178
1700516160506555600,5.3955556640625,-1.573117331972718,0.9832359610795974,-0.013581475704722106
1700516160516565500,5.4055654296875,0.2397112579166889,0.4903359779052436,0.2465039137315005
1700516160526574600,5.41557470703125,0.3402139516294002,-0.5085694076016545,-0.001857939358986914
1700516160536584400,5.42558447265625,-0.5238099390923977,0.28286431707516313,0.03934358387291431
1700516160546594300,5.43559423828125,1.3635820166110992,-0.19325331199392676,-0.30420692830067125
1700516160556604400,5.4456044921875,-1.1072954714685679,-0.3583088496379554,0.3498984929608181
1700516160566614300,5.4556142578125,-0.1093009171962738,0.6901964330792426,0.041526042478531595
1700516160576623400,5.465623291015625,1.1839490875601768,1.2051843294210731,-0.4759547666575759
1700516160586633500,5.475633544921875,0.48983811138570305,-2.042408914414048,0.21616423198208212
1700516160596643300,5.485643310546875,-1.9774480742037295,0.46266909556165337,-0.08877236230000853
1700516160606653400,5.4956533203125,0.7124567802041769,0.5985008768089115,0.36564189593978225
1700516160616663600,5.50566357421875,0.38844577535688873,-0.1595206998705864,-0.13534816244877873
1700516160626672400,5.51567236328125,-1.1368582505613565,-0.09488061604723334,0.10195921266395598
1700516160636682500,5.5256826171875,1.5669792676091194,-0.06198138600811362,-0.342676615415886
1700516160646692600,5.535692626953125,-0.7557032167345284,-0.4754501050710678,0.21860282077323645
1700516160656702500,5.545702392578125,-0.5593529616385698,0.6293874518513679,0.11004103150647133
1700516160666712600,5.555712646484375,1.0996452489763497,1.3112109011217952,-0.5386227832229807
1700516160676721700,5.5657216796875,0.3963736457467079,-2.023060216952115,0.20932773702554403
1700516160686731500,5.5757314453125,-2.011410549560189,0.41468437846302986,-0.17687913683075457
1700516160696741600,5.58574169921875,0.5583247876346111,0.7045318324238061,0.3476206842219457
1700516160706751500,5.59575146484375,0.30097382813096046,-0.18845730988904832,-0.1713955908531323
1700516160716761600,5.60576171875,-0.9970371074169874,-0.05691138926744461,0.07769092325009405
1700516160726770400,5.6157705078125,1.4164672191023826,-0.15418810667097568,-0.27952315342109646
1700516160736780300,5.6257802734375,-0.5822217960506677,-0.43430926251783963,0.2592971982005983
1700516160746790400,5.635790283203125,-0.370365928786993,0.6014787235759198,0.15121205000225454
1700516160756800500,5.645800537109375,0.8269652029156684,1.1728417103514075,-0.6391278515558689
1700516160766810400,5.655810302734375,0.6389321097880601,-2.662312206344306,0.3706056923596188
1700516160776819500,5.6658193359375,-0.7196060674369334,0.557827797897905,-0.5144978478025645
1700516160786829600,5.67582958984375,-0.04616904597878456,0.9333721522361039,0.27811394421029834
1700516160796839400,5.68583935546875,-0.1577162807971239,-0.3665079381845891,-0.06679441231302917
1700516160806849500,5.695849609375,0.08023030553460121,0.20554463829025624,-0.0947628714190796
1700516160816859400,5.705859375,1.8476339458107947,-0.45220191595256326,-0.24869985287319868
1700516160826869500,5.715869384765625,-0.6802367646008729,-0.2611114810809493,0.351254583744891
1700516160836878600,5.725878662109375,-0.5194020595222711,0.8518274031020701,0.15037859485279767
1700516160846888400,5.735888427734375,1.1723065805613995,1.1551536395780742,-0.49494858626723287
1700516160856898600,5.745898681640625,0.9875877265483141,-2.57889362616241,0.45230585125107314
1700516160866908700,5.75590869140625,-1.5186200181096792,1.5796007026426493,-0.45980007946398105
1700516160876918500,5.76591845703125,-0.5599240395247936,0.464551548307389,0.5527930551337078
1700516160886927600,5.775927734375,0.398342899993062,-0.33311084162592886,-0.16600034421347082
1700516160896937700,5.785937744140625,0.07601531818807125,0.3178681181780994,-0.05595459999926388
1700516160906947600,5.795947509765625,0.5681581993848085,-0.2545215812966227,-0.20439440880920737
1700516160916957700,5.805957763671875,-1.5497294421225785,-0.17860913896113634,0.29333880320787425
1700516160926967600,5.815967529296875,-0.12797405348420143,1.005688762036711,0.01744450780842453
1700516160936977700,5.825977783203125,0.8023679372757673,0.7068515075430274,-0.4227108138564974
1700516160946986800,5.83598681640625,0.27536007892489434,-2.388760784276575,0.3477884785369038
1700516160956996600,5.84599658203125,-2.0147066684961317,1.4446420509681104,-0.3211038852289319
1700516160967006700,5.8560068359375,0.5536006817221641,0.2289212760940194,0.4089558812810108
1700516160977016600,5.8660166015625,0.33399697681069374,-0.6802529850833118,-0.06938797247018665
1700516160987026700,5.876026611328125,-0.2070078427106142,0.5961769639059901,-0.058532816456817086
1700516160997036800,5.886036865234375,1.0008832614511252,-0.7980103265881537,-0.2674653801523149
1700516161007045600,5.896045654296875,-0.9611328503429889,-0.35324352907240386,0.39273459512460973
1700516161017055700,5.9060556640625,0.3647831602185964,1.1720293710552154,-0.10075897002872079
1700516161027065900,5.91606591796875,1.4774404509812593,0.14293459898978472,-0.3595866144888103
1700516161037075700,5.92607568359375,0.29420564917027947,-2.457090954789519,0.387771419759281
1700516161047085800,5.9360859375,-1.7098165437042712,1.6632624439306556,-0.36883528515361247
1700516161057095700,5.946095703125,0.9611293432116508,0.046508360935747624,0.4146793369617313
1700516161067105800,5.956105712890625,0.21358955918848513,-1.0551644483454525,0.06077266780547797
1700516161077114600,5.966114501953125,-0.019538813206553457,1.1469899146057665,-0.04767042698506266
1700516161087124500,5.97612451171875,0.5215472548574209,-1.4959319470919668,-0.20947569412887096
1700516161097134600,5.986134521484375,-1.8326392057746648,0.12652955376431346,0.4283399057846516
1700516161107144700,5.996144775390625,0.28551906936764715,1.4285380345158278,-0.15592143326960503
1700516161117154600,6.006154541015625,1.7205606405586003,-0.7347077749788761,-0.2645779516151175
1700516161127164700,6.01616455078125,0.30685996356010437,-2.393349865632504,0.05364237753413617
1700516161137173800,6.026173828125,-2.2852087859958408,2.1499574349850414,-0.3086700817219913
1700516161147183600,6.03618359375,0.6063415073066949,-1.1474828126892447,0.2962228342115879
1700516161157193700,6.04619384765625,-1.500775733861327,0.22317191878706216,-0.4024243971530348
1700516161167203600,6.05620361328125,3.422576739645004,1.6369097129255532,0.4072884960580617
1700516161177213700,6.066213623046875,1.3094196337908506,-5.959406417059898,-0.9364555052042007
1700516161187223600,6.0762236328125,-5.810253966468572,5.402395634633303,0.9753598208770156
1700516161197233700,6.086233642578125,1.468544612342119,-1.2827094676502049,-0.32390597357023504
1700516161207242800,6.09624267578125,5.775072762972116,-5.013334357726573,-0.36276466000303625
1700516161217252600,6.106252685546875,-2.8287790720909833,1.3476703078605234,0.1919655737383291
1700516161227262700,6.1162626953125,-4.380930188402533,0.6578703267529606,0.07269139792975038
1700516161237272800,6.12627294921875,2.593430101037025,2.6630782222807405,-0.07972907801419496
1700516161247282700,6.13628271484375,5.424733138647675,-8.946962092655896,-0.19904333010483533
1700516161257292800,6.146292724609375,-4.969814949473738,3.4141058484196662,0.045917884229309855
1700516161267302700,6.156302734375,-0.7153852348715066,4.512793358279764,0.954220513671264
1700516161277312800,6.166312744140625,2.0688614525318143,-8.721575712689758,-1.1181548652656377
1700516161287321600,6.176321533203125,0.47753392560780045,-0.34324659732356666,1.149480562377721
1700516161297331500,6.18633154296875,-2.2530700189352033,4.409269563180208,-0.8650609786845743
1700516161307341600,6.196341552734375,3.331673064404726,-1.5441573410786686,0.7117994853392243
1700516161317351700,6.2063515625,-1.1919471005767583,-8.30244721429944,-0.6030476168604567
1700516161327361500,6.216361572265625,-2.293853280222416,7.414438636878132,0.39575704821832475
1700516161337371600,6.22637158203125,4.305668318930268,-4.325920833364129,0.37633477406352756
1700516161347381500,6.236381591796875,-1.691606933274865,-4.38736986606121,-0.8345019550960511
1700516161357390600,6.246390625,-4.06664562779963,2.11789626320526,0.9015880438320338
1700516161367400700,6.256400634765625,3.842663853934407,0.06256167011409998,-0.21046065004561096
1700516161377410600,6.26641064453125,2.676771816590428,-6.974678853869438,-0.14668551248852163
1700516161387420700,6.276420654296875,-4.886602413257957,2.9142382181897757,0.2517562813017517
1700516161397430800,6.2864306640625,1.9638667080968617,-2.177537661958486,0.47335170801971105
1700516161407440600,6.296440673828125,1.0899807640522718,-4.479415989334881,-0.6548652266528457
1700516161417450800,6.30645068359375,-3.615027064692974,-0.47538595379367465,0.3027555969811976
1700516161427460600,6.316460693359375,3.6397453263640402,-0.7477475815549492,0.40800292793773113
1700516161437469700,6.3264697265625,0.7470926247775554,-4.489724617381394,-0.3237184151088819
1700516161447479800,6.336479736328125,-3.7760119918972253,-1.8079741355955599,0.4836047699540853
1700516161457489700,6.34648974609375,2.9131793567866087,-3.358825567485392,-0.2265274032274261
1700516161467499800,6.356499755859375,1.9692080691248177,-2.713549933889508,0.6490583670049905
1700516161477509600,6.366509521484375,-3.5434061820715663,-1.4065303469777106,-0.8585800191674381
1700516161487519700,6.376519775390625,3.6914948028236627,-4.055577705818415,0.6119455743914469
1700516161497529900,6.38652978515625,1.766078529152274,0.19976576262786983,-0.5292044185470789
1700516161507539700,6.396539794921875,-0.41522272312343117,-5.061273335987329,0.6200234111785888
1700516161517549800,6.4065498046875,-0.30727789671123024,-3.8514427881956097,-0.22877087130527943
1700516161527558700,6.41655859375,1.9039947154581545,1.7356993191100656,0.9217939426451921
1700516161537568500,6.426568603515625,0.9758125330805778,-5.0065439669340845,-0.2029970361666754
1700516161547578600,6.43657861328125,-0.5581704738557338,-4.561086264544725,-0.548213545323722
1700516161557588500,6.44658837890625,0.03181552645564079,4.16563002590388,0.5824522072730586
1700516161567598600,6.4565986328125,-0.41463294053673744,-10.776371814990043,-0.4942820486498996
1700516161577608700,6.466608642578125,-1.9048644840300082,-1.0426011732399463,-0.5191584234921262
1700516161587618600,6.47661865234375,1.682837935885787,2.18276124182567,0.4071604492316022
1700516161597628700,6.486628662109375,0.008730418944358826,-11.344379792249201,-0.8746897347081453
1700516161607638500,6.496638427734375,-0.9692536129564047,3.7844057262331243,-0.15109251527581363
1700516161617647600,6.506647705078125,14.036632671087979,-4.826815176293254,1.289473847218603
1700516161627657700,6.51665771484375,-20.6932135435462,-10.34186980637908,-0.7250771923243999
1700516161637667600,6.52666748046875,-4.877075290977954,8.449849606353045,0.30885913802068676
1700516161647677700,6.536677734375,3.813407948833704,-7.584899832957983,1.7537851570293306
1700516161657687600,6.5466875,8.117556510850786,-5.517978993099928,-2.485002459543943
1700516161667697700,6.55669775390625,5.241144749969243,2.4597327014699575,1.1502033236943185
1700516161677707800,6.566707763671875,-2.745018838864565,-8.53719646589458,-0.9810089326798915
1700516161687717600,6.576717529296875,-3.500862340852618,2.6545725520029664,-0.00006469926666468381
1700516161697727700,6.586727783203125,0.8797375926822424,-4.5563367319300765,1.8012074179396032
1700516161707737600,6.596737548828125,-1.1005278770297766,-8.901887271654605,-1.9545272173434496
1700516161717746700,6.60674658203125,0.961565396541357,4.705806285646558,1.8938281262308359
1700516161727756800,6.6167568359375,3.288667450892925,-8.902207589650153,-0.4214325010163709
1700516161737766700,6.6267666015625,-0.28905425775647164,-0.5858624906405806,-1.044856916277483
1700516161747776800,6.63677685546875,4.536839127516746,2.0946853373572227,2.009556446126103
1700516161757786600,6.64678662109375,-0.5612929897904396,-11.070429580122232,-1.712765748898685
1700516161767796700,6.656796630859375,-3.074438424757123,3.5296819003626703,0.7418709446065127
1700516161777806800,6.666806884765625,2.0538123519599436,-7.8885636308252804,1.4149246658354997
1700516161787816700,6.676816650390625,-4.828516719514131,-8.725920463895797,-2.116627558443695
1700516161797826800,6.686826904296875,0.8975169950008391,2.9142285735785958,2.036598912961036
1700516161807836700,6.696836669921875,3.043479222869873,-11.93706511464715,-0.7777361848443746
1700516161817846800,6.7068466796875,-0.8576631235182285,0.8724342839315533,-1.6664800908029078
1700516161827857000,6.71685693359375,4.43904978441596,-2.8600644371926784,3.0414494706079362
1700516161837865500,6.726865478515625,0.4360708653628826,-4.733834694778919,-2.6259388704538345
1700516161847875600,6.73687548828125,2.805966936302185,7.664941922444105,1.385410402059555
1700516161857885700,6.7468857421875,4.607587903478741,-9.698615741738676,0.7258155165363103
1700516161867895600,6.7568955078125,-4.583535412240028,-4.227279257348179,-3.2229461477041244
1700516161877905700,6.76690576171875,-2.740710328015685,1.2147820327192544,4.361235307851434
1700516161887919600,6.776919677734375,-0.9879232421129941,-10.875057814669608,-1.8385430229909716
1700516161897929700,6.7869296875,-2.3956162031292916,2.2321191469736394,-0.024612572806887327
1700516161907939600,6.796939697265625,5.578105837282538,-6.947108125376701,1.7658682474024592
1700516161917949700,6.80694970703125,-2.1824907543212175,-4.752705399465561,-2.6031919088557363
1700516161927959800,6.816959716796875,0.648563276964426,1.0889769938372076,3.828271755966544
1700516161937969700,6.8269697265625,1.3953671479284762,-10.802831951892376,-1.9756348873019218
1700516161947979800,6.836979736328125,-0.44407355455458164,3.5333740328788754,-0.5700983736671507
1700516161957988900,6.84698876953125,5.96149082211852,-3.280425692248344,2.2242038438044487
1700516161967998500,6.85699853515625,-0.2793839276134968,-9.218317027592658,-3.980567765280604
1700516161978008600,6.867008544921875,-1.4913316136896608,2.8930788180440663,2.473816756401956
1700516161988018400,6.877018310546875,1.4749895506978035,-8.973805091395974,-0.8071018339298665
1700516161998028500,6.887028564453125,-3.9117613555580375,-2.0823250374779105,-1.2780424987524748
1700516162008038400,6.897038330078125,4.014572326213121,-0.20474135908335447,3.5784859710201617
1700516162018048500,6.907048583984375,2.977349338880181,-6.679184333932399,-2.7857509544864296
1700516162028058600,6.91705859375,-1.1369359919726847,0.23110914152711629,1.8393804967284202
1700516162038068500,6.927068359375,2.8927655143111943,-8.053027632316946,-1.2515163108766079
1700516162048078600,6.93707861328125,-3.8584032748579977,-0.2686287248432636,-0.8053989024695009
1700516162058088400,6.94708837890625,1.5350924294829367,-4.216989334002137,3.022520021471381
1700516162068098600,6.9570986328125,1.44806530341506,-6.120066934615373,-4.075338345082104
1700516162078108700,6.967108642578125,1.959453567829728,2.2046666380330917,3.3117782773673534
1700516162088118500,6.977118408203125,4.090195430213213,-8.884653812780975,-0.7559703432381153
1700516162098128600,6.987128662109375,-3.07877090100348,3.310754779538512,-1.1638250218115747
1700516162108137700,6.9971376953125,4.3933693987369535,-2.3017665375649927,4.031613185124099
1700516162118147600,7.007147705078125,-2.752023164668679,-9.842909061861038,-3.5464404352009296
1700516162128157700,7.01715771484375,-3.7863451698631048,-0.8812715242512523,2.7382760866060853
1700516162138167600,7.02716748046875,2.8576170440405604,-4.795902736157179,0.019761625644378365
1700516162148177700,7.037177734375,-0.3230155640691519,-0.3113336018428206,-0.0211471617186442
1700516162158187500,7.0471875,3.49533860899508,-7.197457681685686,0.9945691098682582
1700516162168197600,7.05719775390625,-3.3078777627974745,-0.593750905802846,-1.7886780451036988
1700516162178207700,7.067207763671875,0.9229273305892943,-0.8284075106784701,2.7779069629877804
1700516162188217600,7.077217529296875,0.5792904187738895,-6.973135716080665,-2.1405361111670733
1700516162198227700,7.087227783203125,0.11337269667983055,-0.5602120626859367,1.2889930779643357
1700516162208237600,7.097237548828125,2.286511685287952,-4.738379936993121,-1.2348885628111659
1700516162218247700,7.10724755859375,-2.6399597970217465,-3.0687133251085874,0.18579115941971538
1700516162228257500,7.117257568359375,1.3501660701990126,-5.140306540691852,-0.1780512128174305
1700516162238267600,7.127267578125,-0.015224457138776779,0.16923837628662586,-1.4238523609176277
1700516162248277800,7.13727783203125,2.970447304406762,-3.954482306909561,0.9389657344594597
1700516162258287600,7.14728759765625,0.11796411612331867,-3.7591575954690573,-1.1356667757544665
1700516162268297700,7.157297607421875,-0.0900298150151968,-2.3178927658490833,0.45782461467254904
1700516162278306800,7.167306884765625,1.5366203697025775,-3.2305738661035894,-0.5806800465013832
1700516162288316700,7.177316650390625,1.155393439683318,-2.9914626199066636,0.8775619291435927
1700516162298326800,7.187326904296875,2.1712311091601846,-3.544370935450494,-0.17410335197448729
1700516162308336600,7.197336669921875,-1.7894295941233633,-4.357980105447769,0.42650662594288585
1700516162318346800,7.2073466796875,2.9951299102425573,-1.7488079531386493,0.09171155755706131
1700516162328356600,7.217356689453125,0.7161532966345548,-0.9920372533030808,-0.5766634312711656
1700516162338366500,7.227366455078125,3.061541533783078,-4.7562382497668265,0.34648294889628883
1700516162348376600,7.23737646484375,-1.4099404476821422,-3.235117647013068,-1.1704787806123493
1700516162358386400,7.247386474609375,-1.9053408693701028,-2.0702803794190285,0.9968348628431558
1700516162368396500,7.257396484375,0.4503489815622568,-1.1839417810365558,-0.6146740129746496
1700516162378406400,7.267406494140625,1.2243196763932704,-4.283739395716786,0.8760403455995023
1700516162388416500,7.27741650390625,0.5116904622316361,-3.839044494393468,-1.4198473630599677
1700516162398426600,7.287426513671875,-3.777983584231138,-2.2129836538709697,1.1081079568952321
1700516162408436500,7.2974365234375,-0.35859248888492584,-2.214271209463477,-0.07072711211945862
1700516162418446600,7.307446533203125,-0.31009821482896804,-2.1273859760843217,0.5063497953234241
1700516162428456400,7.31745654296875,0.6893424465984106,-6.1194385735839605,-0.7359273068364709
1700516162438466600,7.327466552734375,-1.9532325013577936,0.3727912562377751,0.5366898789316416
1700516162448476700,7.3374765625,1.0749632276624441,-3.7831454970389604,0.06233765209987759
1700516162458486500,7.347486572265625,1.1761217549353837,-1.142626458699256,-0.3566150878647342
1700516162468496600,7.35749658203125,2.121333982568979,-5.865352168834209,-0.004256926792114973
1700516162478506500,7.367506591796875,-0.9688871177315711,-0.9124069594882428,0.10560670232083648
1700516162488516600,7.3775166015625,0.8649164556473493,-2.7824951675608753,-0.04687810756359249
1700516162498526500,7.3875263671875,2.098810016071796,-0.21513167406395076,0.4336696494400501
1700516162508536600,7.39753662109375,1.814660481491685,-5.866901151841878,-0.36857097166161984
1700516162518546700,7.407546630859375,-1.437852536958456,-2.127214857301116,-0.30110088857673106
1700516162528555500,7.417555419921875,0.3458756306529045,-1.2340532810308038,0.9028677083790302
1700516162538565600,7.427565673828125,2.3553578424990174,-0.8006497351810336,-0.12516520660854874
1700516162548575700,7.43757568359375,2.3142677072197197,-6.0629597305148835,0.28257275025006384
1700516162558585600,7.447585693359375,-1.8923013550549745,-2.959963904315233,-0.23008937002532182
1700516162568595700,7.457595703125,0.5902770922124385,-0.780186938997358,1.5891086818307638
1700516162578605600,7.46760546875,0.9195663297235965,-1.949701404622197,-0.965359674257785
1700516162588615700,7.47761572265625,1.7189315780520438,-4.15476756336689,0.28067122747767714
1700516162598625500,7.48762548828125,-0.34782851828634737,-2.8994097746312617,-0.4876362174272537
1700516162608635600,7.4976357421875,1.6703753446757792,-1.1678598302856087,0.6219859434232116
1700516162618645800,7.507645751953125,1.254527767652273,-0.92885219059363,0.5582139111386611
1700516162628655600,7.517655517578125,2.069893133667111,-4.740747542907298,-0.8771383699692785
1700516162638665700,7.527665771484375,-1.7650316504478454,-3.155607472446561,1.406628546655178
1700516162648675600,7.537675537109375,1.5261229410856962,1.314279787173122,0.09710653020208701
1700516162658685700,7.547685791015625,0.98196287240386,-4.970654322907328,0.45747218450568616
1700516162668695800,7.55769580078125,-1.216340368077159,-2.805082262422144,-1.299561525990814
1700516162678705700,7.56770556640625,-1.678549883303046,-3.5982182609722018,0.25884488785583526
1700516162688715800,7.5777158203125,1.769131486982107,2.761372884555161,-0.9151027013782411
1700516162698725600,7.5877255859375,1.6752274608820676,-6.653617930999398,0.6073540818827227
1700516162708735700,7.59773583984375,-2.3883155247271057,-4.594140977406502,-0.4033709207555279
1700516162718745600,7.60774560546875,-0.8075199132114649,-1.085251835834235,0.6977340620424598
1700516162728755700,7.617755615234375,-0.0814899502068758,1.8887122445218263,-0.11848026721822097
1700516162738765800,7.627765869140625,0.6711264064282179,-5.660296044713259,-0.1670480631681159
1700516162748775700,7.637775634765625,-1.6955629774242638,-3.274051481041312,0.6675244364134967
1700516162758785800,7.647785888671875,0.9437895013540982,-0.4416214852273464,-0.4950256700914353
1700516162768795600,7.657795654296875,2.0808102490007876,0.005544336254149675,1.049155417189002
1700516162778805800,7.6678056640625,1.1286544858396053,-5.069884512466192,-1.553795960909128
1700516162788815600,7.677815673828125,-3.655051616567373,-3.0612089408278464,0.1341029116280377
1700516162798825500,7.687825439453125,1.154630638617277,2.5418767316713926,-0.04813881168179214
1700516162808835600,7.697835693359375,3.125617407852411,-5.340785858416557,0.45793804845176633
1700516162818845400,7.707845458984375,0.6074345632404089,-3.388204514443874,-1.3159705167390405
1700516162828855600,7.71785546875,-0.404564550986886,-2.754569634281099,0.24286774918623266
1700516162838865400,7.727865478515625,1.026583519896865,1.3663605414137243,-0.5454287003781646
1700516162848875500,7.73787548828125,0.7582201679915189,-6.848229817995429,-0.5306954973550513
1700516162858885600,7.7478857421875,-1.9733447305381298,-3.937103886607289,-0.17351380684981121
1700516162868895500,7.7578955078125,1.087641507449746,0.31461189286112784,0.8904082589741795
1700516162878905600,7.767905517578125,1.2168003868043422,-2.8156173927009105,0.4341488843243569
1700516162888915000,7.7779150390625,-1.3539853362262249,-4.417075560756027,-0.1908570645071566
1700516162898925000,7.787925048828125,-2.9521026694208383,-4.0661972995102404,1.2353648020207881
1700516162908935200,7.79793505859375,1.4387527006685732,3.622768472599983,-0.8210046870760619
1700516162918945000,7.807945068359375,2.9429630851536985,-5.705648513612151,1.4157270682595668
1700516162928955100,7.817955078125,-1.2147855398505925,-3.7834786745160818,-0.9548152646940201
1700516162938965000,7.827965087890625,-0.6020885260373353,-0.6150073365822434,0.313961100802198
1700516162948975000,7.83797509765625,2.081947728598118,-1.0887503454744816,0.07091240555848925
1700516162958985200,7.847985107421875,0.469401472556591,-3.554780393522978,-0.7332756232839077
1700516162968995000,7.8579951171875,-2.191087317752838,-2.524505617892742,-0.11496836837343871
1700516162979005200,7.868005126953125,2.336622746890783,1.1047259132415055,0.283398350886628
1700516162989015000,7.87801513671875,2.1606343118220566,-5.375999210616946,1.281216160352528
1700516162999025200,7.888025146484375,-0.4635334573060274,-2.119757088641077,-0.11858940841481089
1700516163009035000,7.898034912109375,-1.9548837756961583,-1.9803747753053902,0.4395844995070249
1700516163019045000,7.908045166015625,2.8493291081666943,-0.1288048052199185,-0.2640610881341621
1700516163029055200,7.91805517578125,3.0766175223618744,-3.505608658596873,-0.02754990490041673
1700516163039065000,7.928065185546875,-1.8504706305414438,-2.411784955380857,0.0321409590177238
1700516163049075200,7.9380751953125,-1.5657313133746384,0.9735618315443396,-0.15313611340001224
1700516163059085000,7.9480849609375,-1.1063654971420764,-4.214902298595011,0.38782957968730475
1700516163069095200,7.95809521484375,-0.3739309277921915,-1.6833526074096559,-1.4478947691537438
1700516163079105000,7.96810498046875,0.811838945454359,-2.6727222489386797,-0.6575050005719065
1700516163089115100,7.978115234375,0.8062468245357275,-0.04987096923664212,-1.2585254589863122
1700516163099125200,7.988125244140625,1.321584118837118,-3.191942522153258,-0.8584311122160404
1700516163109135000,7.998135009765625,-1.7958873919606209,-3.8815205310732126,0.7817866292789578
1700516163119145200,8.008145263671874,1.0266028091192245,0.6497051404759288,-0.11724979384150355
1700516163129155000,8.018155029296874,2.992632832729816,-3.564169860897958,1.0620451477698982
1700516163139165200,8.028165283203125,1.2711053929656744,-2.7143679722741245,0.33617172703389075
1700516163149175000,8.038175048828125,-0.8058680543512106,-3.7878266405925154,1.2255223301813005
1700516163159185200,8.04818505859375,2.408754501643777,2.0732050346940754,-0.34214612526837734
1700516163169195300,8.0581953125,3.363171195474267,-3.66522112840414,0.9747148740369826
1700516163179205000,8.068205078125,0.6474193676263094,-5.093828282633424,-0.23355089038973673
1700516163189215200,8.07821533203125,-0.6132388656049966,1.715237838100642,-0.7781840016771108
1700516163199225000,8.08822509765625,-0.8914344602167605,-2.431913551174104,-0.038327337768767025
1700516163209235200,8.098235107421875,-4.844467152839899,-5.209474769464135,-1.3994529559373854
1700516163219245300,8.108245361328125,-3.962686071631312,-0.9954913392797112,-0.2980551276726648
1700516163229255200,8.118255126953125,2.0426269410789013,2.113599588924646,-0.4893498164121061
1700516163239265300,8.128265380859375,3.471574287047982,-6.675028383296728,-1.1096509485535322
1700516163249275100,8.138275146484375,-1.047907462954521,-3.407770800179243,-0.09316909942161292
1700516163259285200,8.14828515625,0.5281517676889896,2.234148753105104,0.06301715879663825
1700516163269295000,8.158295166015625,0.2872562684237957,-4.600913248020411,0.7634234357230365
1700516163279305200,8.16830517578125,-0.49269291629493234,-1.8508154984563587,-0.8508909990347922
1700516163289315300,8.1783154296875,2.149937561240792,-3.1046967848986387,0.7567801252510398
1700516163299325200,8.1883251953125,3.222314279541373,-0.10502192470282315,0.20270103062847628
1700516163309335300,8.198335205078125,1.964627171075344,-3.3564825114905834,1.096211840461567
1700516163319345200,8.20834521484375,-1.183366903758049,-3.1589445079147813,0.5316857505014166
1700516163329355300,8.218355224609375,0.3247960177451372,0.5061518250659108,0.5111943858103827
1700516163339365000,8.228365234375,0.926594620925188,-2.1071749627046286,0.18240949935847892
1700516163349375200,8.238375244140625,0.023696517407894132,-2.086122968456149,-0.8160866660267114
1700516163359385300,8.24838525390625,-2.6257272735297676,-4.60264869351089,0.21896595499720423
1700516163369395200,8.258395263671876,0.3844014684021473,1.2155926184497774,-1.2714848938025534
1700516163379405300,8.2684052734375,1.0034598339408636,-2.8478461761325597,0.16344795631691814
1700516163389415200,8.278415283203126,-1.8713871618419884,-3.9302749173700806,-0.6761920192547142
1700516163399425300,8.28842529296875,0.2093774944514036,2.1926550054609772,0.07021883380375803
1700516163409435400,8.298435302734376,2.826134695062041,-4.416123374597728,0.4128255623212084
1700516163419446300,8.3084462890625,-0.27182196792662144,-3.378081764358282,-0.7965880387000739
1700516163429456100,8.3184560546875,-1.2040876202255486,-0.9917911695875227,1.4566240190543234
1700516163439466200,8.32846630859375,2.668269945704937,0.05683306333422661,-0.32658377794474364
1700516163449476400,8.338476318359374,3.268051948365569,-4.24622536535859,-0.09365677334070205
1700516163459486200,8.348486328125,-0.5741840355455875,-2.1736868317492304,0.5146836892308667
1700516163469496300,8.358496337890625,1.8242624225735664,2.137815454031527,-0.4441520996835083
1700516163479506200,8.368506103515625,2.981558481007814,-5.147076473218203,0.3698689755829051
1700516163489516300,8.378516357421875,1.7887860355228185,-1.588907460170239,-1.192211085275188
1700516163499526100,8.388526123046875,0.5719827261090278,-1.8490717235289513,-0.4926563836768269
1700516163509536300,8.398536376953125,1.611762412187457,-0.04617664476335048,-0.9558334287606179
1700516163519546400,8.40854638671875,1.1954402033895253,-4.415782306075096,-0.6627382981155068
1700516163529556200,8.41855615234375,-0.10831950494349002,-4.54690342541337,-1.2139888365149498
1700516163539566300,8.42856640625,1.0823024845093487,3.500236317908764,0.17215594423376024
1700516163549576000,8.438575927734375,0.6330231780052185,-4.577932185405492,1.421054254631698
1700516163559586000,8.4485859375,-3.258325504121184,-4.906115507501363,0.5610017152262852
1700516163569596200,8.45859619140625,-3.101352150645852,-0.46857452021315693,2.1604140932001172
1700516163579606000,8.46860595703125,0.2413976035684347,0.7078009172223508,0.7670443296339362
1700516163589616000,8.4786162109375,-0.46991818990707396,-4.0609322185888885,0.18716730661112815
1700516163599626000,8.4886259765625,-2.3192034100562333,-2.5704677431225775,0.5063466900508851
1700516163609636000,8.498635986328125,-0.2848831095516681,1.1881145366765558,-1.97591779589653
1700516163619646000,8.50864599609375,0.8636872061133384,-2.6043419556736946,-0.47356009007338434
1700516163629656000,8.518656005859375,0.1286421620041132,-4.83646387912631,-2.2275394179679453
1700516163639666200,8.528666259765625,0.7532955710709095,-0.8130804699480533,-0.1833857422458008
1700516163649676000,8.538676025390625,0.9243997412294149,-0.23660759281292557,-0.03350318728163838
1700516163659686100,8.54868603515625,1.6429431478708982,-3.774495742115378,-0.6940294353708625
1700516163669696000,8.558696044921875,-3.0020488958507774,-2.6053409035831687,1.2996043422192334
1700516163679706000,8.5687060546875,-1.4912953733325003,2.989837064531445,0.41496005359925325
1700516163689717000,8.578717041015626,-0.3321323519825935,-5.501659141939878,1.57383673228845
1700516163699727000,8.58872705078125,-1.6327514242023229,-2.68457372251302,-0.6945258405856788
1700516163709737000,8.598737060546876,2.7291367945998903,0.4044977693609893,1.696766654125601
1700516163719747000,8.6087470703125,1.759666908544302,-2.3974444414697587,0.15980116077978163
1700516163729757200,8.618757080078124,2.3185265337079763,-3.2120000985369086,-1.1398908231902867
1700516163739767000,8.62876708984375,1.0110995350390672,-3.1999072174221275,0.3030729558346793
1700516163749777200,8.638777099609374,3.5014445246547456,1.9515952555447815,-1.4529229725793003
1700516163759787000,8.648787109375,1.8114239837884902,-2.742032516530156,0.390796649331972
1700516163769797000,8.658797119140624,0.14677870719730854,-6.571920475521683,-1.6334018509350716
1700516163779807000,8.668806884765624,-0.6663280662357807,0.1943675568461418,0.5058257349167019
1700516163789817000,8.678817138671874,5.232744585892558,2.3785481639504433,-0.8895967964608221
1700516163799827200,8.6888271484375,-2.0117513258218764,-4.212463381010294,2.064097306869924
1700516163809837000,8.698837158203125,0.37236382460594175,-2.2145244535721837,1.1912271157391368
1700516163819847200,8.70884716796875,-3.4587200661718844,2.3683820131145414,0.28667419421952217
1700516163829857000,8.71885693359375,-4.300039957654476,-3.515974569788575,-0.08843392412588
1700516163839867100,8.7288671875,-8.995310236239433,-4.946314246898889,-1.4550668527401982
1700516163849877000,8.738876953125,1.9008768756985663,0.4714303480356931,0.5680035202797502
1700516163859887000,8.74888720703125,6.794331639069318,-1.283547233648598,-1.2782673935495317
1700516163869897200,8.758897216796875,3.6153970670491455,-4.026607047399878,-2.4665365362659095
1700516163879907000,8.768906982421875,-0.42757717778384685,-1.6285332219853996,0.9431394399475306
1700516163889913900,8.778913818359374,-1.2221686358392239,1.2520207532674072,0.48721762668900187
1700516163899925000,8.788925048828125,0.5852502039611339,-3.5392817956179377,0.129061446862109
1700516163909935000,8.79893505859375,-3.8240971006304023,-3.8946950699448584,2.279703466577828
1700516163919945000,8.808945068359375,-0.649100452581048,4.434230401435494,0.22882574329767374
1700516163929955000,8.818955078125,1.0047183095693588,-5.47021303331852,1.17764611495845
1700516163939965000,8.82896484375,-2.7033085258603093,-3.5687680023431776,-0.7114044946722686
1700516163949975000,8.83897509765625,-0.7354623927384615,1.257065323305875,0.08499273416344076
1700516163959985000,8.84898486328125,1.8724515762031078,-0.3731698802918196,0.19533073932249098
1700516163969995000,8.8589951171875,0.756394121608138,-5.316631075847148,-1.1568685537371783
1700516163980005000,8.869005126953125,-3.4211399848401545,-3.00781666559726,-0.8271579490087926
1700516163990015000,8.879014892578125,2.7900948289096354,3.953143167260289,0.15618803005022927
1700516164000024800,8.88902490234375,5.013644154328108,-4.716979129306972,-0.38503066968377675
1700516164010034700,8.89903466796875,-0.4202671470314264,-4.686300790187716,-1.007944285878539
1700516164020044800,8.909044921875,-0.28469080184996126,-0.39717414847463367,-0.1093063240237534
1700516164030055000,8.919054931640625,3.988468163141608,1.6025475707270205,0.15095317987035958
1700516164040064800,8.929064697265625,-1.442177414420247,-4.107955251048505,2.636603472331166
1700516164050075000,8.939074951171875,-4.919357266390324,-3.0269004285126924,-0.2580082543686032
1700516164060086000,8.9490859375,-0.6248515619874,1.7549311121940612,-0.6310850495494902
1700516164070096100,8.95909619140625,2.351775892359018,-4.29989295039922,-0.33567886548303066
1700516164080106000,8.96910595703125,-0.4307113841563463,-2.012642283312231,-2.196104561392963
1700516164090116000,8.9791162109375,2.76634453548789,0.5445709875702858,-0.8619717804975807
1700516164100126000,8.9891259765625,2.870874585020542,-3.3520249475598334,0.18197602157834916
1700516164110135800,8.9991357421875,1.170315114483237,-0.38659401001036164,-0.8747743442516773
1700516164120146000,9.00914599609375,0.9396429030686616,-2.46667536021471,-0.0939952845800668
1700516164130155800,9.01915576171875,1.5714531981527804,1.0843320906408132,-0.5654619825707748
1700516164140166000,9.029165771484376,2.7227327727764843,-2.4322921752281483,0.4443366624701768
1700516164150175700,9.03917578125,-1.8535072217583655,-2.89438668577224,-0.11555652525862678
1700516164160185900,9.049185791015624,-2.665813784724474,2.577809045796096,1.9571864996805786
1700516164170195700,9.05919580078125,-3.3550819970428942,-3.9492759704381224,1.2427034743458032
1700516164180205800,9.069205810546874,-2.5508944431245326,-1.4935371609099208,-0.9707698627382516
1700516164190216000,9.0792158203125,-0.31045009700655934,-2.5307781222909687,0.8952429856542498
1700516164200225800,9.089225830078124,-0.06761924576461315,1.3928576493255793,-2.122124840685725
1700516164210237000,9.09923681640625,1.5558973171025514,-2.4572134121254083,-1.1069286109175533
1700516164220247000,9.1092470703125,-1.6109832445085048,-4.843792030057311,-0.9528561665154993
1700516164230257000,9.1192568359375,2.4764041425466536,3.6099282802492376,-1.2556867284290492
1700516164240266800,9.129266845703125,4.622095152258873,-3.897641060268879,0.5281711299765854
1700516164250276900,9.13927685546875,-0.28557109181582924,-3.2934523470818995,-2.3289191867761314
1700516164260286700,9.14928662109375,-0.4886351653367281,-0.4246849634736776,0.808605078099668
1700516164270296800,9.159296875,0.34573651444315906,1.3022281148515642,0.9066971304740756
1700516164280307000,9.169306884765625,1.1642740807533263,-4.279474724009633,0.9849975639246403
1700516164290316800,9.17931689453125,-1.9166952070772647,-2.6322335866838693,-0.24687872012695297
1700516164300327000,9.189326904296875,3.776023097813129,3.4349329478710886,-0.050606699632667
1700516164310336800,9.199336669921875,4.730634437432885,-3.762693076118827,0.31056101003512737
1700516164320347000,9.209346923828125,0.4180997398644685,-5.106295550018548,-1.9956563694588838
1700516164330356700,9.219356689453125,-2.5210668756157157,0.6462948936410248,1.1587566325061023
1700516164340366800,9.229366943359375,1.3055559441000222,0.9300063290648162,-0.3290902078077197
1700516164350377700,9.239377685546875,-0.5983756429940462,-2.731082960231602,0.6541831626728176
1700516164360387800,9.249387939453126,-3.685367259854078,-2.7939193556338546,0.06826934370379895
1700516164370397700,9.259397705078126,0.7904787620395421,1.7445792295277118,0.41884909692704675
1700516164380407800,9.26940771484375,2.369585105293989,-3.089572281002998,0.1592357819819823
1700516164390418000,9.27941796875,-0.35734570369422436,-3.094514413580298,-0.5570702209962531
1700516164400427800,9.289427734375,-2.32187584413588,-1.4701944253757595,1.110963346326351
1700516164410438000,9.29943798828125,-1.8335715181887149,-0.7039657229736447,-0.9918334012940525
1700516164420447700,9.30944775390625,-0.5141694195657969,-1.650144165290892,-0.35381562987193466
1700516164430457900,9.319457763671876,-1.2808441121697425,-4.248889908392727,0.7082125667631626
1700516164440467700,9.3294677734375,1.0886118137866259,3.1047803715288635,-0.9703142279252409
1700516164450477800,9.339477783203124,3.7194852180331943,-4.93642881270051,0.6489362749952823
1700516164460488000,9.349488037109374,-1.2601906157195568,-3.4267636699408293,-1.7421590166434644
1700516164470498800,9.359498779296874,0.3272983559548855,2.1118336021654307,0.9441161760251968
1700516164480509000,9.369509033203125,2.4143594820439813,-2.193508553550392,0.4267440514279529
1700516164490518800,9.379518798828125,0.5039344412773847,-3.873721840021014,-1.6934969848051666
1700516164500529000,9.38952880859375,-1.9286130238860844,-0.9695856213897466,1.8539893061868846
1700516164510538800,9.399538818359375,4.533628933298588,2.7258485667094585,-0.08667612067312001
1700516164520548900,9.409548828125,3.0342654043227433,-4.13897085929811,0.17857940140999853
1700516164530558700,9.419558837890625,-3.366304232802987,-2.4917016649216412,-1.4534024266593157
1700516164540568800,9.42956884765625,-2.098409034055471,0.8676360898695885,1.640402377346903
1700516164550579000,9.439578857421875,2.1539093874812125,-2.0549771579556166,-0.6089891357386484
1700516164560588800,9.4495888671875,-0.0729237819135189,-1.5793251005716622,-1.6891664082549511
1700516164570599000,9.459598876953125,0.15916180343031883,-3.164163119345903,1.2525441926196217
1700516164580609800,9.46960986328125,2.6449375854343176,1.6232574735395608,-0.8374978489764034
1700516164590620000,9.479619873046875,0.9666524905472993,-2.0689539531208574,1.0270287794463335
1700516164600629800,9.489629638671875,-4.739328031498194,-4.121912756991386,-0.6709127636775374
1700516164610640000,9.499639892578125,-0.7526140185475348,3.0663147395342585,1.16866639742814
1700516164620649700,9.509649658203125,1.4594430219978094,-2.7671564363926646,2.5853426561713215
1700516164630659800,9.519659912109375,-1.4404846390277146,-4.709235675573349,-1.2011376113135368
1700516164640669700,9.529669677734375,-4.0152649846524,0.8915085483662784,2.414546090657264
1700516164650679800,9.5396796875,-1.739410886979103,-0.40750162735208867,-0.047314708882570264
1700516164660690000,9.54968994140625,1.011396472159028,-4.965594701430201,-1.5331221523232756
1700516164670699800,9.55969970703125,0.5843628997325897,1.3630109387248754,0.4905042471442371
1700516164680710000,9.5697099609375,3.5309470979928967,-0.381040321405977,-0.2791753994293511
1700516164690720800,9.579720703125,0.6792793177455664,-4.695971120330691,1.0251688307933509
1700516164700731000,9.58973095703125,-1.558462199154496,-0.6214758019439875,-0.7669840508140623
1700516164710740700,9.59974072265625,-4.271730393493176,-1.2497799886032939,3.6206077874347566
1700516164720750800,9.609750732421874,-0.7037672777920961,1.4228177571728824,0.13883151105251162
1700516164730760700,9.6197607421875,0.9947978040575981,-2.2586210771910844,1.2575694734357297
1700516164740770800,9.629770751953124,-0.8311988949626684,-3.9136674814403056,-0.3373763535832986
1700516164750781000,9.639781005859374,1.9730390255898236,3.051329059587419,-0.19618121867198496
1700516164760790800,9.649790771484374,2.9318577537715433,-2.67077257617563,0.4448086273634806
1700516164770801000,9.65980078125,-0.1491980432987213,-5.078908361399173,-2.1337090416260063
1700516164780810800,9.669810791015625,-1.651889839914441,2.1608814184509217,1.4994278263837097
1700516164790820900,9.67982080078125,3.11385098221302,0.7354711605668067,0.9218668617509305
1700516164800831700,9.689831787109375,2.5306968737483024,-4.597100411733985,-0.2418676322329789
1700516164810841900,9.699841796875,-1.814169483104348,-1.4136280501537024,0.9413849244304001
1700516164820851700,9.709851806640625,1.3957681299448013,2.3170127681441604,1.8172566354647277
1700516164830861800,9.71986181640625,1.3007891680896282,-2.3652678266167637,0.8655781344264745
1700516164840872000,9.729871826171875,-0.7683914333939552,-2.724380539983511,-0.9295989903729408
1700516164850881800,9.7398818359375,0.2729974414467811,-0.05930003796964883,1.8297754869066178
1700516164860892000,9.749891845703125,2.681960617405176,0.13727555031478403,0.9924350935142486
1700516164870901800,9.75990185546875,1.3514023339956998,-3.110316962867975,-0.5812457175601273
1700516164880912000,9.769911865234375,-3.5275510258138176,-3.133495301620662,-0.39951062859818337
1700516164890921500,9.77992138671875,-2.0589380244106055,3.760247144271433,0.9617302317142487
1700516164900932600,9.7899326171875,-0.10497136355936526,-4.527569779390096,1.3236512804999947
1700516164910942500,9.7999423828125,-3.3214702348202465,-2.1333367011822757,-4.095570401249826
1700516164920952600,9.80995263671875,-1.491823781120777,1.7555977594092487,3.5618799963951107
1700516164930962700,9.819962646484376,2.2220675624281165,-3.433004025635123,-0.17987411739565431
1700516164940972500,9.82997265625,0.046076106998324394,-1.356127170560509,-1.6053770950645208
1700516164950982700,9.839982666015626,0.05002572140693664,-2.1084049428910014,2.2530634430639442
1700516164960992500,9.849992431640626,2.1630554014891383,1.4127721639767288,0.6298628142781555
1700516164971002600,9.860002685546876,1.3177245207995176,-2.4908970705404876,1.2124645495571196
1700516164981012500,9.870012451171876,0.9895277547001838,-3.8025764659568666,-1.746199524205923
1700516164991023600,9.880023681640624,1.32012573672235,1.7990107846781611,1.7003139713436364
1700516165001033500,9.890033447265624,3.4002328058898446,0.8363140460193157,0.899933554623276
1700516165011043600,9.900043701171874,-2.3809102169066665,-4.955682379224896,-0.8709914647120982
1700516165021053400,9.910053466796874,-2.137322994339466,-0.6144120010375976,-1.5409519691661
1700516165031063600,9.9200634765625,5.5042532500863075,3.4969857916802165,1.1753824808754025
1700516165041073700,9.93007373046875,3.199202868545055,-3.213815623526275,-0.5996219167280942
1700516165051083500,9.94008349609375,3.7129216217339036,-3.722650988587737,-2.0639695888370273
1700516165061093600,9.95009375,-0.783285635665059,0.30547713089957834,0.9283930486492812
1700516165071103500,9.960103515625,4.30159829301238,0.184446320682019,0.1586587492790073
1700516165081114600,9.970114501953125,0.8681810104012488,-1.8913629051610827,0.31879085904620585
1700516165091124500,9.98012451171875,1.0697492924064398,-2.780031407795846,0.5680215673930943
1700516165101134600,9.990134521484375,2.516767717117071,1.6799354924425483,0.47901568859815596
1700516165111144400,10.00014453125,-1.490235050624609,-2.3083137672513723,1.018684144949168
1700516165121154600,10.010154541015625,-5.256951390910149,-4.351832104212045,-2.0790759725540875
1700516165131164700,10.02016455078125,-1.933606594389677,3.1384122997567054,2.587964821368456
1700516165141174500,10.030174560546875,2.7506121288269756,-1.9118933597534893,0.44955443365108216
1700516165151184600,10.0401845703125,-0.6920750864326953,-3.6992894022226332,-0.672324895497784
1700516165161194500,10.050194580078125,-3.756571378368139,-1.9898408150479197,1.8156449624843893
1700516165171205600,10.06020556640625,-1.0924790106087923,1.4678474238581956,-0.21056853086687624
1700516165181215500,10.070215576171876,1.3631599918067454,-3.0107825296655295,2.010007697024941
1700516165191225600,10.0802255859375,1.0045306780427694,-3.964332962055504,-1.0012857047721744
1700516165201235500,10.0902353515625,1.7039023512244225,2.8485680606663224,0.05439692222848534
1700516165211245600,10.10024560546875,2.847108509507775,-3.272745659139752,0.8706840792633592
1700516165221255400,10.11025537109375,-0.8383616261988878,-3.487219599947333,-2.529028063753247
1700516165231265500,10.120265625,-0.6771621794611216,1.907280020739138,3.5223254001200197
1700516165241275600,10.130275634765624,3.413896589583158,-0.6457825602047145,0.800975313873589
1700516165251286500,10.14028662109375,-0.19605156441032887,-3.425212348845601,-0.8933511074930429
1700516165261296400,10.15029638671875,-3.612197394225001,-2.653985399764776,0.21932028486020863
1700516165271306500,10.160306396484375,0.3989139778792858,2.949643001309037,0.8009276022743433
1700516165281316600,10.170316650390625,2.2659195636361837,-0.6220196995623409,0.6245711376108228
1700516165291326500,10.180326416015625,-1.738138967347145,-5.440649085181951,-2.1692750066563486
1700516165301336600,10.190336669921875,-2.162912778148055,2.0525719965100286,1.7345090864121913
1700516165311346400,10.200346435546875,1.0306938778251409,-1.2102955349549651,2.3031810805380344
1700516165321356500,10.2103564453125,1.7137071214020252,-2.457119011840224,-2.130859205152839
1700516165331367700,10.22036767578125,-1.3193752106159924,-0.26616832607910035,1.748235998469591
1700516165341377800,10.230377685546875,1.0310101041674613,-0.08520984751284122,1.1071290288604796
1700516165351387600,10.2403876953125,-0.17300386629998682,-1.788542874416709,-0.5533495930379256
1700516165361397500,10.2503974609375,-3.487472113403678,-2.782008260826766,0.13963888191264123
1700516165371407600,10.26040771484375,-0.8042705560266971,3.1377392228007315,1.8545313041090965
1700516165381417500,10.27041748046875,0.519493829458952,-3.528566924858093,0.5098568901289254
1700516165391427600,10.280427490234375,-4.7413978235095735,-4.379008280429244,-2.474064593683183
1700516165401437400,10.2904375,-2.1563281390607356,2.8930241652473807,3.6590360100284216
1700516165411447600,10.300447509765625,0.41834816166758537,-1.8489461974531411,-0.5113635683648288
1700516165421458700,10.310458740234376,-0.26204408575594423,-2.18610909094885,-2.0165354913584888
1700516165431468800,10.32046875,-1.029380457139015,-1.3947146753691135,1.8904817384123802
1700516165441478700,10.330478759765626,-0.30032910048663614,2.9342519554316997,0.4071712994191795
1700516165451488800,10.34048876953125,1.9464725057035683,-2.9353350744932887,1.483907016646862
1700516165461498600,10.35049853515625,1.9211434186577796,-3.2116309729635715,-1.4064571356110274
1700516165471508500,10.360508544921874,3.653257134366035,1.9184576867051422,1.9347043264985084
1700516165481518600,10.3705185546875,4.130051639783382,-0.3438873794451356,0.7649313560679555
1700516165491529700,10.38052978515625,-1.2911141617715358,-4.6141997228339315,-1.8908051251478493
1700516165501539600,10.39053955078125,-1.8247785554021596,-1.0097237166412174,0.21239406579360365
1700516165511549700,10.4005498046875,3.6990427339851855,3.253302123001218,1.6633626894347369
1700516165521559800,10.410559814453125,3.618868542551994,-0.9715341251090168,-0.6301844474479555
1700516165531569700,10.420569580078125,-1.2384545847296715,-5.923614972710609,-1.6633863625712693
1700516165541579800,10.430579833984375,-2.3063760771870614,-0.19814108403548597,1.4722127794608473
1700516165551589600,10.440589599609375,2.955021771737933,2.586305948245525,0.20729933647047727
1700516165561599700,10.450599853515625,-0.6022334874659776,-4.9231589967608445,-0.47174394402951
1700516165571610600,10.460610595703125,-4.015665966668725,-0.8722219563551247,-1.8991025595024227
1700516165581620700,10.470620849609375,-0.5409083734095096,0.6613565614335238,2.096412307280302
1700516165591630600,10.480630615234375,1.6280226421147583,-0.8578399413898586,-1.1051403392612933
1700516165601640700,10.490640625,-4.645782901838421,-3.278234904205799,-0.08692629604190588
1700516165611650800,10.50065087890625,-1.8513567657262087,1.615559758643806,2.9344381256535645
1700516165621660700,10.51066064453125,2.1940409068614244,-2.328034366765618,1.5127493725106118
1700516165631670800,10.5206708984375,-0.5714999110281467,-2.9778391682237384,-2.4935402785256504
1700516165641681700,10.530681640625,1.0189520021051168,1.117924563641101,2.6115543712705374
1700516165651691800,10.54069189453125,1.996722098994255,0.5894029397264122,-0.48372510839812455
1700516165661701600,10.55070166015625,-0.3043032648146152,-3.669002108247578,-1.002597737218812
1700516165671711700,10.560711669921876,-4.516644480749965,-1.585083371837437,-0.34885252757184204
1700516165681721600,10.5707216796875,0.4809487024873495,1.5481189381860196,0.07372311559766531
1700516165691731700,10.580731689453126,3.911822145834565,-0.4532759749248624,-1.6951935595899819
1700516165701741600,10.590741455078126,1.4735814374655485,-5.680693520575762,-2.3103864818722006
1700516165711752700,10.600752685546874,-2.1255969007104634,1.9190867783889174,0.28509090708345175
1700516165721762600,10.610762451171874,1.6109972730338573,0.9303728242896496,0.4621402493819594
1700516165731772700,10.620772705078124,0.20391338382661342,-2.7571242871999737,-2.7448426055148243
1700516165741782800,10.63078271484375,-1.2495306900173424,-2.556708682361245,-1.123299900003895
1700516165751792600,10.640792724609375,0.2746627443104982,3.54220557411015,1.4562857270106673
1700516165761802800,10.650802734375,0.7784183218896389,-2.2257269617184994,0.8805948670987039
1700516165771812600,10.6608125,-2.6914094137519595,-3.442616488111019,-0.9384444870643317
1700516165781823700,10.67082373046875,-1.4194050261199473,2.428044162394851,2.5586983948737383
1700516165791833600,10.68083349609375,3.527405479863286,-1.9826601097635923,1.0135000203095377
1700516165801843700,10.69084375,-0.38782384406626225,-2.4770509160175918,-1.5962508086703717
1700516165811853600,10.700853515625,-3.27327172884047,-1.1415019847139716,2.0423355569168926
1700516165821863700,10.71086376953125,0.3522925119578838,2.7904446652606127,-1.2814901549883186
1700516165831873500,10.72087353515625,1.2785282364428043,-3.2600767317026853,-0.7179422258779407
1700516165841883600,10.730883544921875,-2.3056027547270057,-3.3884126042366027,-3.072421824237704
1700516165851894500,10.74089453125,0.6856698955655097,3.262738644388318,1.1058650002740322
1700516165861904600,10.750904541015625,1.798046615821123,-2.968211508178711,-1.5779790927901862
1700516165871914800,10.760914794921876,0.5361532878369093,-2.7462632859677076,-1.5447279805734753
1700516165881924600,10.770924560546876,-2.687894683629274,-1.3675063504479825,0.9378436716269701
1700516165891934500,10.7809345703125,0.6732441292345523,4.346160488316417,-0.8619878548495471
1700516165901944300,10.7909443359375,2.0053373671263457,-3.862748026064038,1.6670901855252682
1700516165911954400,10.800954345703126,-1.6032009200692177,-3.638909460061788,-1.7343832680754363
1700516165921965300,10.81096533203125,-0.7632423800677061,4.534202933794259,1.4278922839581965
1700516165931975400,10.820975341796874,1.829897213590145,-2.3627581818833945,0.5048340935308486
1700516165941985300,10.8309853515625,-1.7727110990345476,-2.6237565579786897,-3.549910157138109
1700516165951995400,10.840995361328124,-1.7400620443642139,-0.6581137801200151,2.6194202823400494
1700516165962005500,10.851005615234374,2.7621961836367843,1.322995008548349,-1.0952932643119244
1700516165972015400,10.861015380859374,1.8811615368813275,-1.9391474235124886,-1.729162756948173
1700516165982025500,10.871025390625,-3.3871775094836947,-2.4886820248395205,-0.8084159122031181
1700516165992036400,10.881036376953125,1.1353823327898978,4.560355027660727,0.2864563502177596
1700516166002046500,10.89104638671875,3.3082489341974255,-4.650628588303923,-0.7046236754257231
1700516166012056300,10.901056396484375,0.3674859894365072,-1.0732179914303124,-2.229989587599039
1700516166022066400,10.91106640625,-1.4821820925503968,-2.032414466883242,1.2815318021729587
1700516166032076300,10.921076171875,1.5352122564703226,3.9091780610665676,-2.4720386408135293
1700516166042086400,10.93108642578125,1.8423633119314908,-5.297608395469188,1.5030816727161407
1700516166052097300,10.94109716796875,-0.33861879139244555,-1.0964490832835436,-2.2495400912433863
1700516166062107400,10.951107421875,1.7165432216107843,4.542202992637455,0.7604678738530725
1700516166072117200,10.9611171875,3.1435692441284653,-2.7492066459432243,-0.1543164822909981
1700516166082127400,10.97112744140625,-1.5681728613078594,-4.034781586027145,-2.3702749872542914
1700516166092137200,10.98113720703125,-0.48169162980914115,1.0663967671081422,0.4942451872382313
1700516166102147300,10.991147216796875,2.0009645588696,2.031138747859001,-0.3784675483085215
1700516166112157400,11.001157470703125,-1.1116472369372845,-4.20609209241271,-0.7467446881227194
1700516166122168300,11.011168212890626,-3.9482238310366866,-0.6657422291718423,-0.5956940026946366
1700516166132178400,11.021178466796876,-0.15209610282778738,2.4624971977472305,1.9588709456361828
1700516166142188300,11.031188232421876,1.349725340694189,-2.817710273326933,-1.3242841715760527
1700516166152198400,11.041198486328126,-3.634634266960621,-2.013226220680028,-1.5794687468260526
1700516166162208300,11.051208251953126,-1.3585147963494062,0.5355009614080191,0.605585647438094
1700516166172218400,11.06121826171875,2.059393366962671,0.7690444904752075,-1.2702519910067318
1700516166182229200,11.071229248046874,2.9255057543963194,-5.933071952363848,-2.8827310270309447
1700516166192239400,11.0812392578125,-2.4860259573727843,1.8942913598284123,-0.6712536130044608
1700516166202249200,11.091249267578124,-0.9547212297350167,-0.03289309255927801,-1.4785332146540284
1700516166212259300,11.10125927734375,0.7507184140592813,-2.4014352646715937,-0.9473721821464598
1700516166222269200,11.111269287109375,1.8539777618795632,-2.42704360705018,-1.811954875794798
1700516166232279300,11.121279296875,2.0078455505549906,1.4801565780721604,0.26373434039782734
1700516166242290200,11.131290283203125,5.531058254903555,2.6702769016131755,-1.0544425638116897
1700516166252300300,11.14130029296875,-1.696250959688425,-7.951814159986376,-0.1425781137023121
1700516166262310100,11.15131005859375,-2.4712252786040305,0.19295958974435926,-0.883658930844441
1700516166272320300,11.1613203125,0.8298615088790655,5.6545466874063015,0.2754172890048474
1700516166282330400,11.171330322265625,0.6502262417405843,-3.2840690171867606,0.26039913156051187
1700516166292340200,11.18134033203125,-1.386218211311102,-2.2060233133390543,-1.8490235004730522
1700516166302351400,11.191351318359375,-0.599603138962388,1.4800152699053286,1.376639066582918
1700516166312361500,11.201361572265625,3.3711358907431364,-0.35557241041138765,-0.5809032973306253
1700516166322371600,11.21137158203125,-1.7164549588054419,-2.5219535953223704,-4.213780016566813
1700516166332381400,11.22138134765625,-3.96627094438076,-0.5502183458074927,1.3727042113520205
1700516166342391300,11.231391357421876,2.3274890078425408,0.7652130956187844,-2.49280407320559
1700516166352401200,11.241401123046876,0.3561895193964243,-3.513007244415581,-3.0210157543882725
1700516166362412500,11.25141259765625,-3.300499342983961,-1.1361628156431018,-0.6778137752376496
1700516166372422400,11.26142236328125,0.9972066187649965,3.169988172237575,-0.6257492414794862
1700516166382432500,11.2714326171875,1.6012702442675828,-4.78292781151086,-0.8266671698171645
1700516166392442400,11.2814423828125,-1.4933260023772716,-1.8509921701975165,-2.235499144800752
1700516166402452500,11.291452392578124,-1.4372697686344384,-0.16438596781939266,0.5782989235185086
1700516166412462600,11.301462646484374,1.7778046227812765,3.0986352929025887,-1.1982198241706936
1700516166422473500,11.311473388671875,1.277670742830634,-5.38087821483016,-0.4096952284062281
1700516166432483300,11.3214833984375,-1.4338485620141028,0.5714277225747704,-1.0643995288763195
1700516166442493400,11.331493408203125,0.9056009327352046,4.136531357191503,-0.7080472931988537
1700516166452503600,11.341503662109375,2.274545937684178,-4.291301355403662,-0.16618004816193133
1700516166462513400,11.351513427734375,-0.17557167096138,-1.111697359689325,-2.032187380129099
1700516166472523500,11.3615234375,1.545968628284335,2.3386422700196503,-0.20651783070396632
1700516166482534400,11.371534423828125,1.7226432920515535,-0.6625311581708491,-0.13036821861173956
1700516166492544500,11.38154443359375,-0.3494038047790527,-4.418442172934115,-2.7265385948002336
1700516166502554400,11.391554443359375,0.1053618241816759,0.9141209237992763,-0.8986782207999378
1700516166512564500,11.401564453125,3.6246114701181646,2.76562645034641,-1.7508603556238114
1700516166522574300,11.41157421875,1.7193483421593903,-4.763064296394586,-1.4262711124971508
1700516166532584400,11.42158447265625,-2.5610604478299615,-3.5468051768600937,-1.711461680562794
1700516166542595300,11.43159521484375,-0.4971113172590732,4.625397116413712,-0.988118326293677
1700516166552605400,11.44160546875,2.428075288185477,-3.1291426593691107,0.2663409792322665
1700516166562615300,11.451615234375,-1.9397054957866668,-1.910720808842778,-3.026369098114967
1700516166572625400,11.46162548828125,-2.2718203121125695,-1.5521321193501352,0.23650197701398282
1700516166582635500,11.471635498046876,1.6928052031487226,3.0639439187496897,-1.3033673480145633
1700516166592646400,11.481646484375,1.4799240844905375,-3.101158089378476,-0.2247424195067957
1700516166602656300,11.49165625,-3.5940444824188944,-2.6015257292091847,-1.1005514040358364
1700516166612666400,11.501666259765624,0.22278701112270355,3.2830759144961834,-0.047480238175205886
1700516166622676500,11.511676513671874,3.4195062461584804,-2.6321377250939606,0.9270435337364673
1700516166632686300,11.521686279296874,-0.1327595341950655,-2.1076652304396033,-3.052031947159767
1700516166642696400,11.531696533203124,0.3545323998391628,0.3103755704656243,0.12379917895235121
1700516166652707300,11.541707275390625,1.6850743166357278,1.5530547871530056,-1.3373966049969195
1700516166662717400,11.551717529296875,-0.7139619240701198,-4.618690019990503,-2.038035521635413
1700516166672727300,11.561727294921875,-3.0158821908921003,-0.025169220308959482,-1.0262268154136835
1700516166682737400,11.5717373046875,1.7139111195415258,3.5041739496186373,-1.199823167714104
1700516166692747300,11.581747314453125,0.2648176421225071,-4.201268325518072,-1.076517544432357
1700516166702757400,11.59175732421875,-3.18602657610774,-3.396590357734263,-1.8163821907177566
1700516166712768300,11.601768310546875,-0.4992261174559593,3.7064416120648382,-0.563372207217291
1700516166722778400,11.6117783203125,1.9893641374468802,-2.4977456212610005,-0.25374508049879224
1700516166732788200,11.621788330078125,1.7913953412383794,-2.37647033476308,-2.2484578489646316
1700516166742798300,11.63179833984375,-1.0754513034403324,-0.11697042891085146,0.08710647491440177
1700516166752808400,11.641808349609375,-0.41625674234628673,3.73963544113636,-1.1579252231832593
1700516166762819300,11.6518193359375,2.506115390199423,-4.686249936783313,0.11796155884005129
1700516166772829200,11.6618291015625,-1.6772008067816495,0.4169999619290232,-1.240593788715452
1700516166782839300,11.67183935546875,1.397823893430829,2.2683785010956226,0.23846659161783754
1700516166792849400,11.681849365234376,0.8863830220460891,-2.7409128648504613,-0.6526254118368029
1700516166802859300,11.691859375,-0.9021505000203848,-2.2909214645542204,-2.841531001636386
1700516166812869400,11.701869384765626,-1.5371797571510075,0.43619609917774793,0.5909631017152219
1700516166822880300,11.71188037109375,0.29417174690067766,2.3482195150516927,-2.0241706624120472
1700516166832890400,11.721890380859374,1.337267425659299,-4.9111505790591234,-0.9854776755917817
1700516166842900200,11.731900146484374,-3.775264388400316,-0.6439530066899954,-1.4964527560956775
1700516166852910300,11.741910400390625,-0.5621890618473291,3.666407707840204,-1.201942424890399
1700516166862920200,11.751920166015625,0.3744663498431444,-4.427487064655125,0.3554192291436717
1700516166872931600,11.761931640625,-3.2492163149923083,-2.9087089333742857,-1.9048419799372553
1700516166882941400,11.77194140625,0.24292554378807543,2.0854624587208033,-0.2522231681611389
1700516166892951800,11.781951904296875,1.533379780346155,-0.7622535151608287,-0.3409538467438891
1700516166902961700,11.791961669921875,-0.0047404725253582,-2.478290102423727,-1.2085083592772483
1700516166912971800,11.8019716796875,-2.171927859252691,-0.8374930266708135,0.19000753500573336
1700516166922982700,11.811982666015625,0.8813508730977773,4.166970042335987,-0.41962333270255475
1700516166932992800,11.82199267578125,2.6797271592646834,-4.38832205221951,0.5375687806580215
1700516166943002600,11.832002685546875,0.3243903595536947,-0.3827246212311089,-1.2294191914893686
1700516166953012700,11.8420126953125,0.0996978070706129,1.2753922765046357,1.2348137440092861
1700516166963022600,11.852022705078125,1.0426485195130109,-0.40130335723385213,-1.2482123008951544
1700516166973032700,11.86203271484375,0.004741641569137573,-3.1276696642071005,-1.318907885365188
1700516166983043600,11.872043701171876,-1.4841396563589573,0.7280474403068423,-0.9455336416076868
1700516166993053700,11.8820537109375,-1.1685206322818993,2.370971298955381,-3.6509815906494856
1700516167003063600,11.8920634765625,-1.4619646494299172,-4.513570480132103,-0.6163673728890716
1700516167013073700,11.90207373046875,-3.9239176572978494,-1.1435540949381888,-3.1435493703842163
1700516167023083800,11.912083740234374,0.5686924523919821,3.954081032632291,-0.7109698295820503
1700516167033094700,11.9220947265625,2.8297166452020406,-3.320176980139315,-0.04037522847559303
1700516167043104800,11.932104736328125,-0.957134136095643,-2.630044259946048,-1.7144418654173612
1700516167053114600,11.942114501953125,-0.8722977980703115,2.0157371805876494,2.4075629537716505
1700516167063124700,11.952124755859375,0.2736024216026068,-0.11107245691344142,1.43648358669281
1700516167073134600,11.962134521484375,1.87561793127954,-3.0407986054837703,-0.12289883257914334
1700516167083145700,11.972145751953125,0.3634861061453819,0.7998910257682204,2.00631761033535
1700516167093155600,11.982155517578125,1.6510335153460503,3.1693311696335673,-0.4868889427239075
1700516167103165700,11.992165771484375,0.7656038485020399,-4.174874824111163,-1.0368724203296005
1700516167113175600,12.002175537109375,-2.3890327330857515,-2.3042538243360817,-3.6420591562643647
1700516167123185700,12.012185546875,-0.8906944555044174,3.612018822787702,-2.3596352275572716
1700516167133196500,12.022196533203125,1.4368091653853654,-0.8216799559891224,-2.1146736478969452
1700516167143206700,12.03220654296875,0.1389642340540886,-4.628116896766424,-2.705531170345843
1700516167153216500,12.042216552734375,-1.6386813987731932,1.9664814206399022,-0.7198891221620142
1700516167163226600,12.0522265625,0.2349444819062948,1.8201143629834056,-0.0016870032388716935
1700516167173236700,12.06223681640625,1.4521885208249092,-2.8699878653138873,1.616066831383109
1700516167183247600,12.07224755859375,-1.377584823000431,-2.3688575216718015,0.39219665232300754
1700516167193257500,12.082257568359376,2.4101731362700463,5.416381489887833,1.406865278020501
1700516167203267600,12.092267578125,2.3244623534977435,-4.9087148763448,2.096929463022202
1700516167213277700,12.102277587890624,-3.6210423794597384,-1.6064894402205943,-1.5193144301146269
1700516167223287600,12.11228759765625,-0.8463736677408218,1.6975336929753422,1.6109490499779582
1700516167233297700,12.122297607421874,0.6217144330054521,0.3770901224754751,-1.2367106636717915
1700516167243308500,12.13230859375,0.01312602355480194,-3.6655043292596936,-3.2555887726336716
1700516167253318700,12.142318603515625,-2.2167881607204674,0.5564088710106909,-0.5725952319841832
1700516167263328500,12.15232861328125,0.2966770077198744,1.89247305836007,-2.534075410270691
1700516167273338600,12.162338623046875,1.1127473071336746,-2.694728621302545,0.0784257403306663
1700516167283348500,12.172348388671875,-2.59177999574244,-2.6065128699719904,-1.3349096104867755
1700516167293359600,12.182359619140625,1.9770973610699176,4.558113386213779,-0.24498510666638612
1700516167303369500,12.192369384765625,4.281858988797665,-2.531914725105464,0.9960772494088858
1700516167313379600,12.202379638671875,0.7663274866014719,-2.8003070108443495,-0.3072458941377699
1700516167323389400,12.212389404296875,-2.1514105564028023,0.15862974238023161,1.9475597164183853
1700516167333399600,12.222399658203125,2.195744203647971,3.6988328906267878,-1.198395326868072
1700516167343410700,12.23241064453125,3.1293893276065585,-4.079408078739047,-0.07528780763112009
1700516167353420800,12.2424208984375,-0.8515016782790422,0.03193593796491623,0.5427341275319457
1700516167363430700,12.2524306640625,0.42924598777890205,2.366252453739941,-0.6224731424182653
1700516167373440500,12.2624404296875,-0.25209669223725795,-2.3744296227157116,0.3050137511715293
1700516167383450600,12.27245068359375,-2.8416642726272343,-1.4183717375494538,-1.4636384278610348
1700516167393461800,12.282461669921876,-0.2968734070748091,3.046390726402402,0.43263241534680125
1700516167403471600,12.2924716796875,0.49142333475053307,-2.478213822317123,-0.2950224454458803
1700516167413481700,12.302481689453124,-1.1888520571708678,-2.9516765529632565,-1.3503840968638658
1700516167423491800,12.312491943359374,-0.9537257889568805,0.8269204869911074,2.323164276511222
1700516167433502700,12.322502685546874,-0.20821663397848605,2.143195978026092,0.3850532103091478
1700516167443512600,12.3325126953125,1.8110937289208173,-3.914082199721038,-0.21814999897181986
1700516167453522700,12.342522705078125,0.7392109316170216,0.47263723960742354,0.6517493596546352
1700516167463532800,12.35253271484375,3.966226520717144,3.824472363683581,-0.10738237022385
1700516167473542700,12.362542724609375,2.5005957499951124,-3.340915232263505,1.3464733531609177
1700516167483553500,12.372553466796875,-2.0997242083072662,-2.9723332642838356,-1.8829897752217948
1700516167493563600,12.382563720703125,-2.8497318437486885,3.368627999575436,1.437646346861869
1700516167503573800,12.39257373046875,-0.0674298606723547,-1.5453560493439435,0.45896834134757514
1700516167513583600,12.40258349609375,-1.4815642529129982,-2.1789121651820835,-0.9125039170566945
1700516167523593700,12.41259375,-2.4234978972673415,0.701366207999736,0.5238036554820835
1700516167533604600,12.4226044921875,-0.5698550664305687,2.072156402423978,0.5238341967508197
1700516167543614700,12.43261474609375,1.1470733551055192,-3.233381032478809,0.5053837633028626
1700516167553624600,12.44262451171875,-2.9928391689568756,0.10895444184616207,0.7451837224163115
1700516167563634700,12.452634765625,-1.2095949854701757,3.0762606717482206,0.17726525007151067
1700516167573644500,12.46264453125,0.7404056943595408,-3.584218669453263,2.390859656251967
1700516167583655700,12.47265576171875,-0.6259551393151283,-2.025763192300498,-1.0790995968148112
1700516167593665500,12.48266552734375,2.219838195940852,3.906873875777423,0.9281771408762782
1700516167603675600,12.492675537109376,2.432376200249791,-2.458539984554052,-0.47191097115948794
1700516167613685500,12.502685546875,1.9219167411178348,-2.6439690326631067,-1.966124716156721
1700516167623695600,12.512695556640624,-2.862900537401438,0.6435965944677591,0.3543989096526056
1700516167633706500,12.52270654296875,0.5976257014095783,3.3868086761713028,-0.09041326137483119
1700516167643716600,12.532716552734374,2.0779835011422634,-3.0169302386403083,0.42935470885038374
1700516167653726500,12.5427265625,0.13989946907758713,0.472591646900028,-0.5326954024679958
1700516167663736600,12.552736572265625,2.5081150395840406,4.509799144899845,1.7436140377573668
1700516167673746700,12.56274658203125,0.563877161064744,-4.863843761222064,2.514343412579596
1700516167683757600,12.572757568359375,-3.278499692621827,-0.4979657421313226,-0.7207279841389507
