time,seconds_elapsed,z,y,x
1700516155126458000,0.0154580078125,-0.9053955078125,-0.0327911376953125,0.011199951171875
1700516155136468200,0.02546826171875,-0.92181396484375,-0.3968048095703125,0.0818634033203125
1700516155146477300,0.035477294921875,-1.132080078125,-0.03948974609375,0.0278778076171875
1700516155156486400,0.045486328125,-0.991729736328125,-0.103240966796875,0.1015472412109375
1700516155166495200,0.0554951171875,-0.9468994140625,-0.20001220703125,0.0467681884765625
1700516155176505300,0.06550537109375,-1.0185394287109375,-0.111358642578125,0.0459442138671875
1700516155186514200,0.07551416015625,-0.8774871826171875,-0.1902008056640625,0.0442657470703125
1700516155196523300,0.085523193359375,-1.072601318359375,-0.1650543212890625,0.0753326416015625
1700516155206533000,0.095533203125,-1.015899658203125,-0.0708160400390625,0.0681915283203125
1700516155216542200,0.105542236328125,-0.9008636474609375,-0.0223236083984375,0.0132293701171875
1700516155226551300,0.11555126953125,-0.9053497314453125,-0.391143798828125,0.0868377685546875
1700516155236561400,0.1255615234375,-1.14990234375,-0.02825927734375,0.03436279296875
1700516155246570200,0.1355703125,-0.994415283203125,-0.105560302734375,0.112701416015625
1700516155256579000,0.1455791015625,-0.93829345703125,-0.2045135498046875,0.0524139404296875
1700516155266589200,0.155589111328125,-1.0400238037109375,-0.0616455078125,0.0444793701171875
1700516155276598300,0.165598388671875,-0.8545074462890625,-0.217071533203125,0.0470123291015625
1700516155286607400,0.175607421875,-1.0980987548828125,-0.16741943359375,0.0804290771484375
1700516155296617200,0.1856171875,-1.0075225830078125,-0.0553741455078125,0.0694732666015625
1700516155306626300,0.195626220703125,-0.888397216796875,-0.021697998046875,-0.003265380859375
1700516155316635100,0.20563525390625,-0.921051025390625,-0.404388427734375,0.04974365234375
1700516155326644200,0.215644287109375,-1.1666107177734375,-0.0399322509765625,0.0445404052734375
1700516155336654000,0.225654052734375,-0.9436187744140625,-0.1095733642578125,0.0749664306640625
1700516155346663200,0.2356630859375,-0.9763336181640625,-0.2029266357421875,0.0444488525390625
1700516155356672300,0.24567236328125,-1.064422607421875,-0.0651397705078125,0.0289154052734375
1700516155366682400,0.255682373046875,-0.85858154296875,-0.22332763671875,0.0266876220703125
1700516155376691500,0.26569140625,-1.0759124755859375,-0.164825439453125,0.0714874267578125
1700516155386700000,0.275699951171875,-1.00982666015625,-0.0323028564453125,0.0518341064453125
1700516155396710100,0.285710205078125,-0.8809967041015625,-0.06683349609375,0.00189208984375
1700516155406719200,0.29571923828125,-0.9457244873046875,-0.391815185546875,0.068756103515625
1700516155416728300,0.305728271484375,-1.17193603515625,0.010406494140625,0.030303955078125
1700516155426738200,0.31573828125,-0.95208740234375,-0.108612060546875,0.0810699462890625
1700516155436747300,0.325747314453125,-0.976531982421875,-0.2249908447265625,0.07562255859375
1700516155446756400,0.33575634765625,-1.0035400390625,-0.079193115234375,0.01885986328125
1700516155456766200,0.34576611328125,-0.890472412109375,-0.2149200439453125,0.0511627197265625
1700516155466775300,0.355775390625,-1.1067657470703125,-0.145050048828125,0.07159423828125
1700516155476784000,0.3657841796875,-0.994232177734375,-0.0196685791015625,0.0488739013671875
1700516155486794200,0.375794189453125,-0.8636932373046875,-0.0902099609375,0.0227203369140625
1700516155496803300,0.38580322265625,-0.9501953125,-0.364349365234375,0.080352783203125
1700516155506812400,0.3958125,-1.178192138671875,0.0282745361328125,0.0401458740234375
1700516155516821200,0.4058212890625,-0.9359130859375,-0.1158905029296875,0.0966339111328125
1700516155526831000,0.4158310546875,-0.9592437744140625,-0.1826171875,0.0535430908203125
1700516155536840200,0.425840087890625,-0.978057861328125,-0.1355133056640625,0.0584869384765625
1700516155546849300,0.435849365234375,-0.9371795654296875,-0.1662139892578125,0.0465850830078125
1700516155556859100,0.445859130859375,-1.10455322265625,-0.1587066650390625,0.104766845703125
1700516155566868200,0.4558681640625,-0.9517822265625,-0.0040130615234375,0.0313873291015625
1700516155576877300,0.465877197265625,-0.8517303466796875,-0.1851806640625,0.0570526123046875
1700516155586887400,0.475887451171875,-1.014068603515625,-0.30523681640625,0.046661376953125
1700516155596896300,0.485896240234375,-1.1699676513671875,-0.0417022705078125,0.0719146728515625
1700516155606905300,0.4959052734375,-0.8590850830078125,-0.114959716796875,0.071075439453125
1700516155616915200,0.505915283203125,-1.0276947021484375,-0.1934814453125,0.051239013671875
1700516155626924300,0.51592431640625,-0.9749908447265625,-0.1493682861328125,0.0521392822265625
1700516155636933400,0.525933349609375,-0.9409942626953125,-0.1686859130859375,0.022003173828125
1700516155646943200,0.535943115234375,-1.1146087646484375,-0.1712188720703125,0.1072845458984375
1700516155656952000,0.5459521484375,-0.963104248046875,0.0359344482421875,-0.0043487548828125
1700516155666961200,0.555961181640625,-0.8636322021484375,-0.2419891357421875,0.0746002197265625
1700516155676971300,0.56597119140625,-1.01873779296875,-0.2811431884765625,0.025299072265625
1700516155686980400,0.57598046875,-1.147613525390625,0.022705078125,0.0791778564453125
1700516155696989200,0.5859892578125,-0.9066314697265625,-0.1659088134765625,0.05682373046875
1700516155706998300,0.595998291015625,-1.001007080078125,-0.15118408203125,0.04571533203125
1700516155717008400,0.60600830078125,-0.9213714599609375,-0.1367950439453125,0.0439300537109375
1700516155727017200,0.616017333984375,-0.986297607421875,-0.17864990234375,0.0319671630859375
1700516155737026300,0.6260263671875,-1.0964508056640625,-0.135833740234375,0.0999755859375
1700516155747036200,0.6360361328125,-0.933135986328125,0.0452728271484375,-0.0110626220703125
1700516155757045200,0.646045166015625,-0.845001220703125,-0.2740631103515625,0.0793609619140625
1700516155767054300,0.656054443359375,-1.0580902099609375,-0.2289886474609375,0.016754150390625
1700516155777064400,0.666064453125,-1.1291656494140625,-0.0059661865234375,0.085052490234375
1700516155787073000,0.676072998046875,-0.88153076171875,-0.144622802734375,0.04522705078125
1700516155797082000,0.68608203125,-1.0406494140625,-0.1460418701171875,0.0533905029296875
1700516155807092200,0.69609228515625,-0.9189605712890625,-0.134613037109375,0.044708251953125
1700516155817101300,0.706101318359375,-0.9840240478515625,-0.19097900390625,0.047149658203125
1700516155827110400,0.7161103515625,-1.1021881103515625,-0.1205902099609375,0.107421875
1700516155837120300,0.726120361328125,-0.9135894775390625,0.0399169921875,-0.0134429931640625
1700516155847129300,0.73612939453125,-0.8542633056640625,-0.3172607421875,0.0953826904296875
1700516155857138200,0.74613818359375,-1.1001434326171875,-0.1892242431640625,0.02496337890625
1700516155867148300,0.756148193359375,-1.1220245361328125,0.0123138427734375,0.090545654296875
1700516155877157000,0.7661572265625,-0.892333984375,-0.1926422119140625,0.0582275390625
1700516155887166200,0.776166259765625,-1.027679443359375,-0.1333160400390625,0.0615234375
1700516155897176300,0.78617626953125,-0.9102630615234375,-0.154632568359375,0.033355712890625
1700516155907185400,0.796185302734375,-1.0431976318359375,-0.162353515625,0.0598907470703125
1700516155917194200,0.8061943359375,-1.04986572265625,-0.1333160400390625,0.099151611328125
1700516155927204400,0.816204345703125,-0.9123077392578125,0.0369415283203125,-0.0164642333984375
1700516155937213400,0.82621337890625,-0.86859130859375,-0.33746337890625,0.0937042236328125
1700516155947222500,0.836222412109375,-1.108978271484375,-0.144012451171875,0.0137939453125
1700516155957232400,0.846232421875,-1.0815582275390625,-0.02606201171875,0.0914459228515625
1700516155967241200,0.8562412109375,-0.8733978271484375,-0.200103759765625,0.037872314453125
1700516155977250300,0.866250244140625,-1.031341552734375,-0.1124114990234375,0.0496368408203125
1700516155987259400,0.87625927734375,-0.9095458984375,-0.1464080810546875,0.0194091796875
1700516155997269500,0.88626953125,-1.06103515625,-0.1811981201171875,0.054718017578125
1700516156007278300,0.8962783203125,-1.0220489501953125,-0.1062164306640625,0.081329345703125
1700516156017287200,0.906287109375,-0.9167633056640625,0.0364532470703125,-0.0178985595703125
1700516156027297300,0.91629736328125,-0.894744873046875,-0.3575286865234375,0.0803070068359375
1700516156037306400,0.926306396484375,-1.1239471435546875,-0.1130828857421875,0.0206451416015625
1700516156047315500,0.9363154296875,-1.049346923828125,-0.034912109375,0.0804901123046875
1700516156057325300,0.9463251953125,-0.8898162841796875,-0.195587158203125,0.0465545654296875
1700516156067334400,0.95633447265625,-1.0669097900390625,-0.09954833984375,0.0544586181640625
1700516156077343500,0.966343505859375,-0.8941650390625,-0.155517578125,0.02691650390625
1700516156087353300,0.976353271484375,-1.0575714111328125,-0.1778411865234375,0.0703887939453125
1700516156097362200,0.986362060546875,-1.02496337890625,-0.09228515625,0.0855560302734375
1700516156107371300,0.996371337890625,-0.9297332763671875,0.0252532958984375,-0.0028839111328125
1700516156117381400,1.00638134765625,-0.89776611328125,-0.3704833984375,0.0941619873046875
1700516156127390500,1.016390380859375,-1.1187896728515625,-0.098846435546875,0.0301971435546875
1700516156137399600,1.026399658203125,-1.0354766845703125,-0.0478973388671875,0.0897674560546875
1700516156147409400,1.036409423828125,-0.89642333984375,-0.2127227783203125,0.0540313720703125
1700516156157418200,1.046418212890625,-1.04937744140625,-0.0992279052734375,0.0545806884765625
1700516156167427300,1.05642724609375,-0.881134033203125,-0.1588592529296875,0.02972412109375
1700516156177437200,1.066437255859375,-1.0704345703125,-0.19061279296875,0.0713348388671875
1700516156187446300,1.0764462890625,-1.0183258056640625,-0.08746337890625,0.07855224609375
1700516156197455400,1.086455322265625,-0.9129791259765625,0.0159454345703125,-0.00628662109375
1700516156207465500,1.096465576171875,-0.9068145751953125,-0.3749542236328125,0.0821075439453125
1700516156217474600,1.106474609375,-1.1379241943359375,-0.0917205810546875,0.0337371826171875
1700516156227483400,1.1164833984375,-1.0133514404296875,-0.05450439453125,0.073516845703125
1700516156237493200,1.1264931640625,-0.8977203369140625,-0.2180023193359375,0.050994873046875
1700516156247502300,1.13650244140625,-1.0713348388671875,-0.073516845703125,0.0435333251953125
1700516156257511400,1.146511474609375,-0.870819091796875,-0.174468994140625,0.0254058837890625
1700516156267521300,1.156521240234375,-1.0733184814453125,-0.1876678466796875,0.0666961669921875
1700516156277530400,1.1665302734375,-1.016876220703125,-0.0619354248046875,0.0719146728515625
1700516156287539500,1.17653955078125,-0.9088592529296875,0.0012969970703125,-0.0042572021484375
1700516156297549600,1.186549560546875,-0.907745361328125,-0.3802947998046875,0.0799102783203125
1700516156307558400,1.196558349609375,-1.1497344970703125,-0.0737152099609375,0.0310821533203125
1700516156317567200,1.206567138671875,-0.9947509765625,-0.051666259765625,0.067840576171875
1700516156327577300,1.216577392578125,-0.914093017578125,-0.21881103515625,0.0576171875
1700516156337586400,1.22658642578125,-1.0504302978515625,-0.097900390625,0.0458221435546875
1700516156347595500,1.236595458984375,-0.886444091796875,-0.1670074462890625,0.0233154296875
1700516156357605400,1.24660546875,-1.078826904296875,-0.1649017333984375,0.077056884765625
1700516156367614200,1.2566142578125,-1.00421142578125,-0.0804443359375,0.0653228759765625
1700516156377623300,1.266623291015625,-0.910125732421875,-0.0076904296875,0.0008697509765625
1700516156387633400,1.27663330078125,-0.9094390869140625,-0.374847412109375,0.080657958984375
1700516156397642500,1.286642578125,-1.1551971435546875,-0.05828857421875,0.0321197509765625
1700516156407651300,1.2966513671875,-0.9869537353515625,-0.0741729736328125,0.0794219970703125
1700516156417661400,1.306661376953125,-0.9114227294921875,-0.217071533203125,0.0550384521484375
1700516156427670500,1.31667041015625,-1.0566864013671875,-0.08172607421875,0.046142578125
1700516156437680400,1.326680419921875,-0.8826751708984375,-0.178192138671875,0.02923583984375
1700516156447689200,1.336689208984375,-1.0826873779296875,-0.1826934814453125,0.0815887451171875
1700516156457698300,1.3466982421875,-0.9886627197265625,-0.059326171875,0.0572052001953125
1700516156467708400,1.35670849609375,-0.9176025390625,-0.020782470703125,0.0097198486328125
1700516156477717500,1.366717529296875,-0.9275970458984375,-0.3802032470703125,0.0723419189453125
1700516156487726300,1.376726318359375,-1.1530914306640625,-0.0503997802734375,0.041229248046875
1700516156497736400,1.386736328125,-0.9713134765625,-0.083892822265625,0.0743408203125
1700516156507745300,1.396745361328125,-0.9181060791015625,-0.215240478515625,0.057373046875
1700516156517754400,1.40675439453125,-1.0572509765625,-0.087799072265625,0.04327392578125
1700516156527764200,1.41676416015625,-0.8873443603515625,-0.169586181640625,0.026031494140625
1700516156537773300,1.426773193359375,-1.075469970703125,-0.1778564453125,0.08294677734375
1700516156547782400,1.436782470703125,-0.9888458251953125,-0.0629119873046875,0.055145263671875
1700516156557792500,1.44679248046875,-0.9288482666015625,-0.0205230712890625,0.011688232421875
1700516156567801600,1.456801513671875,-0.9164886474609375,-0.361053466796875,0.0675506591796875
1700516156577810200,1.46681005859375,-1.146026611328125,-0.064483642578125,0.04473876953125
1700516156587820300,1.4768203125,-0.9733734130859375,-0.0815582275390625,0.0690765380859375
1700516156597829400,1.486829345703125,-0.9159393310546875,-0.2210845947265625,0.0553131103515625
1700516156607838500,1.49683837890625,-1.0675506591796875,-0.050445556640625,0.0332183837890625
1700516156617848300,1.506848388671875,-0.85986328125,-0.1891326904296875,0.03277587890625
1700516156627857400,1.516857421875,-1.08258056640625,-0.196075439453125,0.0765533447265625
1700516156637866200,1.5268662109375,-0.993377685546875,-0.0442657470703125,0.0562744140625
1700516156647876400,1.53687646484375,-0.913848876953125,-0.0199432373046875,0.005706787109375
1700516156657885400,1.546885498046875,-0.9231414794921875,-0.3780517578125,0.0740509033203125
1700516156667895300,1.556895263671875,-1.145599365234375,-0.060089111328125,0.0373992919921875
1700516156677904400,1.566904296875,-0.981781005859375,-0.0707855224609375,0.076202392578125
1700516156687913500,1.57691357421875,-0.927978515625,-0.2201690673828125,0.0595245361328125
1700516156697923300,1.58692333984375,-1.0628509521484375,-0.0809478759765625,0.036773681640625
1700516156707932400,1.596932373046875,-0.8838348388671875,-0.17266845703125,0.03692626953125
1700516156717941200,1.606941162109375,-1.080841064453125,-0.1769866943359375,0.070709228515625
1700516156727951400,1.616951416015625,-1.000274658203125,-0.0772857666015625,0.0621795654296875
1700516156737960400,1.62696044921875,-0.9108734130859375,-0.0017242431640625,0.00115966796875
1700516156747969300,1.63696923828125,-0.917755126953125,-0.3743896484375,0.0818634033203125
1700516156757979400,1.6469794921875,-1.141693115234375,-0.0713348388671875,0.0263214111328125
1700516156767988500,1.656988525390625,-0.9853363037109375,-0.071319580078125,0.0813140869140625
1700516156777997300,1.666997314453125,-0.9099884033203125,-0.2259521484375,0.05291748046875
1700516156788007200,1.677007080078125,-1.069580078125,-0.06500244140625,0.0318756103515625
1700516156798016300,1.687016357421875,-0.8682403564453125,-0.176422119140625,0.0396881103515625
1700516156808025300,1.697025390625,-1.0775299072265625,-0.196990966796875,0.071319580078125
1700516156818035500,1.707035400390625,-1.0015869140625,-0.0553436279296875,0.058258056640625
1700516156828044300,1.717044189453125,-0.90924072265625,-0.00250244140625,0.005828857421875
1700516156838054400,1.727054443359375,-0.9189300537109375,-0.3864593505859375,0.0752410888671875
1700516156848063500,1.7370634765625,-1.1382293701171875,-0.0665740966796875,0.032684326171875
1700516156858072300,1.747072265625,-0.989532470703125,-0.0665283203125,0.078887939453125
1700516156868082200,1.757082275390625,-0.915435791015625,-0.235107421875,0.0598602294921875
1700516156878091300,1.76709130859375,-1.0747833251953125,-0.052001953125,0.0313568115234375
1700516156888101400,1.777101318359375,-0.8543548583984375,-0.19720458984375,0.038360595703125
1700516156898111200,1.787111328125,-1.0909576416015625,-0.1861724853515625,0.0734405517578125
1700516156908120000,1.7971201171875,-1.011260986328125,-0.04327392578125,0.0627288818359375
1700516156918129200,1.807129150390625,-0.888763427734375,-0.0205535888671875,0.0044403076171875
1700516156928139300,1.81713916015625,-0.918212890625,-0.4068603515625,0.07843017578125
1700516156938148400,1.8271484375,-1.162689208984375,-0.034210205078125,0.03118896484375
1700516156948158200,1.837158203125,-0.988250732421875,-0.0712432861328125,0.08282470703125
1700516156958167300,1.847167236328125,-0.9132080078125,-0.242828369140625,0.0608367919921875
1700516156968176000,1.857176025390625,-1.0387725830078125,-0.07330322265625,0.031890869140625
1700516156978186200,1.867186279296875,-0.880767822265625,-0.189910888671875,0.03961181640625
1700516156988195000,1.877195068359375,-1.1123046875,-0.16961669921875,0.081390380859375
1700516156998204200,1.8872041015625,-0.98919677734375,-0.0327606201171875,0.05029296875
1700516157008214300,1.89721435546875,-0.8654327392578125,-0.0565185546875,0.014434814453125
1700516157018223400,1.907223388671875,-0.9381866455078125,-0.39263916015625,0.070281982421875
1700516157028233200,1.917233154296875,-1.199310302734375,-0.0029449462890625,0.0392913818359375
1700516157038242300,1.9272421875,-0.94451904296875,-0.0892181396484375,0.0753936767578125
1700516157048251100,1.937251220703125,-0.9257354736328125,-0.23516845703125,0.056671142578125
1700516157058261200,1.94726123046875,-1.0160064697265625,-0.0777740478515625,0.035247802734375
1700516157068270000,1.95727001953125,-0.9093780517578125,-0.20513916015625,0.0311431884765625
1700516157078279200,1.967279052734375,-1.114990234375,-0.1453094482421875,0.09014892578125
1700516157088289300,1.977289306640625,-0.954315185546875,-0.0016326904296875,0.0250091552734375
1700516157098298400,1.98729833984375,-0.8488922119140625,-0.1511993408203125,0.0372161865234375
1700516157108308200,1.99730810546875,-0.983642578125,-0.3458099365234375,0.0503997802734375
1700516157118317000,2.007317138671875,-1.1994171142578125,0.0246429443359375,0.05218505859375
1700516157128326100,2.017326171875,-0.89678955078125,-0.132080078125,0.06005859375
1700516157138336300,2.027336181640625,-0.963653564453125,-0.196563720703125,0.051910400390625
1700516157148345300,2.037345458984375,-0.9724578857421875,-0.1276092529296875,0.02996826171875
1700516157158354200,2.047354248046875,-0.976654052734375,-0.170562744140625,0.03582763671875
1700516157168364300,2.0573642578125,-1.0873260498046875,-0.15478515625,0.1003265380859375
1700516157178373400,2.067373291015625,-0.93499755859375,0.026763916015625,-0.005767822265625
1700516157188383200,2.07738330078125,-0.8556365966796875,-0.240936279296875,0.0658721923828125
1700516157198392000,2.08739208984375,-1.0461578369140625,-0.2596893310546875,0.0253448486328125
1700516157208401200,2.097401123046875,-1.1692657470703125,0.0236663818359375,0.071868896484375
1700516157218411300,2.107411376953125,-0.865447998046875,-0.170806884765625,0.0546875
1700516157228420400,2.11742041015625,-0.99591064453125,-0.15277099609375,0.0467071533203125
1700516157238430200,2.12743017578125,-0.9474334716796875,-0.14208984375,0.02960205078125
1700516157248439300,2.137439208984375,-1.038055419921875,-0.15924072265625,0.0478515625
1700516157258448400,2.147448486328125,-1.0431060791015625,-0.14410400390625,0.09991455078125
1700516157268458200,2.157458251953125,-0.911712646484375,0.0392608642578125,-0.018341064453125
1700516157278467000,2.167467041015625,-0.8787841796875,-0.3194122314453125,0.0870208740234375
1700516157288477200,2.177477294921875,-1.103790283203125,-0.167938232421875,0.0164794921875
1700516157298486300,2.187486328125,-1.097381591796875,-0.015838623046875,0.0855712890625
1700516157308495400,2.197495361328125,-0.8507843017578125,-0.1922607421875,0.0474395751953125
1700516157318505200,2.207505126953125,-1.0359344482421875,-0.1286468505859375,0.048248291015625
1700516157328514300,2.217514404296875,-0.92803955078125,-0.153961181640625,0.026153564453125
1700516157338524400,2.2275244140625,-1.0595550537109375,-0.16326904296875,0.0601348876953125
1700516157348533200,2.237533203125,-1.010528564453125,-0.1175689697265625,0.08795166015625
1700516157358542000,2.2475419921875,-0.918914794921875,0.024871826171875,-0.0159912109375
1700516157368552200,2.25755224609375,-0.8926849365234375,-0.37188720703125,0.089752197265625
1700516157378561300,2.267561279296875,-1.1366119384765625,-0.0974884033203125,0.0189208984375
1700516157388571100,2.277571044921875,-1.0370635986328125,-0.0457000732421875,0.0843963623046875
1700516157398580200,2.287580322265625,-0.8751983642578125,-0.2183990478515625,0.0559234619140625
1700516157408589300,2.29758935546875,-1.04638671875,-0.09735107421875,0.0405120849609375
1700516157418599200,2.30759912109375,-0.8948516845703125,-0.1743011474609375,0.0245513916015625
1700516157428608300,2.317608154296875,-1.095306396484375,-0.1658172607421875,0.0746612548828125
1700516157438618000,2.3276181640625,-0.9966888427734375,-0.066162109375,0.0652923583984375
1700516157448627200,2.337627197265625,-0.8918609619140625,-0.0227508544921875,-0.0034332275390625
1700516157458636300,2.34763623046875,-0.9137420654296875,-0.39251708984375,0.0792236328125
1700516157468646400,2.357646484375,-1.1809234619140625,-0.030975341796875,0.02978515625
1700516157478655200,2.3676552734375,-0.9723052978515625,-0.07666015625,0.0758819580078125
1700516157488665300,2.377665283203125,-0.899200439453125,-0.22967529296875,0.0585174560546875
1700516157498674200,2.387674072265625,-1.0295562744140625,-0.0976715087890625,0.0366058349609375
1700516157508683300,2.397683349609375,-0.9168701171875,-0.180145263671875,0.023712158203125
1700516157518693000,2.407693115234375,-1.1009063720703125,-0.1556854248046875,0.0863189697265625
1700516157528702200,2.4177021484375,-0.9644622802734375,-0.0301971435546875,0.0371856689453125
1700516157538712300,2.42771240234375,-0.877655029296875,-0.09765625,0.0208740234375
1700516157548721400,2.437721435546875,-0.9530029296875,-0.3660736083984375,0.061492919921875
1700516157558730200,2.447730224609375,-1.193145751953125,0.0108489990234375,0.04150390625
1700516157568740000,2.457739990234375,-0.916259765625,-0.1143951416015625,0.06781005859375
1700516157578749200,2.467749267578125,-0.943603515625,-0.2067718505859375,0.0553741455078125
1700516157588759300,2.47775927734375,-0.9962158203125,-0.120941162109375,0.038543701171875
1700516157598768000,2.48776806640625,-0.9572296142578125,-0.1677398681640625,0.0302734375
1700516157608778200,2.4977783203125,-1.080841064453125,-0.161895751953125,0.1011810302734375
1700516157618787300,2.507787353515625,-0.9446563720703125,0.003143310546875,0.008514404296875
1700516157628796400,2.51779638671875,-0.881561279296875,-0.177581787109375,0.0547332763671875
1700516157638806300,2.52780615234375,-1.002777099609375,-0.3089141845703125,0.0427703857421875
1700516157648815000,2.537815185546875,-1.169403076171875,0.0125274658203125,0.063262939453125
1700516157658825200,2.5478251953125,-0.8777313232421875,-0.1468353271484375,0.0562744140625
1700516157668834300,2.557834228515625,-0.9901275634765625,-0.17645263671875,0.05572509765625
1700516157678843100,2.567843017578125,-0.97332763671875,-0.12847900390625,0.0338287353515625
1700516157688853200,2.577853271484375,-0.9824066162109375,-0.172637939453125,0.036956787109375
1700516157698862300,2.5878623046875,-1.05615234375,-0.162109375,0.103759765625
1700516157708872200,2.5978720703125,-0.9411163330078125,0.034881591796875,-0.0114898681640625
1700516157718881000,2.607881103515625,-0.8932342529296875,-0.2514495849609375,0.078826904296875
1700516157728891100,2.61789111328125,-1.03753662109375,-0.24713134765625,0.0269775390625
1700516157738900200,2.627900146484375,-1.13446044921875,0.0012054443359375,0.0735015869140625
1700516157748909300,2.637909423828125,-0.8660125732421875,-0.1656494140625,0.0486907958984375
1700516157758919200,2.647919189453125,-1.03021240234375,-0.1517791748046875,0.0543975830078125
1700516157768928300,2.65792822265625,-0.94366455078125,-0.1302490234375,0.02886962890625
1700516157778938400,2.6679384765625,-1.001373291015625,-0.175506591796875,0.048126220703125
1700516157788947500,2.677947509765625,-1.042724609375,-0.1515960693359375,0.0984649658203125
1700516157798957300,2.687957275390625,-0.9378814697265625,0.044921875,-0.0172271728515625
1700516157808966100,2.697966064453125,-0.895660400390625,-0.29656982421875,0.087371826171875
1700516157818976300,2.707976318359375,-1.0605010986328125,-0.20245361328125,0.0246124267578125
1700516157828985000,2.717985107421875,-1.1021270751953125,-0.01483154296875,0.07275390625
1700516157838994200,2.727994140625,-0.8654022216796875,-0.177825927734375,0.0485076904296875
1700516157849004300,2.73800439453125,-1.0461578369140625,-0.140228271484375,0.0543365478515625
1700516157859013400,2.748013427734375,-0.9312286376953125,-0.1349945068359375,0.0165863037109375
1700516157869023200,2.758023193359375,-1.0132598876953125,-0.1641082763671875,0.06158447265625
1700516157879032000,2.768031982421875,-1.0200958251953125,-0.164947509765625,0.0861358642578125
1700516157889045000,2.778044921875,-0.9440765380859375,0.0413055419921875,-0.0143585205078125
1700516157899054000,2.78805419921875,-0.9099884033203125,-0.28424072265625,0.0860748291015625
1700516157909064000,2.79806396484375,-1.060150146484375,-0.19622802734375,0.0253448486328125
1700516157919073000,2.808072998046875,-1.0887298583984375,-0.030853271484375,0.0731201171875
1700516157929081900,2.818081787109375,-0.86578369140625,-0.1759490966796875,0.0442962646484375
1700516157939092000,2.828092041015625,-1.0641632080078125,-0.1414337158203125,0.059783935546875
1700516157949101000,2.83810107421875,-0.934814453125,-0.1086273193359375,0.0212554931640625
1700516157959111000,2.84811083984375,-0.986358642578125,-0.21221923828125,0.0596771240234375
1700516157969120000,2.8581201171875,-1.0334930419921875,-0.136993408203125,0.0820159912109375
1700516157979130000,2.868130126953125,-0.9545745849609375,0.0423736572265625,-0.008544921875
1700516157989139200,2.87813916015625,-0.9188232421875,-0.2731475830078125,0.081146240234375
1700516157999149000,2.888149169921875,-1.034759521484375,-0.224517822265625,0.0340576171875
1700516158009158000,2.898157958984375,-1.0949554443359375,-0.0138702392578125,0.0623626708984375
1700516158019168000,2.90816796875,-0.877166748046875,-0.1808624267578125,0.0523681640625
1700516158029176800,2.9181767578125,-1.0550689697265625,-0.1510009765625,0.058746337890625
1700516158039187000,2.92818701171875,-0.9410858154296875,-0.097747802734375,0.0170135498046875
1700516158049196000,2.938196044921875,-0.9618988037109375,-0.208282470703125,0.0612030029296875
1700516158059205000,2.948205078125,-1.0513763427734375,-0.1556549072265625,0.083831787109375
1700516158069215000,2.958215087890625,-0.950286865234375,0.03216552734375,-0.0057220458984375
1700516158079224000,2.96822412109375,-0.928558349609375,-0.21209716796875,0.0782928466796875
1700516158089234200,2.978234130859375,-0.9962615966796875,-0.271026611328125,0.034576416015625
1700516158099243000,2.988242919921875,-1.1206512451171875,-0.0126190185546875,0.06390380859375
1700516158109252900,2.9982529296875,-0.8806610107421875,-0.1719512939453125,0.05902099609375
1700516158119262000,3.008261962890625,-1.0306854248046875,-0.1893157958984375,0.0635986328125
1700516158129272000,3.01827197265625,-0.9805908203125,-0.0435943603515625,0.01617431640625
1700516158139281200,3.02828125,-0.90777587890625,-0.2406463623046875,0.0566864013671875
1700516158149291000,3.038291015625,-1.0848846435546875,-0.158905029296875,0.084625244140625
1700516158159300000,3.048300048828125,-0.9459991455078125,0.0184326171875,0.00048828125
1700516158169310200,3.058310302734375,-0.938568115234375,-0.1554107666015625,0.0642242431640625
1700516158179318800,3.06831884765625,-0.9735260009765625,-0.3201141357421875,0.041534423828125
1700516158189329000,3.078328857421875,-1.1293487548828125,-0.013458251953125,0.055999755859375
1700516158199338000,3.088337890625,-0.9014434814453125,-0.1552886962890625,0.0605316162109375
1700516158209347800,3.098347900390625,-1.0088653564453125,-0.2107696533203125,0.066802978515625
1700516158219357000,3.10835693359375,-1.018463134765625,-0.02191162109375,0.015625
1700516158229367000,3.118366943359375,-0.856231689453125,-0.237579345703125,0.0518798828125
1700516158239376100,3.128376220703125,-1.104949951171875,-0.1735076904296875,0.084228515625
1700516158249385000,3.138385009765625,-0.963043212890625,0.0051116943359375,0.015167236328125
1700516158259394800,3.148394775390625,-0.9181976318359375,-0.0996856689453125,0.046630859375
1700516158269404000,3.15840380859375,-0.949310302734375,-0.3634490966796875,0.0489044189453125
1700516158279414000,3.1684140625,-1.149810791015625,-0.0127716064453125,0.0507354736328125
1700516158289423000,3.178423095703125,-0.9303131103515625,-0.131805419921875,0.0685272216796875
1700516158299433000,3.188432861328125,-0.9647979736328125,-0.2222442626953125,0.0609893798828125
1700516158309442000,3.198442138671875,-1.0338592529296875,-0.048736572265625,0.0204315185546875
1700516158319452200,3.2084521484375,-0.86798095703125,-0.2016448974609375,0.0465087890625
1700516158329461000,3.2184609375,-1.097686767578125,-0.1856689453125,0.080841064453125
1700516158339471000,3.22847119140625,-0.97064208984375,-0.0250091552734375,0.03094482421875
1700516158349480000,3.23847998046875,-0.91351318359375,-0.0556793212890625,0.0275115966796875
1700516158359489800,3.24848974609375,-0.9398956298828125,-0.3750762939453125,0.0590667724609375
1700516158369499000,3.258498779296875,-1.1584014892578125,-0.0273284912109375,0.04632568359375
1700516158379509000,3.268509033203125,-0.9497222900390625,-0.104766845703125,0.0714569091796875
1700516158389518000,3.27851806640625,-0.9403076171875,-0.239013671875,0.0577545166015625
1700516158399528000,3.28852783203125,-1.0586700439453125,-0.0250244140625,0.0246124267578125
1700516158409537000,3.298537109375,-0.8539581298828125,-0.2183837890625,0.03875732421875
1700516158419547100,3.308547119140625,-1.103271484375,-0.18115234375,0.0814666748046875
1700516158429556000,3.318555908203125,-0.98748779296875,-0.0171966552734375,0.03936767578125
1700516158439565800,3.32856591796875,-0.8885498046875,-0.0567474365234375,0.0182342529296875
1700516158449576000,3.338575927734375,-0.9347076416015625,-0.39666748046875,0.0654449462890625
1700516158459585000,3.3485849609375,-1.1715850830078125,-0.0142059326171875,0.0411376953125
1700516158469595000,3.358594970703125,-0.9519500732421875,-0.0974273681640625,0.071044921875
1700516158479604000,3.36860400390625,-0.927276611328125,-0.2449493408203125,0.0617523193359375
1700516158489614000,3.378614013671875,-1.0353546142578125,-0.0491180419921875,0.0239105224609375
1700516158499623200,3.388623046875,-0.871185302734375,-0.2135772705078125,0.036407470703125
1700516158509633000,3.398633056640625,-1.1105194091796875,-0.160888671875,0.0825347900390625
1700516158519641900,3.408641845703125,-0.9820404052734375,-0.01336669921875,0.0400848388671875
1700516158529652000,3.41865185546875,-0.8631591796875,-0.0843353271484375,0.0194244384765625
1700516158539661000,3.4286611328125,-0.9485321044921875,-0.39141845703125,0.0644989013671875
1700516158549671000,3.4386708984375,-1.195587158203125,0.014984130859375,0.0447998046875
1700516158559680000,3.448679931640625,-0.9333648681640625,-0.106536865234375,0.0712127685546875
1700516158569690000,3.458690185546875,-0.9411163330078125,-0.236541748046875,0.0631866455078125
1700516158579699000,3.468698974609375,-0.9975433349609375,-0.08447265625,0.0279083251953125
1700516158589709000,3.478708984375,-0.9151763916015625,-0.2013397216796875,0.032958984375
1700516158599718100,3.48871826171875,-1.12615966796875,-0.1440582275390625,0.09271240234375
1700516158609728000,3.49872802734375,-0.962066650390625,0.0034637451171875,0.0228271484375
1700516158619736800,3.50873681640625,-0.8366241455078125,-0.1566009521484375,0.0367584228515625
1700516158629747000,3.518746826171875,-1.0089874267578125,-0.32421875,0.04791259765625
1700516158639756800,3.5287568359375,-1.1996612548828125,-0.003662109375,0.0578460693359375
1700516158649766000,3.538765869140625,-0.8543701171875,-0.1168975830078125,0.060089111328125
1700516158659776000,3.54877587890625,-1.0133819580078125,-0.200469970703125,0.0529327392578125
1700516158669785000,3.55878515625,-0.963165283203125,-0.132904052734375,0.035003662109375
1700516158679795000,3.568794921875,-0.9492950439453125,-0.17718505859375,0.0294036865234375
1700516158689804000,3.578803955078125,-1.1168212890625,-0.1309661865234375,0.1010589599609375
1700516158699814100,3.588814208984375,-0.9284210205078125,0.003204345703125,-0.0020751953125
1700516158709823000,3.598822998046875,-0.8217010498046875,-0.225738525390625,0.0560760498046875
1700516158719832800,3.608832763671875,-1.0926361083984375,-0.2680511474609375,0.030914306640625
1700516158729842000,3.618842041015625,-1.145294189453125,-0.007232666015625,0.0760650634765625
1700516158739852000,3.62885205078125,-0.8252410888671875,-0.1243896484375,0.0452728271484375
1700516158749862000,3.63886181640625,-1.082763671875,-0.1884918212890625,0.0514984130859375
1700516158759871000,3.64887109375,-0.90673828125,-0.159027099609375,0.0265045166015625
1700516158769881000,3.658881103515625,-0.997528076171875,-0.1444854736328125,0.040008544921875
1700516158779890200,3.66889013671875,-1.081817626953125,-0.1194305419921875,0.1043853759765625
1700516158789900000,3.678900146484375,-0.9277496337890625,0.009307861328125,-0.022705078125
1700516158799908900,3.688908935546875,-0.8229827880859375,-0.30804443359375,0.0753021240234375
1700516158809919000,3.6989189453125,-1.1527557373046875,-0.1727294921875,0.03094482421875
1700516158819927800,3.708927734375,-1.059295654296875,-0.008636474609375,0.0713348388671875
1700516158829938000,3.71893798828125,-0.871307373046875,-0.180328369140625,0.0495147705078125
1700516158839948000,3.728947998046875,-1.041717529296875,-0.1620941162109375,0.0498809814453125
1700516158849956900,3.738956787109375,-0.8917999267578125,-0.1636962890625,0.011505126953125
1700516158859967000,3.748967041015625,-1.069091796875,-0.1395263671875,0.0600738525390625
1700516158869976000,3.75897607421875,-1.031463623046875,-0.09088134765625,0.0733795166015625
1700516158879986000,3.76898583984375,-0.8788909912109375,-0.0391387939453125,-0.0164031982421875
1700516158889992200,3.7789921875,-0.8898773193359375,-0.347869873046875,0.074462890625
1700516158900002000,3.789001953125,-1.1775360107421875,-0.0949249267578125,0.0234222412109375
1700516158910012000,3.799011962890625,-0.9665985107421875,-0.0517730712890625,0.062591552734375
1700516158920021000,3.80902099609375,-0.918212890625,-0.180572509765625,0.0456085205078125
1700516158930031000,3.819031005859375,-1.0101318359375,-0.184051513671875,0.0393829345703125
1700516158940040200,3.829040283203125,-0.9286041259765625,-0.1381683349609375,0.0092315673828125
1700516158950050000,3.839050048828125,-1.088104248046875,-0.159454345703125,0.0839996337890625
1700516158960059100,3.84905908203125,-0.9784698486328125,-0.026153564453125,0.0236053466796875
1700516158970069200,3.8590693359375,-0.887176513671875,-0.1363677978515625,0.02484130859375
1700516158980079000,3.8690791015625,-0.9325103759765625,-0.32452392578125,0.051605224609375
1700516158990088200,3.879088134765625,-1.18206787109375,-0.000030517578125,0.0338897705078125
1700516159000098300,3.889098388671875,-0.954376220703125,-0.117523193359375,0.060333251953125
1700516159010107100,3.899107177734375,-0.945068359375,-0.163604736328125,0.0515899658203125
1700516159020117000,3.909116943359375,-0.97198486328125,-0.15234375,0.031158447265625
1700516159030127000,3.919127197265625,-0.9619140625,-0.1466522216796875,0.021087646484375
1700516159040136200,3.92913623046875,-1.099517822265625,-0.162078857421875,0.0991973876953125
1700516159050146000,3.93914599609375,-0.9451904296875,0.025665283203125,-0.0039520263671875
1700516159060155100,3.949155029296875,-0.887451171875,-0.2178497314453125,0.0574951171875
1700516159070165200,3.959165283203125,-0.988067626953125,-0.2597808837890625,0.0294952392578125
1700516159080175000,3.969175048828125,-1.1645660400390625,0.0046539306640625,0.0626983642578125
1700516159090184200,3.97918408203125,-0.9119720458984375,-0.14288330078125,0.0483551025390625
1700516159100194300,3.9891943359375,-0.99169921875,-0.1555328369140625,0.0550384521484375
1700516159110203100,3.999203125,-0.9326171875,-0.160308837890625,0.0237579345703125
1700516159120213000,4.009212890625,-0.9768218994140625,-0.162872314453125,0.0355682373046875
1700516159130223000,4.01922314453125,-1.08758544921875,-0.145172119140625,0.10040283203125
1700516159140232200,4.029232177734375,-0.9562225341796875,0.0394134521484375,-0.02105712890625
1700516159150242000,4.039241943359375,-0.8602142333984375,-0.2915191650390625,0.07562255859375
1700516159160251100,4.049251220703125,-0.976226806640625,-0.2248382568359375,0.0101470947265625
1700516159170261200,4.05926123046875,-1.17327880859375,0.006195068359375,0.083740234375
1700516159180271000,4.06927099609375,-0.9241790771484375,-0.156585693359375,0.0378265380859375
1700516159190280200,4.0792802734375,-1.013427734375,-0.1485748291015625,0.053741455078125
1700516159200290300,4.089290283203125,-0.872772216796875,-0.1431732177734375,0.0050201416015625
1700516159210299100,4.099299072265625,-1.034881591796875,-0.1583709716796875,0.0497589111328125
1700516159220309000,4.10930908203125,-1.0846710205078125,-0.1463470458984375,0.0894927978515625
1700516159230319000,4.119319091796875,-0.9304351806640625,0.0554046630859375,-0.032745361328125
1700516159240328200,4.129328125,-0.843658447265625,-0.310394287109375,0.0806732177734375
1700516159250338000,4.139338134765625,-1.0718994140625,-0.15789794921875,0.0129852294921875
1700516159260348200,4.14934814453125,-1.14251708984375,-0.0362396240234375,0.0723876953125
1700516159270357200,4.159357177734375,-0.8747711181640625,-0.1503448486328125,0.03515625
1700516159280367000,4.1693671875,-1.0106658935546875,-0.14276123046875,0.0474395751953125
1700516159290376200,4.179376220703125,-0.92669677734375,-0.1264190673828125,0.00750732421875
1700516159300386300,4.18938623046875,-1.053466796875,-0.1741943359375,0.06353759765625
1700516159310396200,4.199396240234375,-1.026458740234375,-0.1319427490234375,0.07757568359375
1700516159320405000,4.209405029296875,-0.9290924072265625,0.053497314453125,-0.0270843505859375
1700516159330415000,4.2194150390625,-0.8963470458984375,-0.3175048828125,0.08123779296875
1700516159340425000,4.229425048828125,-1.084625244140625,-0.160247802734375,0.027923583984375
1700516159350434000,4.23943408203125,-1.069610595703125,-0.037384033203125,0.0557098388671875
1700516159360444200,4.249444091796875,-0.8782958984375,-0.1681976318359375,0.039703369140625
1700516159370453000,4.259452880859375,-1.055572509765625,-0.1370697021484375,0.0536346435546875
1700516159380463000,4.269463134765625,-0.914459228515625,-0.1320343017578125,0.007293701171875
1700516159390473200,4.27947314453125,-1.0130157470703125,-0.1891937255859375,0.0596160888671875
1700516159400482300,4.289482421875,-1.0546875,-0.1236114501953125,0.078216552734375
1700516159410492200,4.2994921875,-0.9415435791015625,0.044921875,-0.023956298828125
1700516159420502300,4.309502197265625,-0.9000244140625,-0.312896728515625,0.078704833984375
1700516159430511400,4.319511474609375,-1.0535736083984375,-0.180755615234375,0.0273590087890625
1700516159440521000,4.32952099609375,-1.0863800048828125,-0.03521728515625,0.062103271484375
1700516159450531000,4.339531005859375,-0.9034881591796875,-0.1681060791015625,0.0391387939453125
1700516159460540200,4.3495400390625,-1.0538482666015625,-0.124847412109375,0.0472412109375
1700516159470550000,4.359550048828125,-0.89886474609375,-0.115692138671875,0.01263427734375
1700516159480560000,4.36956005859375,-1.0186614990234375,-0.1928253173828125,0.05419921875
1700516159490569200,4.3795693359375,-1.0848846435546875,-0.097137451171875,0.0791473388671875
1700516159500579000,4.3895791015625,-0.91583251953125,0.0375823974609375,-0.029571533203125
1700516159510589200,4.399589111328125,-0.8568878173828125,-0.2696533203125,0.0774993896484375
1700516159520598300,4.409598388671875,-1.1115875244140625,-0.180877685546875,0.018524169921875
1700516159530608000,4.419608154296875,-1.09649658203125,-0.0190887451171875,0.066375732421875
1700516159540618200,4.4296181640625,-0.8335723876953125,-0.1320037841796875,0.03302001953125
1700516159550627300,4.43962744140625,-1.09344482421875,-0.169647216796875,0.0525665283203125
1700516159560637200,4.44963720703125,-0.8712921142578125,-0.1290283203125,0.017730712890625
1700516159570647000,4.45964697265625,-0.9996337890625,-0.180084228515625,0.0521087646484375
1700516159580656000,4.46965625,-1.0935211181640625,-0.13385009765625,0.0878448486328125
1700516159590666000,4.479666015625,-0.892120361328125,0.037567138671875,-0.0330963134765625
1700516159600676000,4.489676025390625,-0.8610076904296875,-0.3265838623046875,0.093780517578125
1700516159610685200,4.499685302734375,-1.132354736328125,-0.2000579833984375,0.0162811279296875
1700516159620695000,4.509695068359375,-1.056304931640625,-0.024017333984375,0.0872955322265625
1700516159630705200,4.519705078125,-0.874359130859375,-0.1910247802734375,0.0497283935546875
1700516159640714200,4.52971435546875,-1.0843658447265625,-0.1513519287109375,0.0543212890625
1700516159650724000,4.53972412109375,-0.85498046875,-0.17071533203125,0.02203369140625
1700516159660734200,4.549734130859375,-1.0464019775390625,-0.18450927734375,0.07073974609375
1700516159670743300,4.559743408203125,-1.063720703125,-0.101409912109375,0.0809326171875
1700516159680753200,4.569753173828125,-0.876739501953125,0.0350189208984375,-0.0237274169921875
1700516159690763300,4.57976318359375,-0.881866455078125,-0.39532470703125,0.0841064453125
1700516159700772000,4.589772216796875,-1.1450958251953125,-0.077392578125,0.019439697265625
1700516159710782000,4.599781982421875,-1.0070037841796875,-0.0478515625,0.073974609375
1700516159720792000,4.6097919921875,-0.906829833984375,-0.2037811279296875,0.0396270751953125
1700516159730801200,4.61980126953125,-1.044830322265625,-0.0981597900390625,0.042449951171875
1700516159740811000,4.62981103515625,-0.892791748046875,-0.1653289794921875,-0.000091552734375
1700516159750821000,4.639821044921875,-1.0926361083984375,-0.1484222412109375,0.0665435791015625
1700516159760830200,4.649830322265625,-1.01043701171875,-0.04931640625,0.0502471923828125
1700516159770840000,4.659840087890625,-0.8923492431640625,-0.0373687744140625,-0.0133514404296875
1700516159780850200,4.66985009765625,-0.9313507080078125,-0.36468505859375,0.0695037841796875
1700516159790859300,4.679859375,-1.1814727783203125,0.006591796875,0.0092010498046875
1700516159800869000,4.689869140625,-0.9686431884765625,-0.0838470458984375,0.0606231689453125
1700516159810879200,4.699879150390625,-0.954925537109375,-0.1960296630859375,0.046142578125
1700516159820889300,4.709889404296875,-0.99774169921875,-0.120849609375,0.0356597900390625
1700516159830898000,4.71989794921875,-0.9302520751953125,-0.178985595703125,0.0066680908203125
1700516159840908000,4.729907958984375,-1.094879150390625,-0.143707275390625,0.0883331298828125
1700516159850918100,4.739918212890625,-0.9705963134765625,-0.01214599609375,0.0147552490234375
1700516159860927200,4.74992724609375,-0.8826141357421875,-0.1649017333984375,0.0339813232421875
1700516159870937000,4.75993701171875,-0.97125244140625,-0.32952880859375,0.05169677734375
1700516159880947200,4.769947265625,-1.161651611328125,0.00018310546875,0.0411529541015625
1700516159890955500,4.77995556640625,-0.92938232421875,-0.1239166259765625,0.062225341796875
1700516159900965400,4.78996533203125,-0.96881103515625,-0.1651153564453125,0.062957763671875
1700516159910975500,4.7999755859375,-0.96759033203125,-0.1643218994140625,0.0401153564453125
1700516159920985300,4.8099853515625,-0.9374542236328125,-0.1734466552734375,0.024810791015625
1700516159930994400,4.819994384765625,-1.0905914306640625,-0.1313629150390625,0.0986785888671875
1700516159941004500,4.830004638671875,-0.944244384765625,0.024200439453125,0.000335693359375
1700516159951014400,4.840014404296875,-0.84027099609375,-0.255828857421875,0.0675048828125
1700516159961023500,4.8500234375,-1.0269317626953125,-0.2403411865234375,0.0208282470703125
1700516159971033600,4.86003369140625,-1.156280517578125,0.0058135986328125,0.080230712890625
1700516159981043500,4.87004345703125,-0.878936767578125,-0.14764404296875,0.038482666015625
1700516159991053600,4.880053466796875,-0.9960479736328125,-0.16607666015625,0.0628509521484375
1700516160001062400,4.8900625,-0.918731689453125,-0.1502685546875,0.011016845703125
1700516160011072500,4.900072509765625,-1.0494232177734375,-0.1400299072265625,0.04656982421875
1700516160021082400,4.910082275390625,-1.0632171630859375,-0.1315765380859375,0.0958099365234375
1700516160031092500,4.920092529296875,-0.908599853515625,0.0311279296875,-0.0272216796875
1700516160041101600,4.9301015625,-0.866302490234375,-0.329620361328125,0.0813751220703125
1700516160051111400,4.940111328125,-1.1353302001953125,-0.1450042724609375,0.0149688720703125
1700516160061121500,4.95012158203125,-1.0787200927734375,-0.0137481689453125,0.0803680419921875
1700516160071130600,4.960130615234375,-0.873046875,-0.162933349609375,0.03271484375
1700516160081140500,4.970140380859375,-1.0477447509765625,-0.1568450927734375,0.06561279296875
1700516160091150600,4.980150634765625,-0.8996429443359375,-0.1389617919921875,0.002838134765625
1700516160101160400,4.990160400390625,-1.06536865234375,-0.1454315185546875,0.0672149658203125
1700516160111169500,5.00016943359375,-1.0280609130859375,-0.1081390380859375,0.0788421630859375
1700516160121179600,5.0101796875,-0.8999786376953125,0.0058746337890625,-0.019683837890625
1700516160131189500,5.020189453125,-0.8896484375,-0.3317413330078125,0.076446533203125
1700516160141199600,5.03019970703125,-1.1835174560546875,-0.113555908203125,0.028167724609375
1700516160151208400,5.04020849609375,-0.964447021484375,-0.041748046875,0.07855224609375
1700516160161218300,5.05021826171875,-0.9072723388671875,-0.1719818115234375,0.0366973876953125
1700516160171228400,5.060228515625,-1.065643310546875,-0.147918701171875,0.05950927734375
1700516160181238500,5.070238525390625,-0.904541015625,-0.1436004638671875,0.00775146484375
1700516160191247400,5.080247314453125,-1.05828857421875,-0.1605377197265625,0.080291748046875
1700516160201257500,5.090257568359375,-0.9903106689453125,-0.074951171875,0.046356201171875
1700516160211267600,5.100267578125,-0.9349517822265625,-0.0341033935546875,0.007293701171875
1700516160221277400,5.11027734375,-0.90576171875,-0.359832763671875,0.0629730224609375
1700516160231286500,5.12028662109375,-1.1485595703125,-0.046356201171875,0.0379180908203125
1700516160241296600,5.130296630859375,-0.969085693359375,-0.095794677734375,0.070526123046875
1700516160251306500,5.140306396484375,-0.939605712890625,-0.1820831298828125,0.0440673828125
1700516160261316600,5.150316650390625,-1.034271240234375,-0.11895751953125,0.0429840087890625
1700516160271325700,5.16032568359375,-0.898284912109375,-0.1558837890625,0.0181427001953125
1700516160281335600,5.17033544921875,-1.083984375,-0.174591064453125,0.0819091796875
1700516160291345700,5.180345703125,-0.9721221923828125,-0.0476226806640625,0.032379150390625
1700516160301355500,5.19035546875,-0.9183349609375,-0.0511322021484375,0.0204925537109375
1700516160311364400,5.2003642578125,-0.923614501953125,-0.3484649658203125,0.0501556396484375
1700516160321374500,5.21037451171875,-1.1593780517578125,-0.0566558837890625,0.0491485595703125
1700516160331384300,5.22038427734375,-0.9412689208984375,-0.09222412109375,0.0627288818359375
1700516160341394400,5.23039453125,-0.9442291259765625,-0.1833648681640625,0.0415802001953125
1700516160351403500,5.240403564453125,-1.0497894287109375,-0.110809326171875,0.0395660400390625
1700516160361413400,5.250413330078125,-0.8766021728515625,-0.159271240234375,0.022979736328125
1700516160371423500,5.260423583984375,-1.0778961181640625,-0.1820831298828125,0.077484130859375
1700516160381433600,5.27043359375,-0.9842529296875,-0.0504608154296875,0.0433349609375
1700516160391442400,5.2804423828125,-0.90704345703125,-0.04266357421875,0.0146026611328125
1700516160401452500,5.29045263671875,-0.919189453125,-0.3625335693359375,0.0524749755859375
1700516160411462700,5.300462646484375,-1.15692138671875,-0.0372161865234375,0.0467376708984375
1700516160421472500,5.310472412109375,-0.9632568359375,-0.0996246337890625,0.0719757080078125
1700516160431482600,5.320482666015625,-0.9345703125,-0.1927337646484375,0.0408172607421875
1700516160441491700,5.33049169921875,-1.0490570068359375,-0.0891265869140625,0.04766845703125
1700516160451501600,5.34050146484375,-0.87591552734375,-0.1692657470703125,0.022369384765625
1700516160461511700,5.35051171875,-1.0889434814453125,-0.1805572509765625,0.0878448486328125
1700516160471521300,5.360521240234375,-0.9888458251953125,-0.0331268310546875,0.0435638427734375
1700516160481530400,5.3705302734375,-0.928619384765625,-0.0298614501953125,0.0133819580078125
1700516160491540500,5.38054052734375,-0.9361724853515625,-0.3632965087890625,0.060791015625
1700516160501550300,5.39055029296875,-1.1496429443359375,-0.037994384765625,0.0466766357421875
1700516160511560400,5.400560546875,-0.964813232421875,-0.0879058837890625,0.073638916015625
1700516160521570600,5.410570556640625,-0.9544830322265625,-0.19036865234375,0.0482635498046875
1700516160531579400,5.420579345703125,-1.042633056640625,-0.1094207763671875,0.0522613525390625
1700516160541589500,5.430589599609375,-0.8502044677734375,-0.1576690673828125,0.0174407958984375
1700516160551599600,5.440599609375,-1.102081298828125,-0.175140380859375,0.0839996337890625
1700516160561609500,5.450609375,-1.0002899169921875,-0.068359375,0.0526580810546875
1700516160571618600,5.46061865234375,-0.8685455322265625,-0.01495361328125,-0.0002288818359375
1700516160581628700,5.470628662109375,-0.9393157958984375,-0.3461151123046875,0.0705413818359375
1700516160591638500,5.480638427734375,-1.1907501220703125,-0.092010498046875,0.038848876953125
1700516160601648600,5.490648681640625,-0.91650390625,-0.0777130126953125,0.0854949951171875
1700516160611658500,5.500658447265625,-0.9494476318359375,-0.1557464599609375,0.0342559814453125
1700516160621667300,5.510667236328125,-1.1049652099609375,-0.1494903564453125,0.057891845703125
1700516160631677400,5.520677490234375,-0.82928466796875,-0.14581298828125,0.012786865234375
1700516160641687300,5.530687255859375,-1.0660552978515625,-0.1886444091796875,0.0696563720703125
1700516160651697400,5.540697509765625,-1.0460052490234375,-0.0761871337890625,0.058563232421875
1700516160661707500,5.55070751953125,-0.87701416015625,-0.0055084228515625,-0.0079345703125
1700516160671716400,5.56071630859375,-0.948760986328125,-0.3452606201171875,0.0683746337890625
1700516160681726500,5.5707265625,-1.1941986083984375,-0.09759521484375,0.0281219482421875
1700516160691736600,5.580736572265625,-0.9322662353515625,-0.0672454833984375,0.081695556640625
1700516160701746400,5.590746337890625,-0.95849609375,-0.1585235595703125,0.02838134765625
1700516160711756500,5.600756591796875,-1.0909423828125,-0.144775390625,0.0529327392578125
1700516160721765600,5.610765625,-0.844970703125,-0.153778076171875,0.0163116455078125
1700516160731775500,5.620775390625,-1.048797607421875,-0.1824188232421875,0.0706329345703125
1700516160741785600,5.63078564453125,-1.0272369384765625,-0.0766754150390625,0.0590362548828125
1700516160751795500,5.64079541015625,-0.90545654296875,-0.0165863037109375,-0.02294921875
1700516160761805600,5.6508056640625,-0.9248809814453125,-0.40594482421875,0.07965087890625
1700516160771815400,5.6608154296875,-1.06341552734375,-0.0778656005859375,-0.0115814208984375
1700516160781824500,5.670824462890625,-0.99481201171875,-0.039093017578125,0.0691680908203125
1700516160791834600,5.680834716796875,-1.006103515625,-0.172393798828125,0.033538818359375
1700516160801844500,5.690844482421875,-0.9818878173828125,-0.11383056640625,0.0302734375
1700516160811854600,5.7008544921875,-0.8016815185546875,-0.1805877685546875,0.015167236328125
1700516160821864700,5.71086474609375,-1.0592803955078125,-0.16229248046875,0.0765838623046875
1700516160831873500,5.72087353515625,-1.0426788330078125,-0.0500640869140625,0.0567626953125
1700516160841883400,5.73088330078125,-0.8702239990234375,-0.018707275390625,-0.0088653564453125
1700516160851893500,5.7408935546875,-0.889007568359375,-0.3996124267578125,0.0885162353515625
1700516160861903400,5.7509033203125,-1.1443634033203125,0.0229339599609375,-0.004547119140625
1700516160871913500,5.76091357421875,-1.0465087890625,-0.091278076171875,0.0992584228515625
1700516160881923300,5.77092333984375,-0.9486846923828125,-0.1733551025390625,0.02606201171875
1700516160891932700,5.7809326171875,-0.9816436767578125,-0.106353759765625,0.037200927734375
1700516160901942800,5.79094287109375,-0.93145751953125,-0.1647186279296875,0.0221099853515625
1700516160911952600,5.80095263671875,-1.1472930908203125,-0.1579132080078125,0.0727996826171875
1700516160921962800,5.810962646484375,-1.0023040771484375,-0.03729248046875,0.04443359375
1700516160931972900,5.820972900390625,-0.9076385498046875,-0.066436767578125,-0.000823974609375
1700516160941982700,5.830982666015625,-0.96136474609375,-0.3822784423828125,0.077484130859375
1700516160951991600,5.840991455078125,-1.194793701171875,0.0077362060546875,0.0085296630859375
1700516160962001700,5.851001708984375,-0.9329681396484375,-0.11578369140625,0.0828399658203125
1700516160972011500,5.861011474609375,-0.955352783203125,-0.208740234375,0.0334320068359375
1700516160982021600,5.871021728515625,-1.010650634765625,-0.077789306640625,0.0340576171875
1700516160992031500,5.881031494140625,-0.8874969482421875,-0.219879150390625,0.012603759765625
1700516161002041600,5.89104150390625,-1.0875244140625,-0.1749420166015625,0.07952880859375
1700516161012050700,5.90105078125,-0.952362060546875,-0.0191802978515625,0.0289154052734375
1700516161022060500,5.911060546875,-0.839141845703125,-0.12249755859375,0.0021820068359375
1700516161032070700,5.921070556640625,-0.95977783203125,-0.3877410888671875,0.0785064697265625
1700516161042080800,5.931080810546875,-1.163970947265625,0.031280517578125,0.00140380859375
1700516161052090600,5.941090576171875,-0.891571044921875,-0.133575439453125,0.082305908203125
1700516161062100700,5.951100830078125,-0.96771240234375,-0.2465362548828125,0.04620361328125
1700516161072109800,5.96110986328125,-0.9915771484375,-0.02117919921875,0.0356292724609375
1700516161082119700,5.97111962890625,-0.9363250732421875,-0.2911529541015625,0.0193939208984375
1700516161092129800,5.9811298828125,-1.1761932373046875,-0.126953125,0.0848388671875
1700516161102139600,5.9911396484375,-0.960174560546875,0.0056915283203125,0.025482177734375
1700516161112149800,6.001149658203125,-0.814056396484375,-0.2132110595703125,0.014923095703125
1700516161122159600,6.01115966796875,-0.9581756591796875,-0.3825836181640625,0.0474853515625
1700516161132169700,6.021169677734375,-1.222412109375,0.080078125,0.0103759765625
1700516161142178800,6.0311787109375,-0.927490234375,-0.2563018798828125,0.073150634765625
1700516161152188700,6.041188720703125,-1.142303466796875,-0.1174774169921875,0.0000152587890625
1700516161162198500,6.051198486328125,-0.6407623291015625,0.0307464599609375,0.0841522216796875
1700516161172208600,6.061208740234375,-0.8561248779296875,-0.7446136474609375,-0.0525054931640625
1700516161182218500,6.071218505859375,-1.58172607421875,0.41107177734375,0.1424102783203125
1700516161192228600,6.081228515625,-0.8397369384765625,-0.268951416015625,0.0097503662109375
1700516161202238500,6.091238525390625,-0.4009857177734375,-0.6461181640625,0.0070648193359375
1700516161212247600,6.10124755859375,-1.2781829833984375,0.001495361328125,0.063873291015625
1700516161222257700,6.111257568359375,-1.43603515625,-0.0722503662109375,0.050567626953125
1700516161232267500,6.121267578125,-0.725250244140625,0.1352081298828125,0.03533935546875
1700516161242277600,6.131277587890625,-0.436767578125,-1.0466461181640625,0.0242767333984375
1700516161252287700,6.141287841796875,-1.4964141845703125,0.2115478515625,0.0490264892578125
1700516161262297600,6.151297607421875,-1.0625152587890625,0.32318115234375,0.1419219970703125
1700516161272307700,6.1613076171875,-0.7787322998046875,-1.0254364013671875,-0.06951904296875
1700516161282316800,6.17131689453125,-0.9409027099609375,-0.171478271484375,0.1627197265625
1700516161292326700,6.18132666015625,-1.2192230224609375,0.3116455078125,-0.0445709228515625
1700516161302336800,6.191336669921875,-0.649993896484375,-0.2931060791015625,0.1176910400390625
1700516161312346600,6.2013466796875,-1.110992431640625,-0.984375,-0.0166015625
1700516161322356700,6.211356689453125,-1.223358154296875,0.6182708740234375,0.0850982666015625
1700516161332366600,6.22136669921875,-0.550628662109375,-0.5772247314453125,0.083099365234375
1700516161342376700,6.231376708984375,-1.161956787109375,-0.584747314453125,-0.039276123046875
1700516161352385800,6.2413857421875,-1.4037628173828125,0.0751495361328125,0.1354217529296875
1700516161362395600,6.251395751953125,-0.5976104736328125,-0.131439208984375,0.02313232421875
1700516161372405800,6.26140576171875,-0.71649169921875,-0.8489227294921875,0.0301361083984375
1700516161382416000,6.271415771484375,-1.4875640869140625,0.1578826904296875,0.0697784423828125
1700516161392425700,6.28142578125,-0.7891082763671875,-0.360565185546875,0.0926055908203125
1700516161402435800,6.291435791015625,-0.8780975341796875,-0.595794677734375,-0.02130126953125
1700516161412445400,6.301445556640625,-1.3576202392578125,-0.189910888671875,0.07440185546875
1700516161422455600,6.31145556640625,-0.6180877685546875,-0.2155609130859375,0.0863189697265625
1700516161432465700,6.321465576171875,-0.9128265380859375,-0.598724365234375,0.011810302734375
1700516161442474500,6.331474609375,-1.37384033203125,-0.3270263671875,0.0932769775390625
1700516161452484600,6.341484619140625,-0.6918792724609375,-0.4841461181640625,0.0208740234375
1700516161462494700,6.35149462890625,-0.78802490234375,-0.418701171875,0.1115264892578125
1700516161472504600,6.361504638671875,-1.3499908447265625,-0.2873382568359375,-0.04473876953125
1700516161482514700,6.3715146484375,-0.6124420166015625,-0.55560302734375,0.106658935546875
1700516161492524500,6.381524658203125,-0.8089447021484375,-0.120697021484375,-0.01025390625
1700516161502534700,6.39153466796875,-1.0313873291015625,-0.6571807861328125,0.1066436767578125
1700516161512544500,6.40154443359375,-1.0203857421875,-0.5339202880859375,0.0196075439453125
1700516161522554600,6.4115546875,-0.7949371337890625,0.036163330078125,0.13720703125
1700516161532563700,6.421563720703125,-0.8896484375,-0.65093994140625,0.0224151611328125
1700516161542573600,6.431573486328125,-1.0459136962890625,-0.606536865234375,-0.01251220703125
1700516161552583700,6.441583740234375,-0.985748291015625,0.283447265625,0.10321044921875
1700516161562593800,6.45159375,-1.03106689453125,-1.2418975830078125,-0.0074005126953125
1700516161572603600,6.461603759765625,-1.182647705078125,-0.251739501953125,-0.00927734375
1700516161582613800,6.47161376953125,-0.8168792724609375,0.0776214599609375,0.08502197265625
1700516161592623600,6.48162353515625,-0.9873046875,-1.303680419921875,-0.045623779296875
1700516161602633700,6.4916337890625,-1.0876312255859375,0.2479705810546875,0.04168701171875
1700516161612643800,6.501643798828125,0.441009521484375,-0.62158203125,0.18157958984375
1700516161622652700,6.511652587890625,-3.0991668701171875,-1.1927337646484375,-0.02197265625
1700516161632662800,6.521662841796875,-1.48516845703125,0.7130126953125,0.076995849609375
1700516161642673000,6.5316728515625,-0.5986175537109375,-0.9243011474609375,0.225006103515625
1700516161652682500,6.5416826171875,-0.1602325439453125,-0.710357666015625,-0.2080078125
1700516161662692600,6.551692626953125,-0.454315185546875,0.10931396484375,0.1654815673828125
1700516161672702500,6.561702392578125,-1.268768310546875,-1.0107421875,-0.049896240234375
1700516161682712600,6.571712646484375,-1.345611572265625,0.1279449462890625,0.0474090576171875
1700516161692722400,6.581722412109375,-0.89874267578125,-0.6079254150390625,0.232940673828125
1700516161702732500,6.591732666015625,-1.1001434326171875,-1.055023193359375,-0.1511383056640625
1700516161712742700,6.60174267578125,-0.889923095703125,0.333099365234375,0.24176025390625
1700516161722751700,6.611751708984375,-0.6526336669921875,-1.0542449951171875,0.00634765625
1700516161732761600,6.62176171875,-1.0175628662109375,-0.2059478759765625,-0.0585174560546875
1700516161742771700,6.631771728515625,-0.5259552001953125,0.071685791015625,0.2555389404296875
1700516161752781600,6.641781494140625,-1.0456085205078125,-1.27197265625,-0.123260498046875
1700516161762791700,6.651791748046875,-1.3018646240234375,0.2162628173828125,0.1257171630859375
1700516161772801500,6.661801513671875,-0.778717041015625,-0.948577880859375,0.1970062255859375
1700516161782811600,6.671811767578125,-1.479705810546875,-1.0401611328125,-0.16522216796875
1700516161792821800,6.68182177734375,-0.8957672119140625,0.146148681640625,0.2572174072265625
1700516161802831600,6.69183154296875,-0.6765594482421875,-1.3698272705078125,-0.0270538330078125
1700516161812841700,6.701841796875,-1.074432373046875,-0.0647430419921875,-0.1224517822265625
1700516161822851600,6.7118515625,-0.5345458984375,-0.4430084228515625,0.3603363037109375
1700516161832860700,6.721860595703125,-0.942840576171875,-0.6341400146484375,-0.2198638916015625
1700516161842870800,6.731870849609375,-0.7021484375,0.635406494140625,0.18524169921875
1700516161852880600,6.741880615234375,-0.518829345703125,-1.129974365234375,0.1254730224609375
1700516161862890800,6.751890869140625,-1.455963134765625,-0.57403564453125,-0.2808685302734375
1700516161872900600,6.761900634765625,-1.267852783203125,-0.0199432373046875,0.4939727783203125
1700516161882910700,6.77191064453125,-1.0882568359375,-1.258453369140625,-0.1378936767578125
1700516161892924700,6.781924560546875,-1.2315826416015625,0.0753936767578125,0.0430145263671875
1700516161902934500,6.7919345703125,-0.41845703125,-0.8592529296875,0.2305908203125
1700516161912944600,6.801944580078125,-1.20941162109375,-0.6391448974609375,-0.2181549072265625
1700516161922954500,6.81195458984375,-0.9208831787109375,-0.0422821044921875,0.4381866455078125
1700516161932964600,6.821964599609375,-0.8444061279296875,-1.2566375732421875,-0.1525421142578125
1700516161942974500,6.831974365234375,-1.0320892333984375,0.204437255859375,-0.0143280029296875
1700516161952984600,6.841984619140625,-0.379547119140625,-0.484832763671875,0.275238037109375
1700516161962993700,6.85199365234375,-1.01593017578125,-1.0910491943359375,-0.3595733642578125
1700516161973003500,6.86200341796875,-1.1399993896484375,0.1464385986328125,0.296173095703125
1700516161983013600,6.872013671875,-0.8372650146484375,-1.06414794921875,-0.0345458984375
1700516161993023700,6.882023681640625,-1.38623046875,-0.3658599853515625,-0.090484619140625
1700516162003033600,6.89203369140625,-0.5781097412109375,-0.1724700927734375,0.408477783203125
1700516162013043700,6.902043701171875,-0.6836395263671875,-0.8339996337890625,-0.2397308349609375
1700516162023053600,6.912053466796875,-1.103546142578125,-0.1278228759765625,0.2288665771484375
1700516162033063700,6.922063720703125,-0.6923980712890625,-0.972137451171875,-0.0796966552734375
1700516162043073500,6.932073486328125,-1.38055419921875,-0.1820220947265625,-0.040771484375
1700516162053083600,6.942083740234375,-0.8304290771484375,-0.5844268798828125,0.3535614013671875
1700516162063093800,6.95209375,-0.8390350341796875,-0.781158447265625,-0.373687744140625
1700516162073103600,6.962103515625,-0.787567138671875,0.0718536376953125,0.37884521484375
1700516162083113700,6.97211376953125,-0.5702056884765625,-1.0580596923828125,-0.030914306640625
1700516162093123600,6.98212353515625,-1.3015899658203125,0.1856231689453125,-0.080413818359375
1700516162103133700,6.9921337890625,-0.53985595703125,-0.3835296630859375,0.4557952880859375
1700516162113142800,7.002142822265625,-1.2679290771484375,-1.1568450927734375,-0.3194122314453125
1700516162123152600,7.012152587890625,-1.3730926513671875,-0.245147705078125,0.3208465576171875
1700516162133162800,7.022162841796875,-0.694976806640625,-0.64794921875,0.0446624755859375
1700516162143172600,7.032172607421875,-1.0193634033203125,-0.191162109375,0.0372467041015625
1700516162153182500,7.042182373046875,-0.6298065185546875,-0.8932342529296875,0.14581298828125
1700516162163192600,7.052192626953125,-1.3230743408203125,-0.223785400390625,-0.1421356201171875
1700516162173202400,7.062202392578125,-0.891754150390625,-0.2465362548828125,0.3257293701171875
1700516162183212500,7.072212646484375,-0.9263916015625,-0.8762054443359375,-0.1783905029296875
1700516162193222400,7.082222412109375,-0.974212646484375,-0.2203369140625,0.171600341796875
1700516162203232500,7.092232421875,-0.752471923828125,-0.64715576171875,-0.08538818359375
1700516162213242600,7.10224267578125,-1.2548675537109375,-0.477294921875,0.0569305419921875
1700516162223252500,7.11225244140625,-0.8478851318359375,-0.6889495849609375,0.0207061767578125
1700516162233262600,7.1222626953125,-0.9872589111328125,-0.1475982666015625,-0.1104736328125
1700516162243272400,7.1322724609375,-0.6832733154296875,-0.5649566650390625,0.131927490234375
1700516162253282600,7.142282470703125,-0.9742279052734375,-0.54510498046875,-0.0822601318359375
1700516162263292700,7.152292724609375,-0.99578857421875,-0.3960418701171875,0.0799407958984375
1700516162273302500,7.162302490234375,-0.829986572265625,-0.4889984130859375,-0.0275421142578125
1700516162283311600,7.1723115234375,-0.86932373046875,-0.4617919921875,0.1208343505859375
1700516162293321700,7.18232177734375,-0.7658233642578125,-0.5175018310546875,0.01422119140625
1700516162303331600,7.19233154296875,-1.16986083984375,-0.5998687744140625,0.0732879638671875
1700516162313341700,7.202341796875,-0.68212890625,-0.332305908203125,0.0416259765625
1700516162323351600,7.2123515625,-0.9149169921875,-0.2533721923828125,-0.0305633544921875
1700516162333361700,7.222361572265625,-0.6761322021484375,-0.6338958740234375,0.067718505859375
1700516162343371500,7.23237158203125,-1.13189697265625,-0.48046875,-0.088714599609375
1700516162353381600,7.242381591796875,-1.1820220947265625,-0.3636474609375,0.135101318359375
1700516162363391700,7.252391845703125,-0.9413299560546875,-0.2767791748046875,-0.0313720703125
1700516162373401600,7.262401611328125,-0.8623809814453125,-0.5922393798828125,0.1243743896484375
1700516162383411700,7.27241162109375,-0.9345550537109375,-0.54986572265625,-0.1091461181640625
1700516162393421600,7.282421630859375,-1.37164306640625,-0.3857421875,0.1503753662109375
1700516162403431700,7.292431640625,-1.0222625732421875,-0.3902130126953125,0.02978515625
1700516162413441500,7.302441650390625,-1.0174407958984375,-0.380218505859375,0.09033203125
1700516162423451600,7.31245166015625,-0.9150390625,-0.7899169921875,-0.0351104736328125
1700516162433461800,7.322461669921875,-1.184478759765625,-0.127899169921875,0.0953216552734375
1700516162443471600,7.3324716796875,-0.875518798828125,-0.5528106689453125,0.0464630126953125
1700516162453481700,7.342481689453125,-0.8656005859375,-0.281097412109375,0.0041351318359375
1700516162463491600,7.35249169921875,-0.7693023681640625,-0.76214599609375,0.040130615234375
1700516162473501700,7.362501708984375,-1.0847930908203125,-0.255035400390625,0.0504302978515625
1700516162483511800,7.37251171875,-0.8978271484375,-0.4456787109375,0.0343475341796875
1700516162493521700,7.382521728515625,-0.7726593017578125,-0.180267333984375,0.08160400390625
1700516162503531800,7.39253173828125,-0.8018951416015625,-0.75482177734375,0.0003509521484375
1700516162513541600,7.402541748046875,-1.1337432861328125,-0.3727569580078125,0.00537109375
1700516162523551700,7.4125517578125,-0.95184326171875,-0.2817840576171875,0.1279754638671875
1700516162533560600,7.422560546875,-0.74749755859375,-0.234527587890625,0.0207061767578125
1700516162543570400,7.4325703125,-0.751739501953125,-0.7703094482421875,0.0644378662109375
1700516162553580500,7.44258056640625,-1.180572509765625,-0.4550018310546875,0.0106353759765625
1700516162563590400,7.45259033203125,-0.927032470703125,-0.2347259521484375,0.1982574462890625
1700516162573600500,7.4626005859375,-0.8934783935546875,-0.3542022705078125,-0.0638580322265625
1700516162583610600,7.472610595703125,-0.8117828369140625,-0.5799713134765625,0.0642852783203125
1700516162593620500,7.482620361328125,-1.0225677490234375,-0.4519805908203125,-0.015106201171875
1700516162603630600,7.492630615234375,-0.81658935546875,-0.2767791748046875,0.096923828125
1700516162613640400,7.502640380859375,-0.8593902587890625,-0.2501678466796875,0.0891876220703125
1700516162623650600,7.512650634765625,-0.776153564453125,-0.63946533203125,-0.0572052001953125
1700516162633660700,7.52266064453125,-1.167144775390625,-0.4783935546875,0.1748199462890625
1700516162643670500,7.53267041015625,-0.8315277099609375,-0.0229949951171875,0.0396270751953125
1700516162653680600,7.5426806640625,-0.8871307373046875,-0.6628570556640625,0.0779266357421875
1700516162663690500,7.5526904296875,-1.1110382080078125,-0.4439697265625,-0.1029052734375
1700516162673700600,7.56270068359375,-1.15789794921875,-0.5264739990234375,0.056365966796875
1700516162683710500,7.57271044921875,-0.8064422607421875,0.1222991943359375,-0.065582275390625
1700516162693720600,7.582720458984375,-0.8162078857421875,-0.836334228515625,0.091033935546875
1700516162703730700,7.592730712890625,-1.2303466796875,-0.628204345703125,-0.0146942138671875
1700516162713740500,7.602740478515625,-1.068817138671875,-0.272064208984375,0.0998077392578125
1700516162723750700,7.612750732421875,-0.9948272705078125,0.0310821533203125,0.014312744140625
1700516162733760500,7.622760498046875,-0.917816162109375,-0.7400970458984375,0.01068115234375
1700516162743770600,7.6327705078125,-1.158935546875,-0.49810791015625,0.095550537109375
1700516162753780500,7.642780517578125,-0.8895721435546875,-0.2107391357421875,-0.023712158203125
1700516162763790600,7.65279052734375,-0.7740631103515625,-0.16229248046875,0.1351776123046875
1700516162773800700,7.66280078125,-0.87109375,-0.68023681640625,-0.1303558349609375
1700516162783810600,7.672810546875,-1.358642578125,-0.476898193359375,0.041961669921875
1700516162793820700,7.682820556640625,-0.8682708740234375,0.0945892333984375,0.02130126953125
1700516162803830500,7.69283056640625,-0.667755126953125,-0.7061614990234375,0.074249267578125
1700516162813840600,7.702840576171875,-0.9248046875,-0.505706787109375,-0.108367919921875
1700516162823850800,7.712850830078125,-1.0280609130859375,-0.4403533935546875,0.0527496337890625
1700516162833860600,7.722860595703125,-0.88275146484375,-0.0167236328125,-0.0306854248046875
1700516162843870700,7.73287060546875,-0.9102325439453125,-0.8533782958984375,-0.0275726318359375
1700516162853880600,7.742880615234375,-1.1887664794921875,-0.5568389892578125,0.0072784423828125
1700516162863890700,7.752890625,-0.8766632080078125,-0.1230316162109375,0.1161346435546875
1700516162873900500,7.762900634765625,-0.863800048828125,-0.4401092529296875,0.0704803466796875
1700516162883910700,7.77291064453125,-1.125579833984375,-0.605743408203125,0.0068817138671875
1700516162893920300,7.782920166015625,-1.288055419921875,-0.5727386474609375,0.1540069580078125
1700516162903930000,7.79293017578125,-0.8403167724609375,0.2109222412109375,-0.05816650390625
1700516162913940200,7.802940185546875,-0.6870574951171875,-0.7388458251953125,0.1737518310546875
1700516162923950000,7.8129501953125,-1.1108551025390625,-0.54425048828125,-0.069732666015625
1700516162933960200,7.822960205078125,-1.04815673828125,-0.2223663330078125,0.060546875
1700516162943970300,7.83297021484375,-0.7748260498046875,-0.2686004638671875,0.0346527099609375
1700516162953980200,7.842980224609375,-0.939056396484375,-0.5213165283203125,-0.0472412109375
1700516162963990300,7.852990234375,-1.21014404296875,-0.417724609375,0.0146942138671875
1700516162974000000,7.863000244140625,-0.748565673828125,-0.0473480224609375,0.0525054931640625
1700516162984010200,7.87301025390625,-0.7666778564453125,-0.706817626953125,0.1565093994140625
1700516162994020000,7.88302001953125,-1.0339508056640625,-0.376983642578125,0.0121917724609375
1700516163004030200,7.8930302734375,-1.1855316162109375,-0.365692138671875,0.069671630859375
1700516163014040300,7.903040283203125,-0.6958160400390625,-0.17596435546875,-0.00311279296875
1700516163024050200,7.91305029296875,-0.6726226806640625,-0.5201416015625,0.0227203369140625
1700516163034060300,7.923060302734375,-1.174835205078125,-0.40960693359375,0.0304718017578125
1700516163044070100,7.933070068359375,-1.1453094482421875,-0.067474365234375,0.010650634765625
1700516163054080300,7.943080322265625,-1.0980987548828125,-0.5984344482421875,0.0675506591796875
1700516163064090400,7.95309033203125,-1.02325439453125,-0.3414306640625,-0.121063232421875
1700516163074100200,7.963100341796875,-0.9022369384765625,-0.4426727294921875,-0.038970947265625
1700516163084110300,7.9731103515625,-0.903167724609375,-0.1734619140625,-0.1024169921875
1700516163094120200,7.9831201171875,-0.8507080078125,-0.493377685546875,-0.0618896484375
1700516163104130300,7.99313037109375,-1.1686248779296875,-0.5637054443359375,0.1043853759765625
1700516163114140200,8.00314013671875,-0.8809814453125,-0.1010894775390625,0.009490966796875
1700516163124150300,8.013150390625,-0.681060791015625,-0.527313232421875,0.1308441162109375
1700516163134160400,8.023160400390625,-0.85687255859375,-0.4392547607421875,0.0553436279296875
1700516163144170000,8.033169921875,-1.068603515625,-0.548919677734375,0.147308349609375
1700516163154180000,8.04318017578125,-0.7413177490234375,0.0515594482421875,-0.0150604248046875
1700516163164190000,8.05318994140625,-0.6441802978515625,-0.532073974609375,0.1219940185546875
1700516163174200000,8.063199951171875,-0.92132568359375,-0.6764984130859375,-0.0019073486328125
1700516163184210200,8.073210205078125,-1.0496063232421875,0.016510009765625,-0.0549163818359375
1700516163194220000,8.083219970703125,-1.07757568359375,-0.408447265625,0.0230255126953125
1700516163204230100,8.093230224609375,-1.479339599609375,-0.6993408203125,-0.11376953125
1700516163214240000,8.103239990234375,-1.3880615234375,-0.27728271484375,-0.0005950927734375
1700516163224250000,8.11325,-0.7756500244140625,0.039398193359375,-0.020904541015625
1700516163234260000,8.123260009765625,-0.630218505859375,-0.85498046875,-0.082763671875
1700516163244270000,8.13327001953125,-1.0911407470703125,-0.521392822265625,0.021240234375
1700516163254280200,8.1432802734375,-0.9305572509765625,0.0544891357421875,0.03619384765625
1700516163264290000,8.1532900390625,-0.9553680419921875,-0.640869140625,0.108856201171875
1700516163274300200,8.163300048828125,-1.0352020263671875,-0.3592681884765625,-0.059051513671875
1700516163284310000,8.17331005859375,-0.7661895751953125,-0.4842987060546875,0.1057586669921875
1700516163294320000,8.183320068359375,-0.6577606201171875,-0.1731109619140625,0.04803466796875
1700516163304330000,8.193330078125,-0.786407470703125,-0.5018463134765625,0.14129638671875
1700516163314340000,8.203340087890625,-1.107818603515625,-0.479339599609375,0.082855224609375
1700516163324350200,8.21335009765625,-0.9542236328125,-0.104248046875,0.081451416015625
1700516163334360000,8.223360107421875,-0.893280029296875,-0.3678131103515625,0.049041748046875
1700516163344370200,8.2333701171875,-0.9853668212890625,-0.365447998046875,-0.0522308349609375
1700516163354380000,8.243380126953125,-1.255096435546875,-0.62457275390625,0.054718017578125
1700516163364390100,8.25339013671875,-0.9481353759765625,-0.0316009521484375,-0.0984344482421875
1700516163374400300,8.263400146484376,-0.8848419189453125,-0.4467315673828125,0.0492706298828125
1700516163384410000,8.27341015625,-1.1776123046875,-0.559661865234375,-0.0371246337890625
1700516163394420200,8.283420166015626,-0.9652252197265625,0.0631866455078125,0.037811279296875
1700516163404430000,8.29343017578125,-0.69866943359375,-0.6088104248046875,0.0736846923828125
1700516163414440200,8.303440185546876,-1.0143280029296875,-0.5045166015625,-0.049835205078125
1700516163424451000,8.313451171875,-1.1089935302734375,-0.263519287109375,0.1804656982421875
1700516163434461200,8.323461181640624,-0.7144927978515625,-0.1544952392578125,-0.002227783203125
1700516163444471000,8.333470947265624,-0.6533355712890625,-0.5927276611328125,0.024169921875
1700516163454481200,8.343481201171874,-1.0451202392578125,-0.3813018798828125,0.0870208740234375
1700516163464491000,8.353490966796874,-0.800750732421875,0.0597686767578125,-0.0100555419921875
1700516163474501000,8.363501220703125,-0.68310546875,-0.6803436279296875,0.0748443603515625
1700516163484511200,8.37351123046875,-0.80523681640625,-0.3141937255859375,-0.0840606689453125
1700516163494521000,8.38352099609375,-0.9295501708984375,-0.3387451171875,-0.010955810546875
1700516163504531200,8.39353125,-0.82427978515625,-0.1504058837890625,-0.0603790283203125
1700516163514541000,8.403541015625,-0.867218017578125,-0.5926055908203125,-0.0303192138671875
1700516163524551200,8.41355126953125,-1.0005950927734375,-0.6034088134765625,-0.088287353515625
1700516163534561300,8.423561279296875,-0.879608154296875,0.2195892333984375,0.050628662109375
1700516163544571100,8.433571044921875,-0.9255828857421875,-0.6027679443359375,0.1788787841796875
1700516163554581200,8.443581298828125,-1.3218231201171875,-0.6403350830078125,0.091033935546875
1700516163564591000,8.453591064453125,-1.304779052734375,-0.1944580078125,0.2563018798828125
1700516163574601200,8.463601318359375,-0.963287353515625,-0.07818603515625,0.11614990234375
1700516163584611000,8.473611083984375,-1.0349578857421875,-0.569610595703125,0.0587005615234375
1700516163594621200,8.48362109375,-1.2228240966796875,-0.4215087890625,0.0933990478515625
1700516163604631300,8.49363134765625,-1.0148162841796875,-0.041961669921875,-0.1607666015625
1700516163614641200,8.50364111328125,-0.897613525390625,-0.428802490234375,-0.006103515625
1700516163624651300,8.5136513671875,-0.9728240966796875,-0.6555023193359375,-0.1875152587890625
1700516163634661000,8.5236611328125,-0.9093170166015625,-0.244415283203125,0.0195159912109375
1700516163644671200,8.533671142578125,-0.892822265625,-0.1802825927734375,0.0323486328125
1700516163654681000,8.54368115234375,-0.8200531005859375,-0.5380859375,-0.03607177734375
1700516163664691200,8.553691162109375,-1.2938690185546875,-0.4178466796875,0.1671905517578125
1700516163674701300,8.563701416015626,-1.139892578125,0.152862548828125,0.075439453125
1700516163684711200,8.573711181640626,-1.02142333984375,-0.7144775390625,0.19488525390625
1700516163694722000,8.58372216796875,-1.153778076171875,-0.428955078125,-0.03643798828125
1700516163704732200,8.593732177734376,-0.7088623046875,-0.1146087646484375,0.208099365234375
1700516163714742300,8.6037421875,-0.8079071044921875,-0.3987579345703125,0.0530242919921875
1700516163724752100,8.613752197265624,-0.75128173828125,-0.4798583984375,-0.0811004638671875
1700516163734762200,8.62376220703125,-0.8850555419921875,-0.475616455078125,0.0662078857421875
1700516163744772000,8.633772216796874,-0.6320648193359375,0.055023193359375,-0.1177520751953125
1700516163754782200,8.6437822265625,-0.8051910400390625,-0.4185791015625,0.0677032470703125
1700516163764792300,8.653792236328124,-0.9755096435546875,-0.8054962158203125,-0.141326904296875
1700516163774802200,8.66380224609375,-1.058746337890625,-0.113525390625,0.07470703125
1700516163784812300,8.673812255859374,-0.4574127197265625,0.1102752685546875,-0.0703277587890625
1700516163794822100,8.683822265625,-1.196075439453125,-0.5623931884765625,0.230560302734375
1700516163804832300,8.693832275390625,-0.9528045654296875,-0.3599853515625,0.1405487060546875
1700516163814842000,8.703842041015625,-1.3421478271484375,0.0987091064453125,0.05340576171875
1700516163824852200,8.713852294921875,-1.4253997802734375,-0.5169677734375,0.0208282470703125
1700516163834862300,8.7238623046875,-1.901641845703125,-0.677703857421875,-0.1173095703125
1700516163844872200,8.7338720703125,-0.7892913818359375,-0.1324310302734375,0.08758544921875
1700516163854882300,8.74388232421875,-0.2907562255859375,-0.30859375,-0.0990447998046875
1700516163864892200,8.75389208984375,-0.6157684326171875,-0.583831787109375,-0.221923828125
1700516163874902300,8.76390234375,-1.0284881591796875,-0.3370208740234375,0.123931884765625
1700516163884912000,8.773912109375,-1.11029052734375,-0.0390625,0.07550048828125
1700516163894919000,8.7839189453125,-0.9263458251953125,-0.525634765625,0.038055419921875
1700516163904929800,8.7939296875,-1.376007080078125,-0.5616455078125,0.2575836181640625
1700516163914940000,8.80393994140625,-1.0525360107421875,0.288970947265625,0.045440673828125
1700516163924949800,8.81394970703125,-0.8839874267578125,-0.7202301025390625,0.1436309814453125
1700516163934959900,8.8239599609375,-1.261810302734375,-0.528228759765625,-0.0499725341796875
1700516163944970000,8.833969970703125,-1.060821533203125,-0.038177490234375,0.0303955078125
1700516163954979800,8.843979736328125,-0.7951507568359375,-0.2028045654296875,0.0420074462890625
1700516163964990000,8.853989990234375,-0.908905029296875,-0.707275390625,-0.0963897705078125
1700516163974999800,8.863999755859375,-1.334686279296875,-0.4732818603515625,-0.064361572265625
1700516163985010000,8.874010009765625,-0.7019805908203125,0.2400970458984375,0.032135009765625
1700516163995020000,8.88402001953125,-0.4761199951171875,-0.6383209228515625,-0.0205230712890625
1700516164005030000,8.89402978515625,-1.0307159423828125,-0.6323699951171875,-0.0866241455078125
1700516164015040000,8.9040400390625,-1.0172882080078125,-0.1926422119140625,0.0029754638671875
1700516164025049900,8.9140498046875,-0.58221435546875,0.015716552734375,0.0299835205078125
1700516164035060000,8.92406005859375,-1.1357879638671875,-0.5675811767578125,0.2865142822265625
1700516164045069800,8.93406982421875,-1.4892578125,-0.4644317626953125,-0.00799560546875
1700516164055080000,8.944079833984375,-1.0504913330078125,0.0179290771484375,-0.0457000732421875
1700516164065090800,8.9540908203125,-0.7463531494140625,-0.6026153564453125,-0.01123046875
1700516164075101000,8.964100830078126,-1.02978515625,-0.371337890625,-0.2020416259765625
1700516164085110800,8.97411083984375,-0.703857421875,-0.1101531982421875,-0.06646728515625
1700516164095121000,8.984120849609376,-0.6935882568359375,-0.5050048828125,0.0411224365234375
1700516164105131000,8.994131103515626,-0.8674163818359375,-0.200408935546875,-0.06927490234375
1700516164115140900,9.004140869140626,-0.891326904296875,-0.410125732421875,0.010284423828125
1700516164125151000,9.01415087890625,-0.8274993896484375,-0.044647216796875,-0.04119873046875
1700516164135160800,9.024160888671876,-0.7104949951171875,-0.400634765625,0.062530517578125
1700516164145171000,9.0341708984375,-1.177001953125,-0.4485931396484375,0.0059967041015625
1700516164155181000,9.04418115234375,-1.2589569091796875,0.1040191650390625,0.2186431884765625
1700516164165191000,9.05419091796875,-1.328094482421875,-0.5682220458984375,0.148345947265625
1700516164175201000,9.064200927734374,-1.244903564453125,-0.324554443359375,-0.0760345458984375
1700516164185211000,9.0742109375,-1.015350341796875,-0.4359893798828125,0.117584228515625
1700516164195221000,9.084220947265624,-0.990081787109375,-0.038543701171875,-0.1892547607421875
1700516164205230800,9.09423095703125,-0.82415771484375,-0.4328765869140625,-0.0839385986328125
1700516164215242000,9.104241943359375,-1.146881103515625,-0.6772918701171875,-0.0677947998046875
1700516164225251800,9.114251953125,-0.730499267578125,0.1866302490234375,-0.100982666015625
1700516164235262000,9.124261962890625,-0.5125732421875,-0.5738067626953125,0.0829620361328125
1700516164245271800,9.134271728515625,-1.013702392578125,-0.508697509765625,-0.210693359375
1700516164255282000,9.144281982421875,-1.0348663330078125,-0.2134857177734375,0.109588623046875
1700516164265292000,9.1542919921875,-0.9505615234375,-0.0330657958984375,0.1180877685546875
1700516164275302000,9.164302001953125,-0.86724853515625,-0.6011505126953125,0.12713623046875
1700516164285312000,9.17431201171875,-1.1812896728515625,-0.4340362548828125,0.0010223388671875
1700516164295321900,9.18432177734375,-0.6012420654296875,0.186767578125,0.017242431640625
1700516164305332000,9.19433203125,-0.5047454833984375,-0.54150390625,0.0572967529296875
1700516164315341800,9.204341796875,-0.9446258544921875,-0.677581787109375,-0.1769561767578125
1700516164325352000,9.21435205078125,-1.2443084716796875,-0.0914459228515625,0.142974853515625
1700516164335362000,9.224362060546875,-0.85430908203125,-0.061126708984375,-0.00823974609375
1700516164345373000,9.234373046875,-1.04791259765625,-0.4376220703125,0.0934600830078125
1700516164355383000,9.244383056640626,-1.3618621826171875,-0.4490814208984375,0.0340118408203125
1700516164365393000,9.254392822265626,-0.9049530029296875,0.0107574462890625,0.069854736328125
1700516164375403000,9.264403076171876,-0.7438507080078125,-0.4821929931640625,0.0460662841796875
1700516164385412900,9.274412841796876,-1.021697998046875,-0.4837646484375,-0.025665283203125
1700516164395423000,9.284423095703126,-1.221435546875,-0.3211212158203125,0.14666748046875
1700516164405432800,9.294432861328126,-1.171295166015625,-0.2448883056640625,-0.06732177734375
1700516164415443000,9.30444287109375,-1.0363616943359375,-0.3434295654296875,-0.00146484375
1700516164425453000,9.314453125,-1.1140289306640625,-0.61102294921875,0.108123779296875
1700516164435463000,9.324462890625,-0.8726654052734375,0.139678955078125,-0.06597900390625
1700516164445473000,9.33447314453125,-0.604888916015625,-0.676788330078125,0.10272216796875
1700516164455483000,9.34448291015625,-1.1128997802734375,-0.521881103515625,-0.14263916015625
1700516164465494000,9.354493896484374,-0.951263427734375,0.0441131591796875,0.1304168701171875
1700516164475503900,9.36450390625,-0.739105224609375,-0.39080810546875,0.0788421630859375
1700516164485514000,9.374513916015625,-0.933868408203125,-0.5623931884765625,-0.13726806640625
1700516164495523800,9.38452392578125,-1.1819000244140625,-0.2665863037109375,0.223419189453125
1700516164505534000,9.394533935546875,-0.5236053466796875,0.11370849609375,0.0229339599609375
1700516164515544000,9.4045439453125,-0.676513671875,-0.5846710205078125,0.0571136474609375
1700516164525554000,9.414553955078125,-1.3285064697265625,-0.4210052490234375,-0.1102447509765625
1700516164535564000,9.42456396484375,-1.198394775390625,-0.083038330078125,0.2061004638671875
1700516164545574000,9.434573974609375,-0.7642669677734375,-0.3834381103515625,-0.02093505859375
1700516164555584000,9.444583984375,-0.9908447265625,-0.33795166015625,-0.1320953369140625
1700516164565593900,9.45459375,-0.9667510986328125,-0.5015106201171875,0.1696624755859375
1700516164575604000,9.46460400390625,-0.7133941650390625,-0.0126800537109375,-0.043548583984375
1700516164585614800,9.47461474609375,-0.8844146728515625,-0.3892822265625,0.148834228515625
1700516164595625000,9.484625,-1.4656982421875,-0.6016693115234375,-0.024139404296875
1700516164605634800,9.494634765625,-1.05877685546875,0.12872314453125,0.1613006591796875
1700516164615645000,9.50464501953125,-0.833282470703125,-0.4647674560546875,0.309783935546875
1700516164625655000,9.514655029296875,-1.1286773681640625,-0.6643218994140625,-0.075653076171875
1700516164635665000,9.524664794921875,-1.3905792236328125,-0.0963897705078125,0.2940826416015625
1700516164645675000,9.534675048828126,-1.1585235595703125,-0.2288055419921875,0.042877197265625
1700516164655684900,9.544684814453126,-0.877899169921875,-0.6942901611328125,-0.1088714599609375
1700516164665695000,9.554695068359376,-0.922027587890625,-0.0456390380859375,0.098419189453125
1700516164675704800,9.564704833984376,-0.622650146484375,-0.218597412109375,0.0160369873046875
1700516164685715000,9.57471484375,-0.914276123046875,-0.6534271240234375,0.151092529296875
1700516164695725800,9.584725830078124,-1.1428375244140625,-0.2362823486328125,-0.033416748046875
1700516164705736000,9.59473583984375,-1.4192047119140625,-0.3020172119140625,0.4143218994140625
1700516164715746000,9.60474609375,-1.055206298828125,-0.030487060546875,0.059051513671875
1700516164725756000,9.614755859375,-0.8816680908203125,-0.407470703125,0.1741943359375
1700516164735766000,9.62476611328125,-1.067474365234375,-0.5780487060546875,0.012939453125
1700516164745775900,9.63477587890625,-0.7817840576171875,0.1327667236328125,0.0239715576171875
1700516164755786000,9.644785888671874,-0.68450927734375,-0.44732666015625,0.091796875
1700516164765795800,9.6547958984375,-0.998870849609375,-0.6920928955078125,-0.1719970703125
1700516164775806000,9.664805908203125,-1.1523590087890625,0.0463714599609375,0.1934814453125
1700516164785816000,9.674816162109375,-0.6674041748046875,-0.0934906005859375,0.133087158203125
1700516164795827000,9.684826904296875,-0.727264404296875,-0.6344451904296875,0.016448974609375
1700516164805836800,9.6948369140625,-1.1705474853515625,-0.3092041015625,0.1339569091796875
1700516164815847000,9.704846923828125,-0.8436431884765625,0.0733795166015625,0.2217254638671875
1700516164825857000,9.71485693359375,-0.853363037109375,-0.4031982421875,0.1275634765625
1700516164835867000,9.724866943359375,-1.0641937255859375,-0.44085693359375,-0.05560302734375
1700516164845877000,9.734876953125,-0.9578704833984375,-0.170013427734375,0.2252349853515625
1700516164855886800,9.744886962890625,-0.7127838134765625,-0.146636962890625,0.1395721435546875
1700516164865897000,9.75489697265625,-0.8485260009765625,-0.4764556884765625,-0.0171051025390625
1700516164875907000,9.764906982421875,-1.3453216552734375,-0.482391357421875,0.004486083984375
1700516164885917000,9.7749169921875,-1.1954345703125,0.2190704345703125,0.1406097412109375
1700516164895927600,9.784927490234375,-0.9955902099609375,-0.628021240234375,0.183258056640625
1700516164905937700,9.794937744140626,-1.3228759765625,-0.3883209228515625,-0.3704833984375
1700516164915947800,9.80494775390625,-1.1361083984375,0.0066680908203125,0.40869140625
1700516164925957600,9.81495751953125,-0.7576141357421875,-0.520904541015625,0.0281524658203125
1700516164935967700,9.8249677734375,-0.97979736328125,-0.308074951171875,-0.119659423828125
1700516164945977600,9.8349775390625,-0.9796905517578125,-0.383026123046875,0.27392578125
1700516164955987700,9.84498779296875,-0.7651214599609375,-0.0196533203125,0.104339599609375
1700516164965997600,9.85499755859375,-0.85211181640625,-0.4127960205078125,0.164093017578125
1700516164976007700,9.865007568359376,-0.8863677978515625,-0.541839599609375,-0.1386566162109375
1700516164986017800,9.875017822265624,-0.85296630859375,0.03131103515625,0.21258544921875
1700516164996028700,9.885028564453124,-0.641265869140625,-0.0644073486328125,0.1300201416015625
1700516165006038800,9.895038818359374,-1.2311859130859375,-0.6515960693359375,-0.04791259765625
1700516165016048600,9.905048583984374,-1.20672607421875,-0.2061920166015625,-0.1157684326171875
1700516165026058800,9.915058837890625,-0.4278106689453125,0.21429443359375,0.1580047607421875
1700516165036068600,9.925068603515625,-0.662628173828125,-0.4713134765625,-0.0218505859375
1700516165046078700,9.93507861328125,-0.6100311279296875,-0.5239715576171875,-0.168731689453125
1700516165056088600,9.945088623046875,-1.0687713623046875,-0.1115875244140625,0.1359710693359375
1700516165066098700,9.9550986328125,-0.5509185791015625,-0.1194305419921875,0.05694580078125
1700516165076108800,9.96510888671875,-0.9017333984375,-0.325653076171875,0.0742950439453125
1700516165086119700,9.97511962890625,-0.8819732666015625,-0.410186767578125,0.0997772216796875
1700516165096129500,9.985129638671875,-0.7350921630859375,0.049774169921875,0.0900726318359375
1700516165106139600,9.9951396484375,-1.144012451171875,-0.353118896484375,0.1483001708984375
1700516165116149800,10.005149658203125,-1.5283355712890625,-0.5589447021484375,-0.1659393310546875
1700516165126159600,10.01515966796875,-1.1896820068359375,0.20587158203125,0.3074188232421875
1700516165136169700,10.025169677734375,-0.711669921875,-0.3114471435546875,0.0912322998046875
1700516165146179600,10.0351796875,-1.0617218017578125,-0.50054931640625,-0.019439697265625
1700516165156189700,10.045189697265625,-1.3729095458984375,-0.335540771484375,0.23626708984375
1700516165166199800,10.05519970703125,-1.1001129150390625,0.00927734375,0.030853271484375
1700516165176210700,10.065210693359376,-0.848876953125,-0.4520721435546875,0.26019287109375
1700516165186220500,10.075220458984376,-0.884796142578125,-0.5530242919921875,-0.0451507568359375
1700516165196230700,10.085230712890626,-0.813720703125,0.1419830322265625,0.0589599609375
1700516165206240800,10.09524072265625,-0.697357177734375,-0.4795684814453125,0.1454925537109375
1700516165216250600,10.105250732421876,-1.0734100341796875,-0.5006256103515625,-0.20330810546875
1700516165226260700,10.1152607421875,-1.0574188232421875,0.050689697265625,0.40869140625
1700516165236270600,10.1252705078125,-0.640869140625,-0.205108642578125,0.131744384765625
1700516165246280700,10.13528076171875,-1.00897216796875,-0.4879150390625,-0.0391693115234375
1700516165256291600,10.14529150390625,-1.35693359375,-0.4122314453125,0.073699951171875
1700516165266301700,10.1553017578125,-0.9476165771484375,0.156646728515625,0.1316680908203125
1700516165276311600,10.1653115234375,-0.7569122314453125,-0.208709716796875,0.1166534423828125
1700516165286321700,10.17532177734375,-1.164337158203125,-0.704254150390625,-0.1637420654296875
1700516165296331500,10.18533154296875,-1.2069091796875,0.0540618896484375,0.2317047119140625
1700516165306341600,10.195341552734375,-0.8808441162109375,-0.280487060546875,0.291778564453125
1700516165316351700,10.205351806640625,-0.8108367919921875,-0.409576416015625,-0.1595611572265625
1700516165326361600,10.215361572265625,-1.11981201171875,-0.188140869140625,0.2358551025390625
1700516165336372700,10.225372802734375,-0.8802490234375,-0.1690521240234375,0.170379638671875
1700516165346382600,10.235382568359375,-1.0028839111328125,-0.343048095703125,0.002593994140625
1700516165356392700,10.245392822265625,-1.3404541015625,-0.4465179443359375,0.074188232421875
1700516165366402600,10.255402587890625,-1.066741943359375,0.156097412109375,0.2479095458984375
1700516165376412700,10.26541259765625,-0.9314727783203125,-0.5240478515625,0.1143798828125
1700516165386422500,10.275422607421875,-1.4673004150390625,-0.6147003173828125,-0.19036865234375
1700516165396432600,10.2854326171875,-1.2031707763671875,0.12384033203125,0.4351654052734375
1700516165406442800,10.29544287109375,-0.9405975341796875,-0.35986328125,0.0099334716796875
1700516165416453600,10.30545361328125,-1.010040283203125,-0.3943328857421875,-0.1447906494140625
1700516165426463500,10.31546337890625,-1.088226318359375,-0.3135528564453125,0.2548065185546875
1700516165436473600,10.3254736328125,-1.014129638671875,0.1281585693359375,0.100341796875
1700516165446483700,10.335483642578126,-0.785400390625,-0.4677581787109375,0.2113037109375
1700516165456493600,10.34549365234375,-0.78875732421875,-0.4925384521484375,-0.0867919921875
1700516165466503700,10.355503662109374,-0.6132354736328125,0.0369415283203125,0.2528533935546875
1700516165476513500,10.365513427734374,-0.5657196044921875,-0.1866302490234375,0.1338653564453125
1700516165486523600,10.375523681640624,-1.1189727783203125,-0.6191864013671875,-0.1370849609375
1700516165496534500,10.385534423828124,-1.1738433837890625,-0.249786376953125,0.0741729736328125
1700516165506544600,10.395544677734375,-0.6110992431640625,0.1878204345703125,0.2201690673828125
1700516165516554500,10.405554443359375,-0.6195526123046875,-0.2395172119140625,-0.0095367431640625
1700516165526564600,10.415564697265625,-1.114715576171875,-0.7445220947265625,-0.112396240234375
1700516165536574700,10.42557470703125,-1.22314453125,-0.1638641357421875,0.207550048828125
1700516165546584600,10.43558447265625,-0.6864013671875,0.1190185546875,0.079864501953125
1700516165556594700,10.4455947265625,-1.04827880859375,-0.6499176025390625,0.016845703125
1700516165566605600,10.45560546875,-1.39544677734375,-0.2430267333984375,-0.1293487548828125
1700516165576615700,10.46561572265625,-1.0407257080078125,-0.0891876220703125,0.277984619140625
1700516165586625500,10.47562548828125,-0.819091796875,-0.2458038330078125,-0.04559326171875
1700516165596635600,10.4856357421875,-1.45819091796875,-0.49688720703125,0.0575714111328125
1700516165606645500,10.4956455078125,-1.1728363037109375,-0.0008544921875,0.3642120361328125
1700516165616655600,10.505655517578125,-0.76019287109375,-0.4028778076171875,0.2214202880859375
1700516165626665500,10.51566552734375,-1.042266845703125,-0.4691009521484375,-0.1880035400390625
1700516165636675600,10.525675537109375,-0.8803558349609375,-0.0495147705078125,0.3333587646484375
1700516165646686500,10.5356865234375,-0.7812652587890625,-0.0996856689453125,0.0176849365234375
1700516165656696600,10.545696533203126,-1.0158538818359375,-0.5334320068359375,-0.0333404541015625
1700516165666706700,10.555706787109376,-1.4450836181640625,-0.322662353515625,0.033721923828125
1700516165676716500,10.565716552734376,-0.935699462890625,-0.003326416015625,0.073089599609375
1700516165686726700,10.5757265625,-0.586334228515625,-0.2037353515625,-0.105682373046875
1700516165696736500,10.585736572265626,-0.8351898193359375,-0.73541259765625,-0.1685028076171875
1700516165706746600,10.59574658203125,-1.2022857666015625,0.03924560546875,0.0942230224609375
1700516165716757500,10.605757568359374,-0.8214569091796875,-0.060882568359375,0.110931396484375
1700516165726767600,10.615767578125,-0.9648284912109375,-0.4376373291015625,-0.2161712646484375
1700516165736777500,10.625777587890624,-1.1126251220703125,-0.419403076171875,-0.0498809814453125
1700516165746787600,10.63578759765625,-0.95697021484375,0.200225830078125,0.2109832763671875
1700516165756797400,10.64579736328125,-0.905059814453125,-0.3895721435546875,0.1564483642578125
1700516165766807600,10.6558076171875,-1.2580718994140625,-0.518402099609375,-0.0287933349609375
1700516165776817700,10.665817626953125,-1.127838134765625,0.076995849609375,0.3273468017578125
1700516165786828500,10.67582861328125,-0.6232452392578125,-0.3721160888671875,0.1736907958984375
1700516165796838400,10.68583837890625,-1.0222015380859375,-0.423583984375,-0.09100341796875
1700516165806848500,10.6958486328125,-1.3159942626953125,-0.2888946533203125,0.282440185546875
1700516165816858600,10.705858642578125,-0.946533203125,0.1130218505859375,-0.0574798583984375
1700516165826868500,10.715868408203125,-0.8523406982421875,-0.5016326904296875,0.001922607421875
1700516165836878600,10.725878662109375,-1.21826171875,-0.513092041015625,-0.240325927734375
1700516165846888400,10.735888427734375,-0.913970947265625,0.167999267578125,0.182281494140625
1700516165856899800,10.74589990234375,-0.801513671875,-0.4627532958984375,-0.0944366455078125
1700516165866909400,10.755909423828125,-0.9307098388671875,-0.4373321533203125,-0.0920867919921875
1700516165876919600,10.76591943359375,-1.2596893310546875,-0.2964935302734375,0.1583099365234375
1700516165886929400,10.775929443359376,-0.9172821044921875,0.28668212890625,-0.02923583984375
1700516165896939300,10.785939208984376,-0.781402587890625,-0.549652099609375,0.2313079833984375
1700516165906949400,10.795949462890626,-1.1489105224609375,-0.5293731689453125,-0.1146697998046875
1700516165916959200,10.805959228515626,-1.0627899169921875,0.30072021484375,0.206634521484375
1700516165926970400,10.815970458984374,-0.7978973388671875,-0.403839111328125,0.1165313720703125
1700516165936980500,10.82598046875,-1.1645965576171875,-0.4339141845703125,-0.295654296875
1700516165946990300,10.835990234375,-1.1607666015625,-0.236297607421875,0.3337249755859375
1700516165957000200,10.846000244140624,-0.7020263671875,-0.0322418212890625,-0.0452728271484375
1700516165967010300,10.85601025390625,-0.7920074462890625,-0.3631134033203125,-0.1075897216796875
1700516165977020200,10.866020263671874,-1.3292388916015625,-0.41961669921875,-0.014984130859375
1700516165987031600,10.876031494140625,-0.868560791015625,0.3008575439453125,0.0934600830078125
1700516165997041400,10.88604150390625,-0.647491455078125,-0.63470458984375,-0.0059661865234375
1700516166007051500,10.896051513671875,-0.9477996826171875,-0.2676239013671875,-0.1624755859375
1700516166017061400,10.906061279296875,-1.136627197265625,-0.3647003173828125,0.194122314453125
1700516166027071500,10.916071533203125,-0.829498291015625,0.243408203125,-0.1919097900390625
1700516166037081600,10.92608154296875,-0.798370361328125,-0.6936187744140625,0.2148895263671875
1700516166047091500,10.936091552734375,-1.021148681640625,-0.26361083984375,-0.1699066162109375
1700516166057102300,10.946102294921875,-0.81182861328125,0.3120880126953125,0.1346893310546875
1700516166067112400,10.956112548828125,-0.666534423828125,-0.4296112060546875,0.0423431396484375
1700516166077122600,10.96612255859375,-1.1469573974609375,-0.560791015625,-0.1831512451171875
1700516166087132400,10.97613232421875,-1.0360565185546875,-0.04168701171875,0.108062744140625
1700516166097142500,10.986142578125,-0.782989501953125,0.0572052001953125,0.0188140869140625
1700516166107152400,10.99615234375,-1.0998687744140625,-0.58056640625,-0.0145721435546875
1700516166117163500,11.00616357421875,-1.388397216796875,-0.2242431640625,0.0006561279296875
1700516166127173400,11.01617333984375,-1.000885009765625,0.09234619140625,0.2616424560546875
1700516166137183500,11.02618359375,-0.8472442626953125,-0.447357177734375,-0.06866455078125
1700516166147193300,11.036193359375,-1.3549652099609375,-0.368560791015625,-0.0945281982421875
1700516166157203500,11.046203369140626,-1.122467041015625,-0.111480712890625,0.127197265625
1700516166167213300,11.05621337890625,-0.7745361328125,-0.0839691162109375,-0.063812255859375
1700516166177224400,11.066224365234374,-0.68682861328125,-0.76397705078125,-0.2290496826171875
1700516166187234300,11.076234375,-1.23907470703125,0.036468505859375,-0.0044403076171875
1700516166197244400,11.086244384765624,-1.083465576171875,-0.1587982177734375,-0.0922698974609375
1700516166207254500,11.096254638671875,-0.91009521484375,-0.3974761962890625,-0.0396728515625
1700516166217264400,11.106264404296875,-0.798492431640625,-0.3957061767578125,-0.131988525390625
1700516166227274500,11.1162744140625,-0.783966064453125,0.0089569091796875,0.0748138427734375
1700516166237284400,11.126284423828125,-0.42547607421875,0.1352996826171875,-0.0611724853515625
1700516166247295500,11.13629541015625,-1.162628173828125,-0.9459228515625,0.0337677001953125
1700516166257305300,11.146305419921875,-1.240936279296875,-0.120391845703125,-0.0413665771484375
1700516166267315500,11.1563154296875,-0.903533935546875,0.430572509765625,0.075225830078125
1700516166277325300,11.1663251953125,-0.9207916259765625,-0.4858856201171875,0.079833984375
1700516166287335400,11.17633544921875,-1.127197265625,-0.382568359375,-0.13134765625
1700516166297346300,11.18634619140625,-1.0462799072265625,-0.01171875,0.1956329345703125
1700516166307356400,11.1963564453125,-0.641021728515625,-0.1988677978515625,0.002105712890625
1700516166317366300,11.2063662109375,-1.1592864990234375,-0.4229888916015625,-0.3685150146484375
1700516166327376400,11.21637646484375,-1.3882598876953125,-0.2245941162109375,0.2010040283203125
1700516166337386500,11.226386474609376,-0.746978759765625,-0.087799072265625,-0.1940155029296875
1700516166347396400,11.236396240234376,-0.9482421875,-0.5228729248046875,-0.2486724853515625
1700516166357406500,11.246406494140626,-1.32135009765625,-0.27960205078125,-0.0110626220703125
1700516166367417300,11.256417236328126,-0.8837432861328125,0.161773681640625,-0.0103912353515625
1700516166377427500,11.266427490234374,-0.8226776123046875,-0.645843505859375,-0.0306549072265625
1700516166387437300,11.276437255859374,-1.138427734375,-0.34637451171875,-0.1763763427734375
1700516166397447400,11.286447509765624,-1.1326904296875,-0.175079345703125,0.1088104248046875
1700516166407457300,11.296457275390624,-0.8052825927734375,0.1595916748046875,-0.074981689453125
1700516166417468400,11.306468505859375,-0.85626220703125,-0.7045745849609375,0.0074615478515625
1700516166427478300,11.316478271484375,-1.1325836181640625,-0.0990142822265625,-0.06024169921875
1700516166437488400,11.32648828125,-0.89404296875,0.2641448974609375,-0.0255126953125
1700516166447498200,11.336498291015625,-0.754364013671875,-0.5949859619140625,0.032379150390625
1700516166457508400,11.34650830078125,-1.004180908203125,-0.2710113525390625,-0.158203125
1700516166467518200,11.356518310546875,-0.8286285400390625,0.0810699462890625,0.0288238525390625
1700516166477529300,11.366529296875,-0.8108062744140625,-0.2231597900390625,0.03839111328125
1700516166487539200,11.376539306640625,-1.0219879150390625,-0.60650634765625,-0.225341796875
1700516166497549300,11.38654931640625,-0.9757080078125,-0.06243896484375,-0.039825439453125
1700516166507559400,11.396559326171875,-0.617279052734375,0.1287994384765625,-0.12774658203125
1700516166517569300,11.4065693359375,-0.81146240234375,-0.638458251953125,-0.0914459228515625
1700516166527579400,11.416579345703125,-1.2476654052734375,-0.5164794921875,-0.1212921142578125
1700516166537590300,11.42659033203125,-1.03717041015625,0.3161163330078125,-0.04913330078125
1700516166547600400,11.436600341796876,-0.7390289306640625,-0.4733428955078125,0.079864501953125
1700516166557610200,11.4466103515625,-1.1843414306640625,-0.3502349853515625,-0.2578277587890625
1700516166567620400,11.456620361328126,-1.218017578125,-0.31494140625,0.074676513671875
1700516166577630200,11.466630126953126,-0.814117431640625,0.1575164794921875,-0.0843963623046875
1700516166587640300,11.476640380859376,-0.835723876953125,-0.470794677734375,0.0286865234375
1700516166597651500,11.4866513671875,-1.3527374267578125,-0.4224090576171875,-0.0609588623046875
1700516166607661600,11.49666162109375,-0.9633331298828125,0.1761627197265625,0.04559326171875
1700516166617671200,11.506671142578124,-0.6373291015625,-0.426116943359375,0.1482696533203125
1700516166627681300,11.516681396484374,-0.9996337890625,-0.3724365234375,-0.258270263671875
1700516166637691100,11.526691162109374,-0.949981689453125,-0.1251983642578125,0.06683349609375
1700516166647702500,11.53670263671875,-0.81475830078125,0.004364013671875,-0.082275390625
1700516166657712400,11.54671240234375,-1.0593109130859375,-0.6253509521484375,-0.1533050537109375
1700516166667722500,11.556722412109375,-1.2939605712890625,-0.1573486328125,-0.0498199462890625
1700516166677732400,11.566732421875,-0.811859130859375,0.2034149169921875,-0.0687408447265625
1700516166687742500,11.576742431640625,-0.9595489501953125,-0.58245849609375,-0.0551605224609375
1700516166697752600,11.586752685546875,-1.3110809326171875,-0.502899169921875,-0.1312713623046875
1700516166707763500,11.596763427734375,-1.0367584228515625,0.218963623046875,-0.0043487548828125
1700516166717773300,11.606773193359375,-0.78314208984375,-0.412841796875,0.0269775390625
1700516166727783400,11.616783447265625,-0.803436279296875,-0.3999786376953125,-0.17694091796875
1700516166737793500,11.62679345703125,-1.095489501953125,-0.171051025390625,0.0620880126953125
1700516166747803400,11.636803466796875,-1.0284576416015625,0.2225341796875,-0.06744384765625
1700516166757813500,11.6468134765625,-0.730377197265625,-0.636505126953125,0.0647125244140625
1700516166767824400,11.656824462890626,-1.15692138671875,-0.1163177490234375,-0.073760986328125
1700516166777834500,11.66683447265625,-0.843353271484375,0.0722198486328125,0.07635498046875
1700516166787844400,11.67684423828125,-0.8955535888671875,-0.4375152587890625,-0.01220703125
1700516166797854500,11.6868544921875,-1.077789306640625,-0.3926849365234375,-0.2358856201171875
1700516166807864300,11.6968642578125,-1.142120361328125,-0.11669921875,0.1156158447265625
1700516166817875500,11.70687548828125,-0.955535888671875,0.079071044921875,-0.151611328125
1700516166827885300,11.71688525390625,-0.8490447998046875,-0.6614837646484375,-0.0443572998046875
1700516166837895400,11.7268955078125,-1.3700714111328125,-0.22808837890625,-0.0960845947265625
1700516166847905300,11.7369052734375,-1.0422821044921875,0.2100372314453125,-0.0675811767578125
1700516166857915400,11.746915283203125,-0.946533203125,-0.6159820556640625,0.093414306640625
1700516166867925500,11.756925537109375,-1.315704345703125,-0.463623046875,-0.13848876953125
1700516166877936400,11.766936279296875,-0.959442138671875,0.0446929931640625,0.030059814453125
1700516166887946200,11.7769462890625,-0.828155517578125,-0.24383544921875,0.0212249755859375
1700516166897956600,11.78695654296875,-0.9850311279296875,-0.4190521240234375,-0.0684814453125
1700516166907966700,11.796966796875,-1.205902099609375,-0.2519989013671875,0.0754852294921875
1700516166917976600,11.8069765625,-0.8949432373046875,0.2592315673828125,0.0090484619140625
1700516166927987500,11.816987548828125,-0.7118988037109375,-0.610595703125,0.10833740234375
1700516166937997600,11.82699755859375,-0.952484130859375,-0.1999359130859375,-0.07269287109375
1700516166948007700,11.837007568359375,-0.9755096435546875,-0.0298919677734375,0.1793975830078125
1700516166958017500,11.847017578125,-0.8794708251953125,-0.1995086669921875,-0.0719146728515625
1700516166968027600,11.857027587890625,-0.98516845703125,-0.47784423828125,-0.0775909423828125
1700516166978038500,11.86703857421875,-1.1365203857421875,-0.0866851806640625,-0.0370635986328125
1700516166988048600,11.877048583984376,-1.103973388671875,0.0787353515625,-0.31268310546875
1700516166998058500,11.88705859375,-1.1331634521484375,-0.6271514892578125,-0.0018310546875
1700516167008068600,11.897068603515624,-1.3834381103515625,-0.2884368896484375,-0.2607421875
1700516167018078500,11.907078369140624,-0.9251708984375,0.2294158935546875,-0.0160064697265625
1700516167028089600,11.917089599609374,-0.6949005126953125,-0.51068115234375,0.0524444580078125
1700516167038099500,11.927099365234374,-1.0810546875,-0.441009521484375,-0.1204986572265625
1700516167048109600,11.937109619140625,-1.0721435546875,0.0311279296875,0.2994232177734375
1700516167058119400,11.947119384765625,-0.95538330078125,-0.18499755859375,0.2011871337890625
1700516167068129500,11.957129638671875,-0.7918701171875,-0.4842529296875,0.043304443359375
1700516167078139600,11.9671396484375,-0.9458465576171875,-0.09210205078125,0.2656097412109375
1700516167088150500,11.977150634765625,-0.8148193359375,0.151214599609375,0.01190185546875
1700516167098160400,11.987160400390625,-0.9050750732421875,-0.5963897705078125,-0.0401763916015625
1700516167108170500,11.99717041015625,-1.2266845703125,-0.405853271484375,-0.3052825927734375
1700516167118180600,12.0071806640625,-1.073974609375,0.197540283203125,-0.1754150390625
1700516167128190500,12.0171904296875,-0.8372802734375,-0.251129150390625,-0.1512451171875
1700516167138201600,12.02720166015625,-0.9699859619140625,-0.6379241943359375,-0.21356201171875
1700516167148211700,12.037211669921875,-1.1513214111328125,0.03460693359375,-0.0119476318359375
1700516167158221800,12.047221923828126,-0.960601806640625,0.020751953125,0.0587158203125
1700516167168231700,12.057231689453126,-0.8363800048828125,-0.45782470703125,0.2244110107421875
1700516167178241800,12.06724169921875,-1.1245269775390625,-0.40869140625,0.1008758544921875
1700516167188252700,12.077252685546876,-0.73809814453125,0.3847198486328125,0.2060394287109375
1700516167198262800,12.0872626953125,-0.7463226318359375,-0.66888427734375,0.282257080078125
1700516167208272600,12.097272705078124,-1.3519287109375,-0.3352508544921875,-0.0846405029296875
1700516167218282800,12.10728271484375,-1.06842041015625,-0.0006103515625,0.236907958984375
1700516167228292600,12.117292724609374,-0.91888427734375,-0.1336517333984375,-0.0519256591796875
1700516167238303700,12.1273037109375,-0.9808197021484375,-0.5464935302734375,-0.2575836181640625
1700516167248313600,12.137313720703125,-1.2081756591796875,-0.1158294677734375,0.0167694091796875
1700516167258323700,12.14732373046875,-0.9525299072265625,0.022613525390625,-0.1868896484375
1700516167268333600,12.15733349609375,-0.8694915771484375,-0.4443206787109375,0.07904052734375
1700516167278343700,12.16734375,-1.24737548828125,-0.4356536865234375,-0.0676727294921875
1700516167288354600,12.1773544921875,-0.78204345703125,0.29705810546875,0.0405426025390625
1700516167298364700,12.18736474609375,-0.5477447509765625,-0.4212646484375,0.1680145263671875
1700516167308374500,12.19737451171875,-0.9063720703125,-0.447662353515625,0.035369873046875
1700516167318384600,12.207384521484375,-1.203582763671875,-0.1477508544921875,0.2655181884765625
1700516167328394800,12.217394775390625,-0.760589599609375,0.214874267578125,-0.055633544921875
1700516167338405600,12.227405517578125,-0.6652984619140625,-0.57769775390625,0.0615386962890625
1700516167348415500,12.23741552734375,-1.0710296630859375,-0.1589813232421875,0.126251220703125
1700516167358425600,12.247425537109375,-0.940277099609375,0.078643798828125,0.00860595703125
1700516167368435700,12.257435791015626,-1.0092620849609375,-0.40643310546875,0.1060791015625
1700516167378445600,12.267445556640626,-1.272674560546875,-0.3124542236328125,-0.0735321044921875
1700516167388456700,12.277456787109376,-1.01275634765625,0.140167236328125,0.1193695068359375
1700516167398466600,12.287466552734376,-0.932159423828125,-0.423492431640625,0.0472259521484375
1700516167408476700,12.2974765625,-1.103271484375,-0.4735107421875,-0.0613555908203125
1700516167418486500,12.307486572265624,-1.0789031982421875,-0.0901947021484375,0.313751220703125
1700516167428496600,12.31749658203125,-1.0029754638671875,0.044586181640625,0.1161956787109375
1700516167438507500,12.327507568359374,-0.7971343994140625,-0.5730438232421875,0.053863525390625
1700516167448517600,12.337517578125,-0.90679931640625,-0.123260498046875,0.143463134765625
1700516167458527500,12.347527587890625,-0.578857421875,0.2241363525390625,0.0639801025390625
1700516167468537600,12.35753759765625,-0.72906494140625,-0.5012359619140625,0.213836669921875
1700516167478547500,12.36754736328125,-1.1982879638671875,-0.462799072265625,-0.1152496337890625
1700516167488558600,12.37755859375,-1.2745513916015625,0.182464599609375,0.2233428955078125
1700516167498568400,12.387568359375,-0.9906005859375,-0.3195037841796875,0.12469482421875
1700516167508578600,12.39757861328125,-1.134307861328125,-0.38714599609375,-0.015289306640625
1700516167518588400,12.40758837890625,-1.2295684814453125,-0.0977325439453125,0.131927490234375
1700516167528598500,12.4175986328125,-1.0402374267578125,0.04034423828125,0.13214111328125
1700516167538609400,12.427609375,-0.8645782470703125,-0.5034942626953125,0.131317138671875
1700516167548619500,12.43761962890625,-1.2860107421875,-0.1657257080078125,0.15789794921875
1700516167558629600,12.447629638671875,-1.1039581298828125,0.1347503662109375,0.097930908203125
1700516167568639500,12.457639404296875,-0.90484619140625,-0.545135498046875,0.3253326416015625
1700516167578650600,12.467650634765626,-1.044097900390625,-0.3865814208984375,-0.0283660888671875
1700516167588660700,12.47766064453125,-0.754364013671875,0.220001220703125,0.17437744140625
1700516167598670800,12.4876708984375,-0.733612060546875,-0.4240875244140625,0.03131103515625
1700516167608680700,12.4976806640625,-0.786407470703125,-0.4393768310546875,-0.1224365234375
1700516167618690800,12.50769091796875,-1.2747802734375,-0.1025390625,0.1118621826171875
1700516167628701700,12.51770166015625,-0.922637939453125,0.1800537109375,0.0632171630859375
1700516167638711800,12.5277119140625,-0.7720489501953125,-0.471435546875,0.1146697998046875
1700516167648721700,12.5377216796875,-0.9698333740234375,-0.114959716796875,0.015899658203125
1700516167658731800,12.547731689453125,-0.728546142578125,0.2978668212890625,0.2478179931640625
1700516167668741600,12.55774169921875,-0.9264068603515625,-0.659210205078125,0.329071044921875
1700516167678752800,12.567752685546875,-1.3172607421875,-0.2187652587890625,0.001312255859375
1700516167688762600,12.5777626953125,-1.1797637939453125,0.2372283935546875,0.4020843505859375
1700516167698772700,12.587772705078125,-0.9962921142578125,-0.4590911865234375,0.0616607666015625
1700516167708782600,12.597782470703125,-1.0108184814453125,-0.320281982421875,0.0006866455078125
1700516167718792700,12.607792724609375,-0.9907684326171875,-0.2332305908203125,0.2432403564453125
1700516167728803600,12.617803466796875,-0.8879241943359375,-0.0041656494140625,0.0612945556640625
1700516167738813700,12.627813720703125,-0.9522705078125,-0.633575439453125,0.0476837158203125
1700516167748823600,12.637823486328125,-0.9897308349609375,0.0385589599609375,0.119140625
1700516167758833700,12.647833740234375,-0.5240631103515625,-0.009124755859375,0.0396270751953125
1700516167768843800,12.65784375,-0.69085693359375,-0.347412109375,0.3188018798828125
1700516167778854700,12.667854736328126,-1.2242889404296875,-0.44873046875,0.017059326171875
1700516167788864500,12.677864501953126,-1.122161865234375,0.2558441162109375,0.3004150390625
1700516167798874600,12.68787451171875,-0.7094268798828125,-0.1929168701171875,0.108123779296875
1700516167808884700,12.697884765625,-0.8518829345703125,-0.49749755859375,0.069000244140625
1700516167818895600,12.7078955078125,-1.09991455078125,-0.03912353515625,0.2088470458984375
1700516167828905500,12.717905517578124,-0.9784698486328125,-0.00592041015625,0.04364013671875
1700516167838915600,12.72791552734375,-1.029052734375,-0.5079345703125,0.070281982421875
1700516167848925700,12.73792578125,-1.23651123046875,0.01055908203125,0.1118316650390625
1700516167858935600,12.747935546875,-0.7294769287109375,0.034576416015625,0.2163238525390625
1700516167868946400,12.757946533203125,-0.6029815673828125,-0.403778076171875,0.0924072265625
1700516167878956500,12.76795654296875,-1.1610107421875,-0.31304931640625,0.1042633056640625
1700516167888966700,12.777966552734375,-0.9036712646484375,0.2691650390625,0.26385498046875
1700516167898976300,12.787976318359375,-0.66949462890625,-0.468109130859375,0.104461669921875
1700516167908986400,12.797986328125,-0.8955230712890625,-0.2465972900390625,-0.016021728515625
1700516167918997500,12.80799755859375,-1.347930908203125,-0.109222412109375,0.3335723876953125
1700516167929007600,12.818007568359375,-1.2387847900390625,-0.13470458984375,0.1441650390625
1700516167939017200,12.828017333984375,-0.745086669921875,-0.439117431640625,-0.0362701416015625
1700516167949027300,12.83802734375,-0.821044921875,0.148101806640625,0.0856781005859375
1700516167959038500,12.84803857421875,-1.04754638671875,-0.15765380859375,0.2297515869140625
1700516167969048600,12.858048583984376,-1.44781494140625,-0.4920654296875,0.1126251220703125
1700516167979058400,12.868058349609376,-1.4404296875,-0.2053070068359375,0.0712432861328125
1700516167989068500,12.878068603515626,-0.8589019775390625,0.24090576171875,0.2444915771484375
