time,seconds_elapsed,z,y,x
1700516155171500300,0.060500244140625,-0.014029187150299549,-0.06733886897563934,0.04329691082239151
1700516155181509400,0.07050927734375,-0.017109444364905357,0.01679917983710766,-0.13381944596767426
1700516155191519200,0.080519287109375,0.002217115368694067,-0.006784176919609308,0.016035573557019234
1700516155201528300,0.0905283203125,0.00983931589871645,0.013208466582000256,0.05395730957388878
1700516155211537400,0.100537353515625,-0.0010085379472002387,-0.02837705984711647,-0.006226401776075363
1700516155221547000,0.110547119140625,-0.03283138573169708,-0.0099916011095047,-0.13865962624549866
1700516155231556000,0.12055615234375,-0.0072884755209088326,-0.05793648958206177,0.08909497410058975
1700516155241565200,0.130565185546875,-0.0015552804106846452,-0.042318589985370636,0.06873869150876999
1700516155251575300,0.1405751953125,-0.012982637621462345,0.0517815425992012,-0.027034977450966835
1700516155261584400,0.15058447265625,-0.033780645579099655,-0.14717842638492584,0.08111423999071121
1700516155271593200,0.16059326171875,-0.02574668638408184,0.04304211586713791,-0.09634842723608017
1700516155281603300,0.170603271484375,-0.010949753224849701,-0.06676812469959259,0.08591103553771973
1700516155291612200,0.180612060546875,-0.01010073721408844,-0.04270379990339279,0.062429942190647125
1700516155301621200,0.190621337890625,-0.028835687786340714,-0.12475115060806274,-0.04558618739247322
1700516155311631000,0.200631103515625,-0.03747498244047165,0.14797651767730713,-0.22170768678188324
1700516155321640200,0.21064013671875,0.017470480874180794,-0.060452405363321304,0.1434290111064911
1700516155331649300,0.220649169921875,-0.001347416895441711,-0.021273579448461533,0.058567389845848083
1700516155341658400,0.230658447265625,-0.011019467376172543,0.026683321222662926,-0.06640615314245224
1700516155351668500,0.24066845703125,-0.026035435497760773,-0.08147910237312317,0.08151273429393768
1700516155361677000,0.250677001953125,-0.028327416628599167,0.04095315933227539,-0.0882863700389862
1700516155371686100,0.26068603515625,0.007203679531812668,-0.03554694354534149,0.08018040657043457
1700516155381696300,0.2706962890625,0.017438504844903946,0.053849607706069946,0.0930691510438919
1700516155391705300,0.280705322265625,0.021411143243312836,0.041805993765592575,-0.03978796675801277
1700516155401714400,0.29071435546875,-0.022213736549019814,0.04709517955780029,-0.1372508555650711
1700516155411724300,0.300724365234375,0.024539919570088387,-0.0022926104720681906,0.11128146201372147
1700516155421733000,0.310733154296875,0.013230036944150925,0.04460163414478302,-0.021240023896098137
1700516155431742200,0.3207421875,0.02138889767229557,0.06989020854234695,-0.03075949288904667
1700516155441752300,0.33075244140625,-0.006420863792300224,-0.018268853425979614,-0.0016973777674138546
1700516155451761200,0.34076123046875,0.004638178274035454,0.06418527662754059,-0.12246906012296677
1700516155461770200,0.350770263671875,0.023180486634373665,0.025571569800376892,0.012115798890590668
1700516155471780400,0.3607802734375,0.03699031099677086,0.05156056210398674,0.05201181769371033
1700516155481789400,0.37078955078125,0.019976986572146416,0.02420235052704811,-0.09176527708768845
1700516155491798300,0.38079833984375,-0.034899577498435974,0.05333360657095909,-0.1266915649175644
1700516155501807000,0.39080712890625,0.027111278846859932,-0.015849728137254715,0.15024666488170624
1700516155511817200,0.400817138671875,0.023898441344499588,0.021103762090206146,0.02299869991838932
1700516155521826300,0.410826416015625,0.02305596135556698,0.08469540625810623,0.030141741037368774
1700516155531835400,0.42083544921875,-0.010467377491295338,-0.03447892516851425,0.014286879450082779
1700516155541845200,0.43084521484375,-0.006912278942763805,0.04732207953929901,-0.04451160132884979
1700516155551854000,0.44085400390625,0.011288030073046684,-0.008967824280261993,0.09023423492908478
1700516155561863200,0.45086328125,0.014060568064451218,0.012959492392838001,0.08706454187631607
1700516155571873300,0.460873291015625,0.00868444424122572,-0.015701981261372566,-0.09628690779209137
1700516155581882000,0.470882080078125,-0.03901305049657822,0.012207088060677052,-0.09613007307052612
1700516155591891200,0.48089111328125,0.03358311951160431,-0.0805462896823883,0.19044125080108643
1700516155601901300,0.4909013671875,0.012903752736747265,0.018087584525346756,-0.06368348002433777
1700516155611910400,0.500910400390625,0.010250179097056389,-0.025106489658355713,0.0359102226793766
1700516155621919200,0.510919189453125,-0.017486892640590668,-0.047517079859972,-0.01776999980211258
1700516155631929000,0.52092919921875,-0.01763336732983589,0.04956073313951492,-0.07462581992149353
1700516155641938200,0.530938232421875,0.008920213207602501,-0.02506849728524685,0.03788873553276062
1700516155651947300,0.540947265625,-0.0014570601051673293,0.0042047034949064255,0.0208053570240736
1700516155661957400,0.550957275390625,0.013195032253861427,-0.03374909982085228,-0.15821470320224762
1700516155671966200,0.56096630859375,-0.03498288244009018,0.0027109095826745033,-0.11063014715909958
1700516155681975000,0.57097509765625,0.02866181917488575,-0.05378018319606781,0.10472565144300461
1700516155691985200,0.580985107421875,0.01934155449271202,-0.01629592478275299,-0.05696311593055725
1700516155701994200,0.590994140625,0.012336703948676586,-0.011500044725835323,0.01895792782306671
1700516155712003300,0.60100341796875,-0.0010667196474969387,-0.010782056488096714,-0.07521064579486847
1700516155722012200,0.61101220703125,-0.007209266070276499,0.028175437822937965,-0.04763246700167656
1700516155732022300,0.621022216796875,0.02552124857902527,0.004891419783234596,0.06358273327350616
1700516155742031400,0.63103125,0.010786340571939945,0.029904743656516075,0.040770966559648514
1700516155752040200,0.641040283203125,0.022186800837516785,0.006513930857181549,-0.15669070184230804
1700516155762050000,0.651050048828125,-0.024967022240161896,0.016166383400559425,-0.05616648495197296
1700516155772059100,0.66105908203125,0.03843512013554573,-0.031183289363980293,0.11160840094089508
1700516155782068200,0.671068115234375,0.002388466615229845,0.02170729450881481,-0.061213575303554535
1700516155792078300,0.681078369140625,0.014570564031600952,-0.022672420367598534,0.07191198319196701
1700516155802087400,0.69108740234375,-0.003712100675329566,-0.025453470647335052,-0.07160810381174088
1700516155812096300,0.70109619140625,-0.00943123921751976,0.005163826979696751,-0.016140319406986237
1700516155822106400,0.7111064453125,0.015209988690912724,-0.025023575872182846,0.07313913851976395
1700516155832115200,0.721115234375,0.003277428448200226,-0.004088467452675104,0.029812972992658615
1700516155842124300,0.731124267578125,0.006069708615541458,-0.02974029816687107,-0.18360066413879395
1700516155852134100,0.741134033203125,-0.007333981338888407,-0.0034804646857082844,-0.013254756107926369
1700516155862143200,0.751143310546875,0.018587833270430565,-0.06428315490484238,0.11923360079526901
1700516155872152300,0.76115234375,-0.015965616330504417,0.043968748301267624,-0.052003663033246994
1700516155882162400,0.771162353515625,0.0027932028751820326,-0.07291260361671448,0.0395335927605629
1700516155892171300,0.781171142578125,-0.02085992693901062,-0.006098681595176458,-0.0852152556180954
1700516155902180400,0.791180419921875,-0.013331634923815727,-0.014411790296435356,0.026132732629776
1700516155912190500,0.8011904296875,0.018884357064962387,0.010814470238983631,0.06049629673361778
1700516155922199600,0.811199462890625,-0.0014959744876250625,-0.008987885899841785,0.013590481132268906
1700516155932208400,0.82120849609375,-0.01520672719925642,-0.028555728495121002,-0.17716482281684875
1700516155942218200,0.83121826171875,-0.00793435424566269,0.005382767878472805,0.02544843778014183
1700516155952227300,0.841227294921875,0.011578360572457314,-0.03113582730293274,0.11790700256824493
1700516155962236400,0.851236328125,-0.01857832632958889,0.08031044155359268,-0.037363201379776
1700516155972245500,0.86124560546875,-0.000015561236068606377,-0.052957333624362946,0.062497083097696304
1700516155982255400,0.87125537109375,-0.014576541259884834,0.0033096494153141975,-0.08813353627920151
1700516155992264200,0.88126416015625,-0.006887995172291994,-0.028762267902493477,0.05841275677084923
1700516156002274300,0.8912744140625,0.019271530210971832,0.022400133311748505,0.06123918667435646
1700516156012283400,0.901283447265625,0.002912797499448061,-0.018864748999476433,0.015516439452767372
1700516156022292500,0.91129248046875,-0.021515268832445145,-0.024638216942548752,-0.15620990097522736
1700516156032301300,0.92130126953125,0.0033269631676375866,-0.01138659380376339,0.06411022692918777
1700516156042311400,0.9313115234375,0.003471903270110488,-0.048646021634340286,0.09766117483377457
1700516156052320500,0.941320556640625,-0.014913495630025864,0.08714403957128525,-0.04638680815696716
1700516156062329300,0.951329345703125,-0.004394706338644028,-0.06461109966039658,0.08454058319330215
1700516156072339200,0.961339111328125,-0.019123850390315056,0.02387988194823265,-0.08395122736692429
1700516156082348300,0.971348388671875,-0.0005158352432772517,-0.023259999230504036,0.05398077517747879
1700516156092357400,0.981357421875,0.02117055095732212,0.033781182020902634,0.05397491529583931
1700516156102367500,0.991367431640625,0.002744061406701803,-0.01115270797163248,0.01548614539206028
1700516156112376600,1.00137646484375,-0.020173504948616028,-0.019460706040263176,-0.151002436876297
1700516156122385200,1.01138525390625,0.008261915296316147,-0.0037303268909454346,0.06311185657978058
1700516156132395300,1.021395263671875,0.0014341026544570923,-0.02758026495575905,0.08225838094949722
1700516156142404400,1.031404296875,-0.015116139315068722,0.09833257645368576,-0.03822099044919014
1700516156152413400,1.041413330078125,-0.004755910485982895,-0.059659991413354874,0.07615379244089127
1700516156162423300,1.05142333984375,-0.017249129712581635,0.025630610063672066,-0.09674680233001709
1700516156172432400,1.061432373046875,-0.0028635337948799133,-0.028526635840535164,0.0567985475063324
1700516156182441500,1.07144140625,0.01849718764424324,0.022448908537626266,0.045930009335279465
1700516156192451600,1.08145166015625,0.0016739987768232822,-0.03337227925658226,-0.006453303154557943
1700516156202460400,1.09146044921875,-0.02888339012861252,-0.02586819790303707,-0.1588388979434967
1700516156212469200,1.10146923828125,0.007845061831176281,-0.024156851693987846,0.08527470380067825
1700516156222479400,1.111479248046875,-0.004113156348466873,-0.03665175288915634,0.07235543429851532
1700516156232488400,1.121488525390625,-0.010440826416015625,0.08968222141265869,-0.04985729977488518
1700516156242497500,1.13149755859375,-0.009187410585582256,-0.08509024977684021,0.09228402376174927
1700516156252507400,1.14150732421875,-0.018245887011289597,0.02791619673371315,-0.10064521431922913
1700516156262516200,1.15151611328125,-0.0006987845990806818,-0.035262178629636765,0.060000836849212646
1700516156272525300,1.161525390625,0.014554203487932682,0.02199365571141243,0.05262760818004608
1700516156282535400,1.171535400390625,-0.002414762508124113,-0.026195216923952103,-0.007047974970191717
1700516156292544300,1.181544189453125,-0.034822236746549606,-0.018695488572120667,-0.15434129536151886
1700516156302553300,1.19155322265625,0.013204822316765785,-0.02367664873600006,0.09882581979036331
1700516156312563500,1.2015634765625,-0.006648244336247444,-0.012457283213734627,0.06295304000377655
1700516156322572500,1.211572509765625,-0.0015228328993543983,0.11095862090587616,-0.03376845270395279
1700516156332581400,1.221581298828125,-0.008281669579446316,-0.053165871649980545,0.05993726849555969
1700516156342591200,1.23159130859375,-0.01780080609023571,0.022929489612579346,-0.08851087093353271
1700516156352600300,1.241600341796875,0.0013478546170517802,-0.021428918465971947,0.05711743235588074
1700516156362609400,1.251609375,0.01992843672633171,0.020414583384990692,0.04517066478729248
1700516156372619300,1.261619384765625,-0.0009696539491415024,-0.014531683176755905,-0.011354397982358932
1700516156382628400,1.27162841796875,-0.030822237953543663,0.0021239579655230045,-0.15755677223205566
1700516156392637200,1.28163720703125,0.016636623069643974,-0.025077302008867264,0.10521120578050613
1700516156402647300,1.291647216796875,-0.005699614062905312,-0.0062964181415736675,0.06062895059585571
1700516156412656400,1.301656494140625,0.004278185311704874,0.11581458151340485,-0.043390125036239624
1700516156422666200,1.311666259765625,-0.01557218562811613,-0.06487177312374115,0.06153421103954315
1700516156432675300,1.32167529296875,-0.01399905700236559,0.043704770505428314,-0.08830668032169342
1700516156442684400,1.331684326171875,0.0057239350862801075,-0.020561078563332558,0.07021662592887878
1700516156452694500,1.341694580078125,0.01614275388419628,0.03165099024772644,0.03409537672996521
1700516156462703400,1.351703369140625,-0.001822237391024828,-0.018359767273068428,-0.020676057785749435
1700516156472712200,1.361712158203125,-0.03563852235674858,-0.0035496617201715708,-0.15407325327396393
1700516156482722300,1.371722412109375,0.020635852590203285,-0.02654975838959217,0.1127382218837738
1700516156492731400,1.3817314453125,-0.008387808687984943,-0.006863671354949474,0.04624175652861595
1700516156502740500,1.391740478515625,0.0025183558464050293,0.10614713281393051,-0.042127300053834915
1700516156512750300,1.401750244140625,-0.013265933841466904,-0.06628376245498657,0.050667617470026016
1700516156522759400,1.411759521484375,-0.01460420060902834,0.02482760138809681,-0.08630403131246567
1700516156532768500,1.4217685546875,0.003351630177348852,-0.03221677616238594,0.05653408542275429
1700516156542778400,1.4317783203125,0.012690485455095768,0.019798684865236282,0.019379764795303345
1700516156552787200,1.441787109375,0.0007616544608026743,-0.032178495079278946,-0.014188847504556179
1700516156562796300,1.45179638671875,-0.04068019986152649,-0.0026640603318810463,-0.15364201366901398
1700516156572806400,1.461806396484375,0.018190838396549225,-0.03702123463153839,0.09999451786279678
1700516156582815500,1.4718154296875,-0.00825855415314436,-0.01032794825732708,0.043093565851449966
1700516156592824600,1.481824462890625,0.0008206950733438134,0.10817340016365051,-0.044164374470710754
1700516156602834400,1.49183447265625,-0.01471760030835867,-0.07651759684085846,0.0800476148724556
1700516156612843300,1.50184326171875,-0.014739970676600933,0.055780526250600815,-0.10046890377998352
1700516156622852400,1.511852294921875,0.0017029079608619213,-0.025904390960931778,0.0666193813085556
1700516156632862200,1.5218623046875,0.012073257006704807,0.026746569201350212,0.035031095147132874
1700516156642871300,1.531871337890625,0.005276359152048826,-0.018116161227226257,-0.015359017997980118
1700516156652881400,1.54188134765625,-0.031962621957063675,0.0026240041479468346,-0.1454230099916458
1700516156662890500,1.551890380859375,0.02348307892680168,-0.013320078141987324,0.10902069509029388
1700516156672899600,1.561899658203125,-0.00634086225181818,0.009024642407894135,0.06021827086806297
1700516156682909400,1.571909423828125,0.0022119302302598953,0.10630891472101212,-0.028997406363487244
1700516156692918300,1.581918212890625,-0.014675972983241081,-0.06264175474643707,0.07156062871217728
1700516156702927400,1.59192724609375,-0.007209022995084524,0.024091197177767754,-0.07977171987295151
1700516156712937500,1.6019375,-0.0006437982665374875,-0.030757935717701912,0.06107060983777046
1700516156722946300,1.6119462890625,0.01645790785551071,0.012236068025231361,0.042565155774354935
1700516156732955400,1.621955322265625,0.0009684311226010323,-0.021007904782891273,-0.010900730267167091
1700516156742965500,1.631965576171875,-0.028611628338694572,-0.01555311307311058,-0.14548133313655853
1700516156752974300,1.641974365234375,0.0182711910456419,-0.014250027947127819,0.09119272232055664
1700516156762983400,1.6519833984375,-0.007438975386321545,-0.010127095505595207,0.05464079976081848
1700516156772993300,1.6619931640625,0.0010051095159724355,0.11349204927682877,-0.04781979322433472
1700516156783002400,1.67200244140625,-0.013684446923434734,-0.06260456144809723,0.08004601299762726
1700516156793011500,1.682011474609375,-0.010298503562808037,0.03998040407896042,-0.09961775690317154
1700516156803021300,1.692021240234375,0.002198389731347561,-0.02823895961046219,0.06271473318338394
1700516156813030400,1.702030517578125,0.01425345428287983,0.022679081186652184,0.03564583137631416
1700516156823040500,1.71204052734375,0.00476440042257309,-0.01883881352841854,-0.011956728994846344
1700516156833049300,1.72204931640625,-0.030965367332100868,-0.017255032435059547,-0.14229315519332886
1700516156843058400,1.732058349609375,0.02191934548318386,-0.014329084195196629,0.09663613140583038
1700516156853068300,1.742068359375,-0.007864649407565594,-0.003473239950835705,0.0633748471736908
1700516156863077400,1.752077392578125,0.004411864560097456,0.11298542469739914,-0.045994699001312256
1700516156873086500,1.76208642578125,-0.012906406074762344,-0.08444695919752121,0.08952078223228455
1700516156883097000,1.77209716796875,-0.013322697021067142,0.041689760982990265,-0.11553226411342621
1700516156893106200,1.782106201171875,0.004895188845694065,-0.029962850734591484,0.06561781466007233
1700516156903115300,1.792115234375,0.018698353320360184,0.020656118169426918,0.0564834401011467
1700516156913125400,1.80212548828125,-0.0025846753269433975,-0.01271724421530962,-0.02545147016644478
1700516156923134200,1.81213427734375,-0.033189598470926285,-0.012618555687367916,-0.1609800010919571
1700516156933144300,1.822144287109375,0.01902061142027378,-0.020266622304916382,0.10679206252098083
1700516156943153200,1.832153076171875,-0.007563372142612934,-0.0004329080693423748,0.06161043047904968
1700516156953162200,1.842162353515625,0.020335370674729347,0.10069690644741058,-0.040356941521167755
1700516156963172000,1.852172119140625,-0.025200705975294113,-0.07680632174015045,0.04153118282556534
1700516156973181200,1.86218115234375,-0.011568782851099968,0.04631880670785904,-0.10578610002994537
1700516156983190300,1.872190185546875,0.004225490614771843,-0.03769364953041077,0.07221907377243042
1700516156993200400,1.882200439453125,0.015834476798772812,0.0004441473865881562,0.05144454911351204
1700516157003209500,1.89220947265625,-0.009254352189600468,-0.03491935878992081,-0.06923145800828934
1700516157013219300,1.90221923828125,-0.03667052835226059,-0.0009528702939860523,-0.16895778477191925
1700516157023228200,1.912228271484375,0.0197063609957695,-0.05010102689266205,0.13847269117832184
1700516157033237200,1.9222373046875,0.01040420588105917,-0.009684095159173012,0.021702393889427185
1700516157043247000,1.9322470703125,0.021416574716567993,0.07627485692501068,-0.027502864599227905
1700516157053256200,1.942256103515625,-0.010752813890576363,-0.08035736531019211,0.0015309164300560951
1700516157063265300,1.952265380859375,-0.006100454367697239,0.03896820545196533,-0.07417638599872589
1700516157073275400,1.962275390625,0.006877396255731583,-0.013879295438528061,0.08766178041696548
1700516157083284200,1.9722841796875,0.007047655992209911,0.0059156883507966995,0.054150134325027466
1700516157093294000,1.982294189453125,0.0069515155628323555,-0.037615276873111725,-0.10682304203510284
1700516157103303200,1.99230322265625,-0.041429005563259125,0.01793355867266655,-0.1278102546930313
1700516157113312300,2.002312255859375,0.025250688195228577,-0.059217419475317,0.16975325345993042
1700516157123322400,2.012322265625,0.030382715165615082,-0.008816531859338284,-0.03057515248656273
1700516157133331200,2.022331298828125,0.00942922942340374,-0.012231769040226936,0.011167766526341438
1700516157143340300,2.03234033203125,-0.010055650025606155,-0.024281347170472145,-0.04471970349550247
1700516157153350400,2.042350341796875,-0.010009843856096268,0.033594466745853424,-0.01227707788348198
1700516157163359200,2.052359130859375,0.011685406789183617,0.0182843878865242,0.07412882894277573
1700516157173369000,2.062369140625,0.006267205812036991,0.0013115304755046964,0.03935939073562622
1700516157183378200,2.072378173828125,0.006103266961872578,-0.031927090138196945,-0.14072473347187042
1700516157193387300,2.08238720703125,-0.027328193187713623,0.02967875264585018,-0.0604219064116478
1700516157203397400,2.0923974609375,0.02440279722213745,-0.04651741310954094,0.15985247492790222
1700516157213406200,2.10240625,0.0010937447659671307,0.04378718137741089,-0.045429833233356476
1700516157223415000,2.1124150390625,0.004701077938079834,-0.05485143885016441,0.031392719596624374
1700516157233425200,2.122425048828125,-0.013683255761861801,0.010083086788654327,-0.06829073280096054
1700516157243434200,2.132434326171875,-0.011199849657714367,0.0025030041579157114,0.042890455573797226
1700516157253444000,2.142444091796875,0.01708478480577469,0.027279723435640335,0.055697862058877945
1700516157263453200,2.152453125,-0.0010260413400828838,-0.006312325596809387,0.01577334851026535
1700516157273462300,2.162462158203125,-0.0014233849942684174,-0.021227359771728516,-0.15576805174350739
1700516157283472400,2.172472412109375,-0.01170467957854271,0.021038463339209557,0.018127700313925743
1700516157293481500,2.1824814453125,0.014658751897513866,-0.04357754811644554,0.12891227006912231
1700516157303491300,2.1924912109375,-0.01515971589833498,0.1003827154636383,-0.057270340621471405
1700516157313500200,2.202500244140625,-0.00010992633178830147,-0.054736826568841934,0.048998042941093445
1700516157323509200,2.21250927734375,-0.011431552469730377,0.008635392412543297,-0.07619658857584
1700516157333519000,2.22251904296875,-0.0017176727997139096,-0.02756468951702118,0.06311895698308945
1700516157343528200,2.232528076171875,0.02117680385708809,0.028767729178071022,0.04558940976858139
1700516157353538300,2.242538330078125,-0.0070702810771763325,-0.01060337945818901,0.012165138497948647
1700516157363547400,2.25254736328125,-0.016986025497317314,-0.014530042186379433,-0.15944546461105347
1700516157373556200,2.26255615234375,0.0020931269973516464,-0.009726231917738914,0.07091530412435532
1700516157383566000,2.272566162109375,-0.00025953270960599184,-0.01779117062687874,0.09873303771018982
1700516157393575200,2.2825751953125,0.002983398735523224,0.12179389595985413,-0.05794685333967209
1700516157403585300,2.292585205078125,-0.014903442934155464,-0.07087398320436478,0.05010632798075676
1700516157413594400,2.302594482421875,-0.013186769559979439,0.034078001976013184,-0.09912150353193283
1700516157423603200,2.312603271484375,0.002216591266915202,-0.03857555240392685,0.08012378215789795
1700516157433613300,2.32261328125,0.018052013590931892,0.027694817632436752,0.05093073844909668
1700516157443622400,2.332622314453125,-0.011077554896473885,-0.011396150104701519,-0.023416481912136078
1700516157453632300,2.34263232421875,-0.029493579640984535,0.0023553483188152313,-0.16361141204833984
1700516157463641000,2.35264111328125,0.015674255788326263,-0.030317330732941628,0.12420789897441864
1700516157473650200,2.362650146484375,-0.0016890220576897264,0.009898532181978226,0.06336186081171036
1700516157483660300,2.372660400390625,0.02198719047009945,0.10537751019001007,-0.04048571735620499
1700516157493669400,2.38266943359375,-0.018421752378344536,-0.07252831012010574,0.013418527320027351
1700516157503679200,2.39267919921875,-0.008565391413867474,0.04302481934428215,-0.06948138773441315
1700516157513688300,2.402688232421875,0.00839148834347725,-0.015865663066506386,0.07996135950088501
1700516157523698400,2.412698486328125,0.008902371861040592,0.023751666769385338,0.047129660844802856
1700516157533707300,2.422707275390625,0.0030572658870369196,-0.021512750536203384,-0.06781956553459167
1700516157543716000,2.432716064453125,-0.036815326660871506,0.024062080308794975,-0.13548511266708374
1700516157553726200,2.442726318359375,0.021100439131259918,-0.035512033849954605,0.1620997041463852
1700516157563735300,2.4527353515625,0.02605418488383293,0.009911708533763885,0.0013758675195276737
1700516157573745200,2.4627451171875,0.019763797521591187,0.044868629425764084,-0.003956846427172422
1700516157583754200,2.472754150390625,-0.009882154874503613,-0.04114484041929245,-0.02091720700263977
1700516157593763300,2.482763427734375,-0.007090363651514053,0.041556697338819504,-0.0214019026607275
1700516157603773400,2.4927734375,0.008519402705132961,0.005940863862633705,0.07303619384765625
1700516157613782300,2.5027822265625,0.008375858888030052,0.013739131391048431,0.039301663637161255
1700516157623792000,2.512792236328125,0.010628355666995049,-0.03133377060294151,-0.10160072147846222
1700516157633801200,2.52280126953125,-0.03471515700221062,0.02591034583747387,-0.08678077161312103
1700516157643810300,2.532810302734375,0.02433396317064762,-0.04338192194700241,0.16191734373569489
1700516157653820200,2.542820068359375,0.020927513018250465,0.0043762787245213985,-0.04150847718119621
1700516157663829200,2.552829345703125,0.009858790785074234,-0.025163348764181137,0.022748932242393494
1700516157673839400,2.56283935546875,-0.006898084655404091,-0.01584121771156788,-0.03285494074225426
1700516157683848200,2.57284814453125,-0.014062076807022095,0.024269403889775276,0.007056751288473606
1700516157693858000,2.582858154296875,0.013021471910178661,0.017567027360200882,0.055766500532627106
1700516157703867100,2.5928671875,0.006060069426894188,0.005548327229917049,0.026549557223916054
1700516157713876200,2.602876220703125,0.010450556874275208,-0.03630218282341957,-0.12185721844434738
1700516157723886300,2.61288623046875,-0.02445913478732109,0.022951962426304817,-0.04120045155286789
1700516157733895400,2.6228955078125,0.02090941183269024,-0.05055155232548714,0.14354808628559113
1700516157743905300,2.6329052734375,0.007415794767439365,0.03262870013713837,-0.0641411766409874
1700516157753914400,2.642914306640625,0.006484487093985081,-0.05912572145462036,0.04469209164381027
1700516157763924500,2.652924560546875,-0.011769249103963375,-0.003365933895111084,-0.056649550795555115
1700516157773933000,2.66293310546875,-0.01230907253921032,-0.0035757911391556263,0.015486692078411579
1700516157783942100,2.672942138671875,0.013146224431693554,0.013250429183244705,0.040160857141017914
1700516157793952300,2.6829521484375,0.002210752572864294,-0.004040144849568605,0.016952738165855408
1700516157803961300,2.69296142578125,0.0021532406099140644,-0.0398244671523571,-0.1327366828918457
1700516157813971200,2.70297119140625,-0.01665773056447506,0.004913974553346634,-0.007633097004145384
1700516157823980300,2.712980224609375,0.01382693275809288,-0.05090821534395218,0.12486853450536728
1700516157833990400,2.722990478515625,0.00011271797120571136,0.05458278954029083,-0.06519381701946259
1700516157843999200,2.732999267578125,0.006863032002002001,-0.0680198222398758,0.05114983767271042
1700516157854009000,2.743009033203125,-0.019903866574168205,-0.004512487910687923,-0.05715479701757431
1700516157864018200,2.75301806640625,-0.003641880117356777,-0.00010266341269016266,0.026741627603769302
1700516157874027300,2.76302734375,0.014081456698477268,0.01573142595589161,0.031927600502967834
1700516157884040000,2.7730400390625,0.0007091786246746778,0.005027078092098236,0.014454398304224014
1700516157894049000,2.783049072265625,0.0012825571466237307,-0.04129914194345474,-0.12375486642122269
1700516157904059000,2.793058837890625,-0.003976997919380665,0.003375978209078312,0.002901288215070963
1700516157914068000,2.80306787109375,0.009875168092548847,-0.04557185620069504,0.12034429609775543
1700516157924078000,2.813078125,0.005256934091448784,0.04108797758817673,-0.07374995946884155
1700516157934087000,2.8230869140625,0.014659223146736622,-0.04938439652323723,0.07002798467874527
1700516157944097000,2.833096923828125,-0.010822799988090992,-0.00579385831952095,-0.041123539209365845
1700516157954106000,2.843106201171875,-0.00855831429362297,-0.0015261423541232944,0.008769182488322258
1700516157964116200,2.8531162109375,0.010629601776599884,0.011195698752999306,0.029074139893054962
1700516157974124800,2.863124755859375,-0.004485168494284153,0.015687918290495872,0.024221591651439667
1700516157984134000,2.8731337890625,0.004105537664145231,-0.033529818058013916,-0.10869456082582474
1700516157994144000,2.88314404296875,-0.011483808048069477,0.008569429628551006,-0.021432623267173767
1700516158004153000,2.893153076171875,0.005150741897523403,-0.041286151856184006,0.11772286146879196
1700516158014163000,2.903162841796875,0.021870067343115807,0.02494213357567787,-0.0693969577550888
1700516158024172000,2.913172119140625,0.018830453976988792,-0.03258654475212097,0.0646321251988411
1700516158034182100,2.92318212890625,-0.01469687931239605,-0.006915004923939705,-0.030846726149320602
1700516158044191000,2.93319091796875,-0.011094169691205025,0.019892700016498566,-0.015728188678622246
1700516158054200800,2.943200927734375,0.0072792451828718185,-0.006505883764475584,0.04431464150547981
1700516158064210000,2.9532099609375,-0.0076846107840538025,0.027889229357242584,0.020716099068522453
1700516158074220000,2.963219970703125,0.0067025842145085335,-0.039079949259757996,-0.07442852854728699
1700516158084229000,2.97322900390625,-0.024903688579797745,0.025436321273446083,-0.061867281794548035
1700516158094239000,2.983239013671875,0.013021322898566723,-0.041159480810165405,0.13354404270648956
1700516158104248000,2.993248046875,0.02087104134261608,0.042658280581235886,-0.04236823692917824
1700516158114257200,3.003257080078125,0.021185562014579773,0.034222450107336044,0.03974500671029091
1700516158124267000,3.01326708984375,-0.015909170731902122,-0.04952782392501831,0.014859640970826149
1700516158134275800,3.02327587890625,-0.006813943386077881,0.041482243686914444,-0.06076294928789139
1700516158144286000,3.033285888671875,0.01780582033097744,-0.024964401498436928,0.0651281476020813
1700516158154295000,3.043294921875,-0.010834080167114735,0.03177903965115547,0.010854522697627544
1700516158164305000,3.053304931640625,0.006016428582370281,-0.031489599496126175,-0.046621911227703094
1700516158174314000,3.06331396484375,-0.031661976128816605,0.014498665928840637,-0.09144211560487747
1700516158184324000,3.073323974609375,0.013489855453372002,-0.04029727354645729,0.1298101395368576
1700516158194333200,3.083333251953125,0.007507596630603075,0.05199776962399483,-0.013897224329411983
1700516158204343000,3.093343017578125,0.024299778044223785,0.07865279167890549,0.010149186477065086
1700516158214352000,3.103351806640625,-0.020777152851223946,-0.08087348192930222,0.05378268286585808
1700516158224362000,3.113362060546875,-0.008795228786766529,0.05656904727220535,-0.10314861685037613
1700516158234371000,3.12337109375,0.017382580786943436,-0.039031777530908585,0.06934033334255219
1700516158244381000,3.133380859375,-0.0022674929350614548,0.02760550007224083,0.019870009273290634
1700516158254390000,3.14339013671875,0.004710521548986435,-0.024234794080257416,-0.03400440514087677
1700516158264400100,3.153400146484375,-0.035056255757808685,0.004151343367993832,-0.1244373470544815
1700516158274409000,3.163408935546875,0.019397130236029625,-0.03560752049088478,0.12706305086612701
1700516158284419000,3.173419189453125,0.0014675904531031847,0.039075735956430435,0.018687300384044647
1700516158294428200,3.18342822265625,0.020483626052737236,0.0876653790473938,-0.014891166239976883
1700516158304438000,3.19343798828125,-0.026605021208524704,-0.061457742005586624,0.053615156561136246
1700516158314446800,3.20344677734375,-0.007144237868487835,0.05626622587442398,-0.09785240143537521
1700516158324457000,3.21345703125,0.011126709170639515,-0.0338309071958065,0.06765955686569214
1700516158334466000,3.223466064453125,0.007072312757372856,0.022845156490802765,0.018718643113970757
1700516158344476000,3.233475830078125,0.0010433509014546871,-0.023151347413659096,-0.03224839270114899
1700516158354485000,3.243485107421875,-0.03511092811822891,0.006498423404991627,-0.14434057474136353
1700516158364495000,3.2534951171875,0.02003302052617073,-0.036740660667419434,0.11977788805961609
1700516158374504200,3.263504150390625,-0.004271253012120724,0.016789942979812622,0.03428269550204277
1700516158384514000,3.27351416015625,0.013310222886502743,0.10438914597034454,-0.035913486033678055
1700516158394523000,3.28352294921875,-0.018948381766676903,-0.08026672154664993,0.07415682077407837
1700516158404533000,3.293532958984375,-0.013733730651438236,0.05782659351825714,-0.11060845106840134
1700516158414542000,3.3035419921875,0.00893163401633501,-0.030952012166380882,0.07296989858150482
1700516158424552000,3.313552001953125,0.009807846508920193,0.00900597870349884,0.03700118511915207
1700516158434561000,3.32356103515625,-0.0013979366049170494,-0.011316603049635887,-0.042682990431785583
1700516158444571100,3.333571044921875,-0.03618815913796425,0.0020330525003373623,-0.15883810818195343
1700516158454580000,3.343580078125,0.019811460748314857,-0.03585999831557274,0.12748952209949493
1700516158464590000,3.353590087890625,-0.002723693149164319,0.014215572737157345,0.04033944010734558
1700516158474599000,3.363598876953125,0.021803488954901695,0.10502110421657562,-0.0292766522616148
1700516158484608800,3.37360888671875,-0.024710020050406456,-0.067725770175457,0.05417490005493164
1700516158494617900,3.383617919921875,-0.012503154575824738,0.04972682148218155,-0.09823887050151825
1700516158504628000,3.3936279296875,0.009255788289010525,-0.022659024223685265,0.08283255994319916
1700516158514637000,3.403636962890625,0.013665983453392982,0.013056628406047821,0.06003430485725403
1700516158524647000,3.41364697265625,-0.0019520586356520653,-0.013964571058750153,-0.06517420709133148
1700516158534656000,3.423656005859375,-0.041818778961896896,0.006841374095529318,-0.1504662036895752
1700516158544666000,3.433666015625,0.026822052896022797,-0.04437784105539322,0.15494750440120697
1700516158554676000,3.443676025390625,0.017917508259415627,0.0002420927630737424,0.021312199532985687
1700516158564685000,3.45368505859375,0.015010235831141472,0.05740709602832794,-0.000447690486907959
1700516158574695200,3.463695068359375,-0.01517483126372099,-0.06130490452051163,0.0053145913407206535
1700516158584704000,3.4737041015625,-0.016192076727747917,0.0448315255343914,-0.06796228885650635
1700516158594713900,3.4837138671875,0.006703652441501617,-0.011710048653185368,0.08876261115074158
1700516158604723000,3.493722900390625,0.008426736108958721,-0.0021515870466828346,0.06306549906730652
1700516158614733000,3.503733154296875,0.004961696919053793,-0.02633601985871792,-0.11595218628644943
1700516158624742100,3.5137421875,-0.0460255928337574,-0.0012727082939818501,-0.11262190341949463
1700516158634752000,3.523751953125,0.02123839780688286,-0.08797058463096619,0.19213692843914032
1700516158644761000,3.533760986328125,0.029818058013916016,0.0330001562833786,-0.06716467440128326
1700516158654771200,3.543771240234375,0.004201645031571388,-0.025044504553079605,0.036574769765138626
1700516158664779800,3.55377978515625,-0.008688829839229584,-0.050734616816043854,-0.020052822306752205
1700516158674790000,3.563789794921875,-0.010967164300382137,0.03792334720492363,-0.04830150306224823
1700516158684799000,3.573799072265625,0.0075505925342440605,-0.02192605845630169,0.08744807541370392
1700516158694808800,3.583808837890625,0.00581580912694335,-0.008170832879841328,0.051088206470012665
1700516158704819000,3.59381884765625,-0.010453357361257076,-0.006034380756318569,-0.17146338522434235
1700516158714828000,3.603828125,-0.04439880698919296,0.07990263402462006,-0.044725142419338226
1700516158724838100,3.613838134765625,0.022477861493825912,-0.1306914985179901,0.1619795709848404
1700516158734847000,3.623846923828125,-0.01629350334405899,0.0911484956741333,-0.09884694963693619
1700516158744857000,3.633857177734375,0.007190859876573086,-0.08360777050256729,0.07684043794870377
1700516158754866000,3.643865966796875,-0.019444214180111885,-0.020255962386727333,-0.05590083450078964
1700516158764875800,3.653875732421875,-0.012571166269481182,-0.007370973005890846,-0.004122849553823471
1700516158774884900,3.663884765625,0.01569030061364174,0.0031900585163384676,0.05458600074052811
1700516158784895000,3.67389501953125,-0.015300121158361435,-0.07314446568489075,0.053768955171108246
1700516158794904800,3.68390478515625,-0.02381584607064724,-0.015028695575892925,-0.19139473140239716
1700516158804914000,3.693913818359375,-0.020794164389371872,0.021783940494060516,0.035276226699352264
1700516158814924000,3.703924072265625,-0.0009088730439543724,-0.11065133661031723,0.09411930292844772
1700516158824933000,3.71393310546875,-0.008465686812996864,0.08282391726970673,-0.06180689483880997
1700516158834943000,3.72394287109375,-0.008627073839306831,-0.07489487528800964,0.05943750590085983
1700516158844952000,3.7339521484375,-0.02625349350273609,-0.009203057736158371,-0.09284418076276779
1700516158854962200,3.743962158203125,0.0015784023562446237,-0.030186370015144348,0.05111591890454292
1700516158864971800,3.7539716796875,0.01549917459487915,0.024217762053012848,0.04750147834420204
1700516158874980900,3.76398095703125,-0.014299733564257622,-0.05768216401338577,-0.012706737034022808
1700516158884988200,3.77398828125,-0.03288036584854126,-0.002345600863918662,-0.18886838853359222
1700516158894997000,3.7839970703125,0.01597478985786438,-0.0050210123881697655,0.13899016380310059
1700516158905007000,3.794007080078125,0.009820020757615566,-0.010435394942760468,0.01644904538989067
1700516158915016200,3.80401611328125,0.016810018569231033,0.06765913963317871,-0.02910539135336876
1700516158925026300,3.8140263671875,-0.01021643914282322,-0.04311831668019295,0.008215110749006271
1700516158935036200,3.8240361328125,-0.007070979103446007,0.04509170353412628,-0.055239494889974594
1700516158945045200,3.834045166015625,0.00636706268414855,-0.024114063009619713,0.04938334599137306
1700516158955055400,3.844055419921875,0.02129674330353737,0.03762360289692879,0.07161808013916016
1700516158965064000,3.85406396484375,-0.006142734549939632,-0.05208759754896164,-0.06196789816021919
1700516158975074000,3.864073974609375,-0.03352482244372368,0.05662103742361069,-0.15919218957424164
1700516158985083100,3.874083251953125,0.02168641984462738,-0.05155457183718681,0.15200218558311462
1700516158995093000,3.884093017578125,0.013140869326889515,-0.03234678879380226,-0.036028970032930374
1700516159005103000,3.89410302734375,0.012378722429275513,0.015929214656352997,-0.0038638892583549023
1700516159015112200,3.9041123046875,-0.01946868933737278,-0.06667325645685196,-0.053229305893182755
1700516159025122000,3.9141220703125,-0.010948194190859795,0.06652717292308807,-0.038540318608284
1700516159035131100,3.924131103515625,-0.0014971677446737885,-0.040924448519945145,0.03857417404651642
1700516159045141200,3.934141357421875,0.010512659326195717,0.01193110179156065,0.02257741615176201
1700516159055151000,3.944151123046875,-0.01113111712038517,-0.0929764062166214,-0.14905133843421936
1700516159065160000,3.954159912109375,-0.04129115119576454,0.056954771280288696,-0.13354533910751343
1700516159075170000,3.964170166015625,0.01022983156144619,-0.10466688126325607,0.12323504686355591
1700516159085179100,3.97417919921875,-0.003747256239876151,0.0026415572501719,-0.06741609424352646
1700516159095189000,3.98418896484375,0.0032006646506488323,-0.05058437958359718,0.028952520340681076
1700516159105199000,3.99419921875,-0.030453041195869446,-0.03934860974550247,-0.09044233709573746
1700516159115208200,4.004208251953125,-0.004559392109513283,0.040969930589199066,-0.06833330541849136
1700516159125218000,4.014218017578125,0.007861493155360222,-0.03695766627788544,0.033252473920583725
1700516159135227100,4.02422705078125,-0.007142223883420229,-0.01615917682647705,0.04308060556650162
1700516159145237200,4.0342373046875,-0.014799894765019417,-0.07993140816688538,-0.16298064589500427
1700516159155247000,4.0442470703125,-0.04681801423430443,0.16976632177829742,-0.14641311764717102
1700516159165256000,4.054255859375,0.018329137936234474,-0.14198945462703705,0.11856676638126373
1700516159175266000,4.06426611328125,-0.009011407382786274,0.060660868883132935,-0.019725598394870758
1700516159185275100,4.074275146484375,0.004954933188855648,-0.09886076301336288,0.05555303767323494
1700516159195285000,4.084284912109375,-0.029224343597888947,0.005295993760228157,-0.11045271903276443
1700516159205295000,4.094295166015625,-0.00023736944422125816,0.01641971990466118,-0.00026119640097022057
1700516159215304200,4.10430419921875,0.0263335220515728,-0.00005992082878947258,0.0732407197356224
1700516159225314000,4.11431396484375,-0.006711462512612343,-0.023916717618703842,0.0459873303771019
1700516159235323100,4.1243232421875,-0.00017047260189428926,-0.027535153552889824,-0.17208348214626312
1700516159245333200,4.134333251953125,-0.00771003682166338,0.03919166699051857,-0.014073063619434834
1700516159255343000,4.144343017578125,0.018875500187277794,-0.07419107854366302,0.16373847424983978
1700516159265352000,4.15435205078125,0.00024706672411412,0.07272165268659592,-0.0347176119685173
1700516159275362000,4.164362060546875,0.006776073016226292,-0.06555473059415817,0.05690605193376541
1700516159285372000,4.174371826171875,-0.016845135018229485,0.01956670731306076,-0.070161372423172
1700516159295381000,4.184381103515625,0.0012478491989895701,-0.012064189650118351,0.056984592229127884
1700516159305391000,4.19439111328125,0.017079222947359085,0.015150999650359154,0.06281112879514694
1700516159315401000,4.20440087890625,-0.0025621233507990837,-0.00458169262856245,0.03446497395634651
1700516159325410000,4.21441015625,-0.007328132167458534,-0.017265062779188156,-0.13567310571670532
1700516159335420200,4.224420166015625,0.0017710905522108078,0.02237129770219326,0.032303910702466965
1700516159345429200,4.23442919921875,0.015601558610796928,-0.036588165909051895,0.1439627707004547
1700516159355439000,4.244439208984375,0.0057369438000023365,0.08710075169801712,-0.05043333023786545
1700516159365449200,4.25444921875,0.025500360876321793,-0.01855691522359848,0.11455077677965164
1700516159375458000,4.2644580078125,-0.009928736835718155,0.022763626649975777,-0.05644439905881882
1700516159385468000,4.274468017578125,0.001156690064817667,0.009567289613187313,0.027333220466971397
1700516159395478000,4.28447802734375,0.01759372092783451,0.01285576168447733,0.04528505355119705
1700516159405487000,4.294487060546875,0.002536626998335123,0.012013944797217846,0.032097600400447845
1700516159415497000,4.3044970703125,-0.009465707466006279,-0.037360262125730515,-0.15994533896446228
1700516159425507000,4.314507080078125,-0.004629942588508129,0.04462365806102753,0.013312248513102531
1700516159435516200,4.32451611328125,0.007122853770852089,-0.04253121837973595,0.1051178053021431
1700516159445526000,4.334526123046875,-0.012892931699752808,0.050263166427612305,-0.10056904703378677
1700516159455535000,4.34453515625,0.012161022052168846,-0.032652758061885834,0.10621875524520874
1700516159465545200,4.354545166015625,-0.018131371587514877,0.024640893563628197,-0.09731413424015045
1700516159475555000,4.36455517578125,-0.012087935581803322,0.005211502313613892,-0.024689931422472
1700516159485564200,4.374564208984375,0.016121791675686836,-0.01121586561203003,0.05234558880329132
1700516159495574300,4.38457421875,0.004591634497046471,0.001575296395458281,-0.012148980051279068
1700516159505584000,4.394584228515625,-0.012853202410042286,-0.02632017433643341,-0.1728074997663498
1700516159515593000,4.404593017578125,-0.009152740240097046,0.05129792541265488,0.013955457136034966
1700516159525603000,4.41460302734375,0.009652182459831238,-0.09002231806516647,0.14319147169589996
1700516159535613200,4.42461328125,0.004944246262311935,0.10146109759807587,-0.04904801771044731
1700516159545622000,4.4346220703125,0.017471328377723694,-0.035522278398275375,0.15444427728652954
1700516159555632000,4.444632080078125,-0.015627501532435417,0.015098554082214832,-0.04354070872068405
1700516159565642200,4.454642333984375,-0.004838881082832813,0.02820488251745701,0.017695793882012367
1700516159575651000,4.464651123046875,0.02897447720170021,0.01793786510825157,0.1244179829955101
1700516159585661200,4.4746611328125,0.004965557716786861,0.001968435710296035,0.055493902415037155
1700516159595671300,4.48467138671875,-0.01216495968401432,-0.02264156937599182,-0.12191496789455414
1700516159605680000,4.49468017578125,0.0011130875209346414,0.06258275359869003,0.09344794601202011
1700516159615690200,4.504690185546875,0.011700750328600407,-0.060456883162260056,0.1434810310602188
1700516159625700400,4.514700439453125,-0.021660001948475838,0.0803762897849083,-0.053464796394109726
1700516159635709000,4.524708984375,0.012943514622747898,-0.07908953726291656,0.1359349638223648
1700516159645719000,4.534718994140625,-0.027083178982138634,0.008075972087681293,-0.08173631876707077
1700516159655729200,4.544729248046875,-0.001849729334935546,-0.01862780936062336,0.025317691266536713
1700516159665738000,4.554738037109375,0.021458234637975693,-0.00900145061314106,0.06418157368898392
1700516159675748000,4.564748046875,-0.009499948471784592,-0.063042052090168,-0.02520076557993889
1700516159685758200,4.57475830078125,-0.010062108747661114,-0.02130257897078991,-0.17503397166728973
1700516159695767000,4.58476708984375,0.009821584448218346,0.0035196798853576183,0.08801735937595367
1700516159705777200,4.594777099609375,0.007004310842603445,-0.014590900391340256,0.0696040615439415
1700516159715787300,4.604787353515625,0.0201006717979908,0.1228356659412384,-0.06266023963689804
1700516159725796000,4.614796142578125,0.004601131193339825,-0.0774654969573021,0.07738564908504486
1700516159735806200,4.62480615234375,-0.008838244713842869,0.05280755087733269,-0.08202797174453735
1700516159745816300,4.63481640625,0.014010127633810043,-0.002268410287797451,0.07330618798732758
1700516159755826200,4.644826171875,0.03630344942212105,0.057320352643728256,0.05966920778155327
1700516159765835000,4.6548349609375,-0.0018353002378717065,-0.02420429140329361,-0.038030099123716354
1700516159775845000,4.66484521484375,-0.011030396446585655,0.030652033165097237,-0.15392127633094788
1700516159785855000,4.67485498046875,0.014737121760845184,-0.027289681136608124,0.14159420132637024
1700516159795864000,4.684864013671875,0.017107602208852768,0.0016040185000747442,-0.0029190387576818466
1700516159805874200,4.694874267578125,0.02437838725745678,0.06431878358125687,-0.01945427432656288
1700516159815884000,4.704884033203125,-0.004867915529757738,-0.05509655922651291,-0.006353120319545269
1700516159825893000,4.71489306640625,-0.007315794005990028,0.050119541585445404,-0.062251798808574677
1700516159835903200,4.7249033203125,0.0036633536219596863,-0.0001281839795410633,0.04521500691771507
1700516159845913000,4.7349130859375,0.015099499374628067,0.04033801704645157,0.03381454572081566
1700516159855923200,4.744923095703125,0.0044447253458201885,-0.021365296095609665,-0.12387708574533463
1700516159865932300,4.754932373046875,-0.035249773412942886,0.044254105538129807,-0.15480563044548035
1700516159875942100,4.764942138671875,0.03736770525574684,-0.029350074008107185,0.11046838015317917
1700516159885951500,4.774951416015625,0.004275271203368902,-0.024458853527903557,-0.08580012619495392
1700516159895960600,4.784960693359375,0.021331751719117165,0.039949964731931686,-0.0057220663875341415
1700516159905970700,4.794970703125,-0.021580195054411888,-0.07159265875816345,-0.08318762481212616
1700516159915980500,4.80498046875,-0.003161241766065359,0.039401765912771225,-0.08404756337404251
1700516159925989400,4.8149892578125,0.009125734679400921,0.003041341435164213,0.04895160347223282
1700516159935999500,4.82499951171875,0.017680874094367027,0.03517743945121765,0.05086668208241463
1700516159946009300,4.83500927734375,0.0018773386254906654,-0.03619099408388138,-0.15104764699935913
1700516159956019500,4.84501953125,-0.028354866430163383,0.0832589715719223,-0.05110614746809006
1700516159966028500,4.855028564453125,0.03243984282016754,-0.06747543811798096,0.16627876460552216
1700516159976038400,4.865038330078125,-0.003994062077254057,0.0713769868016243,-0.031774137169122696
1700516159986048500,4.875048583984375,0.023216495290398598,-0.03454412519931793,0.06976664811372757
1700516159996058400,4.885058349609375,-0.02292250283062458,0.023852603510022163,-0.08047717809677124
1700516160006067500,4.8950673828125,-0.0022456722799688578,0.006759123411029577,0.04220203682780266
1700516160016077600,4.90507763671875,0.019122999161481857,0.027507811784744263,0.07285502552986145
1700516160026087400,4.91508740234375,-0.002534938044846058,0.0028691357001662254,0.04534880071878433
1700516160036096500,4.925096435546875,-0.016208140179514885,-0.002041466999799013,-0.1501128375530243
1700516160046106600,4.935106689453125,0.0013259241823107004,0.04205486550927162,0.04150652512907982
1700516160056116500,4.945116455078125,0.005342237651348114,-0.07297558337450027,0.11904498934745789
1700516160066126600,4.955126708984375,-0.01947355642914772,0.1090119332075119,-0.044591885060071945
1700516160076135400,4.965135498046875,0.007913324981927872,-0.0420399010181427,0.07274112850427628
1700516160086145300,4.975145263671875,-0.02470998838543892,0.018132628872990608,-0.07573091983795166
1700516160096155400,4.9851552734375,-0.00121131946798414,-0.015509752556681633,0.05872541666030884
1700516160106165500,4.99516552734375,0.021364493295550346,0.037996549159288406,0.04836764186620712
1700516160116174300,5.00517431640625,-0.017994362860918045,-0.04686640948057175,0.01801959238946438
1700516160126184400,5.015184326171875,-0.025129467248916626,0.009498228318989277,-0.15528088808059692
1700516160136194600,5.025194580078125,0.009543558582663536,-0.016423117369413376,0.11865506321191788
1700516160146203400,5.035203369140625,-0.004090975038707256,-0.012130772694945335,0.04922489449381828
1700516160156213500,5.045213623046875,-0.0022240993566811085,0.11020312458276749,-0.055717237293720245
1700516160166223600,5.0552236328125,-0.00773569056764245,-0.05640823766589165,0.055233392864465714
1700516160176233500,5.0652333984375,-0.013917951844632626,0.038617879152297974,-0.06741981953382492
1700516160186242600,5.07524267578125,0.00012818153481930494,-0.033372703939676285,0.045435234904289246
1700516160196252700,5.085252685546875,0.009811701253056526,0.04246293753385544,0.0197136290371418
1700516160206262500,5.095262451171875,-0.006632999517023563,-0.024746445938944817,-0.00290983309969306
1700516160216272600,5.105272705078125,-0.03810730203986168,0.010718072764575481,-0.15070754289627075
1700516160226281500,5.115281494140625,0.017236415296792984,-0.03366950899362564,0.10421060025691986
1700516160236291300,5.125291259765625,-0.0034946950618177652,0.009232151322066784,0.030098553746938705
1700516160246301400,5.135301513671875,0.010802771896123886,0.09945910423994064,-0.042058564722537994
1700516160256311300,5.145311279296875,-0.0163114033639431,-0.07490098476409912,0.037302568554878235
1700516160266320400,5.1553203125,-0.00583559600636363,0.05353996530175209,-0.08645554631948471
1700516160276330500,5.16533056640625,0.00540587306022644,-0.03592919558286667,0.06347855180501938
1700516160286340400,5.17534033203125,0.00929356925189495,0.042771972715854645,0.022411996498703957
1700516160296350500,5.1853505859375,-0.0003609223640523851,-0.0187624953687191,-0.01847791112959385
1700516160306359600,5.195359619140625,-0.039344917982816696,0.01813560724258423,-0.13903053104877472
1700516160316369400,5.205369384765625,0.024809299036860466,-0.025016391649842262,0.12779611349105835
1700516160326379500,5.215379638671875,-0.0038017265032976866,0.021788926795125008,0.007304151076823473
1700516160336389600,5.2253896484375,0.0012084783520549536,0.1073155477643013,-0.04777294769883156
1700516160346399500,5.2353994140625,-0.011789903976023197,-0.05936650186777115,0.06535263359546661
1700516160356408600,5.24540869140625,-0.01304558478295803,0.06921783834695816,-0.1091853454709053
1700516160366418700,5.255418701171875,0.002932556439191103,-0.03696175292134285,0.05189850553870201
1700516160376428500,5.265428466796875,0.014321298338472843,0.053391046822071075,0.032120540738105774
1700516160386438700,5.275438720703125,0.004118780605494976,-0.015974698588252068,-0.022541362792253494
1700516160396447500,5.285447509765625,-0.03660814091563225,0.024885648861527443,-0.15376675128936768
1700516160406457300,5.295457275390625,0.023948777467012405,-0.020974792540073395,0.12162236124277115
1700516160416467500,5.305467529296875,-0.002667387016117573,0.012984240427613258,0.03713437542319298
1700516160426477300,5.315477294921875,0.005832390859723091,0.12065649777650833,-0.039991121739149094
1700516160436486400,5.325486328125,-0.012394282966852188,-0.08387161046266556,0.0789688229560852
1700516160446496500,5.33549658203125,-0.013021500781178474,0.07288337498903275,-0.08004080504179001
1700516160456506400,5.34550634765625,0.003755615558475256,-0.028198234736919403,0.08147724717855453
1700516160466516500,5.3555166015625,0.015560480765998363,0.04133423790335655,0.043371912091970444
1700516160476526600,5.365526611328125,-0.003772204043343663,-0.02082926779985428,0.0004201829433441162
1700516160486535400,5.375535400390625,-0.04116946458816528,0.00464160181581974,-0.12082619965076447
1700516160496545500,5.385545654296875,0.024160539731383324,-0.01949675753712654,0.1271606981754303
1700516160506555600,5.3955556640625,-0.0075051067396998405,0.013165581971406937,0.026401301845908165
1700516160516565500,5.4055654296875,-0.0034563029184937477,0.10231117159128189,-0.02080562338232994
1700516160526574600,5.41557470703125,-0.007930335588753223,-0.0693022608757019,0.09031122177839279
1700516160536584400,5.42558447265625,-0.019321739673614502,0.063701331615448,-0.11460277438163757
1700516160546594300,5.43559423828125,-0.0018617776222527027,-0.03846592456102371,0.06760238856077194
1700516160556604400,5.4456044921875,0.019915422424674034,0.026701893657445908,0.039150506258010864
1700516160566614300,5.4556142578125,-0.005929024890065193,-0.024451706558465958,-0.03394791856408119
1700516160576623400,5.465623291015625,-0.03923105448484421,-0.016615353524684906,-0.12709517776966095
1700516160586633500,5.475633544921875,0.023791136220097542,-0.02329948917031288,0.1572871208190918
1700516160596643300,5.485643310546875,-0.006785682402551174,-0.022112784907221794,0.02859892137348652
1700516160606653400,5.4956533203125,-0.017153846099972725,0.07766534388065338,-0.043271418660879135
1700516160616663600,5.50566357421875,0.0007444600341841578,-0.10301069170236588,0.14627695083618164
1700516160626672400,5.51567236328125,-0.02949604019522667,0.021203799173235893,-0.0840073898434639
1700516160636682500,5.5256826171875,-0.0067196199670434,-0.02538500912487507,0.055420275777578354
1700516160646692600,5.535692626953125,0.011620686389505863,-0.007601085584610701,0.055815380066633224
1700516160656702500,5.545702392578125,-0.010679558850824833,-0.03175568953156471,-0.034802936017513275
1700516160666712600,5.555712646484375,-0.037840552628040314,-0.012441247701644897,-0.15898361802101135
1700516160676721700,5.5657216796875,0.01540615875273943,-0.05760206654667854,0.12578153610229492
1700516160686731500,5.5757314453125,-0.00812175776809454,-0.05203566327691078,-0.013375276699662209
1700516160696741600,5.58574169921875,-0.010233910754323006,0.061434704810380936,-0.07621122896671295
1700516160706751500,5.59575146484375,0.0015865584136918187,-0.11911589652299881,0.07206761837005615
1700516160716761600,5.60576171875,-0.027436571195721626,-0.02614227868616581,-0.134253591299057
1700516160726770400,5.6157705078125,-0.0045565166510641575,-0.057020965963602066,-0.01781371980905533
1700516160736780300,5.6257802734375,0.018944814801216125,-0.033536143600940704,0.013837950304150581
1700516160746790400,5.635790283203125,-0.020281827077269554,-0.1273832768201828,-0.08206921815872192
1700516160756800500,5.645800537109375,-0.0010852295672520995,-0.13938561081886292,-0.28533604741096497
1700516160766810400,5.655810302734375,0.011227489449083805,-0.029789073392748833,-0.014369876123964787
1700516160776819500,5.6658193359375,-0.007006642408668995,-0.10446090996265411,-0.015850327908992767
1700516160786829600,5.67582958984375,0.006190654821693897,0.04291282594203949,-0.01677478849887848
1700516160796839400,5.68583935546875,-0.020551476627588272,-0.10255276411771774,0.09357542544603348
1700516160806849500,5.695849609375,-0.0185150858014822,0.0465933121740818,-0.1140252873301506
1700516160816859400,5.705859375,0.0032914092298597097,0.025256065651774406,0.07248999923467636
1700516160826869500,5.715869384765625,0.047982506453990936,0.0706106424331665,0.15105700492858887
1700516160836878600,5.725878662109375,-0.013579127378761768,0.022881997749209404,0.0679493248462677
1700516160846888400,5.735888427734375,-0.008676907047629356,0.07316433638334274,-0.11527794599533081
1700516160856898600,5.745898681640625,0.00832631066441536,0.044411785900592804,0.15317986905574799
1700516160866908700,5.75590869140625,0.020135557278990746,-0.0037123230285942554,0.09701552987098694
1700516160876918500,5.76591845703125,0.01787906140089035,0.1299125850200653,0.06464240700006485
1700516160886927600,5.775927734375,-0.021784327924251556,-0.055197082459926605,0.03397702798247337
1700516160896937700,5.785937744140625,-0.020820530131459236,0.054076146334409714,-0.09714876115322113
1700516160906947600,5.795947509765625,-0.012848624028265476,-0.029134051874279976,0.0889415517449379
1700516160916957700,5.805957763671875,0.016028031706809998,0.009616538882255554,0.08587013185024261
1700516160926967600,5.815967529296875,-0.015837155282497406,-0.0671342983841896,-0.0781315267086029
1700516160936977700,5.825977783203125,-0.015604396350681782,0.004943891894072294,-0.1399429738521576
1700516160946986800,5.83598681640625,0.0000602498184889555,-0.07929550111293793,0.14018380641937256
1700516160956996600,5.84599658203125,0.023593273013830185,-0.028542570769786835,0.010264428332448006
1700516160967006700,5.8560068359375,0.014684733934700489,0.03488434851169586,-0.025371888652443886
1700516160977016600,5.8660166015625,-0.020455943420529366,-0.14298498630523682,-0.007436031941324472
1700516160987026700,5.876026611328125,-0.0019791321828961372,0.030118752270936966,-0.0946890115737915
1700516160997036800,5.886036865234375,-0.0017229360528290272,-0.050760384649038315,0.061999134719371796
1700516161007045600,5.896045654296875,0.0018690692959353328,-0.02790180779993534,0.017564311623573303
1700516161017055700,5.9060556640625,-0.015895014628767967,-0.04702223837375641,-0.08994004875421524
1700516161027065900,5.91606591796875,-0.03270801156759262,0.020792370662093163,-0.15579314529895782
1700516161037075700,5.92607568359375,-0.01778392307460308,-0.031962718814611435,0.15448030829429626
1700516161047085800,5.9360859375,0.05022023990750313,0.06272000074386597,0.037406545132398605
1700516161057095700,5.946095703125,0.009824882261455059,0.08213071525096893,0.033488500863313675
1700516161067105800,5.956105712890625,-0.0027738106437027454,-0.04322521761059761,-0.0032028965651988983
1700516161077114600,5.966114501953125,-0.007804788649082184,0.060174405574798584,-0.07081124186515808
1700516161087124500,5.97612451171875,-0.0013657821109518409,0.022207600995898247,0.12821592390537262
1700516161097134600,5.986134521484375,0.009510567411780357,0.05040914565324783,0.11062227189540863
1700516161107144700,5.996144775390625,-0.009163849987089634,0.00607483834028244,-0.11542575061321259
1700516161117154600,6.006154541015625,-0.04268958419561386,0.07420036196708679,-0.1324193775653839
1700516161127164700,6.01616455078125,-0.0032288481015712023,-0.03922285512089729,0.14919599890708923
1700516161137173800,6.026173828125,0.022997695952653885,0.04263872280716896,-0.11194904893636703
1700516161147183600,6.03618359375,-0.09428906440734863,-0.019032247364521027,0.3175954222679138
1700516161157193700,6.04619384765625,0.005919827613979578,0.050659749656915665,-0.27544739842414856
1700516161167203600,6.05620361328125,-0.0904378667473793,0.15214429795742035,-0.2440570592880249
1700516161177213700,6.066213623046875,0.04602809622883797,0.09699395298957825,0.3231442868709564
1700516161187223600,6.0762236328125,-0.01226230151951313,-0.05022544786334038,0.19134914875030518
1700516161197233700,6.086233642578125,-0.016516702249646187,0.193320631980896,-0.46231842041015625
1700516161207242800,6.09624267578125,-0.03447772189974785,0.026937248185276985,-0.08287598192691803
1700516161217252600,6.106252685546875,0.017338601872324944,0.1218871995806694,0.35335034132003784
1700516161227262700,6.1162626953125,0.05456787347793579,-0.32242369651794434,0.10333796590566635
1700516161237272800,6.12627294921875,-0.05002325028181076,0.19179917871952057,-0.5499240159988403
1700516161247282700,6.13628271484375,-0.014617489650845528,0.05831637978553772,0.23236002027988434
1700516161257292800,6.146292724609375,0.0739390030503273,0.056730736047029495,0.10220014303922653
1700516161267302700,6.156302734375,-0.06391914188861847,-0.11548684537410736,-0.00806870311498642
1700516161277312800,6.166312744140625,0.03508547320961952,0.08221131563186646,-0.165538489818573
1700516161287321600,6.176321533203125,-0.08386442065238953,0.06744316220283508,0.4204818606376648
1700516161297331500,6.18633154296875,0.06334766745567322,0.12406649440526962,-0.23944784700870514
1700516161307341600,6.196341552734375,-0.052675746381282806,-0.01846776343882084,-0.05981643125414848
1700516161317351700,6.2063515625,0.0011568585177883506,-0.11901780962944031,0.33821162581443787
1700516161327361500,6.216361572265625,-0.006363756023347378,0.21301022171974182,-0.24902021884918213
1700516161337371600,6.22637158203125,-0.06505423039197922,-0.06900975108146667,-0.07724766433238983
1700516161347381500,6.236381591796875,0.0490289144217968,0.056599210947752,0.48901277780532837
1700516161357390600,6.246390625,0.01985238306224346,-0.037893205881118774,-0.09487997740507126
1700516161367400700,6.256400634765625,-0.018934447318315506,-0.028962045907974243,-0.3050443232059479
1700516161377410600,6.26641064453125,0.04512735828757286,-0.0661778524518013,0.25374147295951843
1700516161387420700,6.276420654296875,0.026847027242183685,0.1068706288933754,-0.05714605003595352
1700516161397430800,6.2864306640625,-0.029611721634864807,-0.11760455369949341,-0.1042051762342453
1700516161407440600,6.296440673828125,0.022802559658885002,-0.015054343268275261,0.37346401810646057
1700516161417450800,6.30645068359375,-0.058427050709724426,0.08568771183490753,-0.11630145460367203
1700516161427460600,6.316460693359375,-0.025693420320749283,0.10604343563318253,-0.08563850075006485
1700516161437469700,6.3264697265625,0.0038058815989643335,-0.1276596039533615,0.3227918744087219
1700516161447479800,6.336479736328125,-0.025466276332736015,0.005516731180250645,-0.005155523773282766
1700516161457489700,6.34648974609375,0.022254906594753265,0.0032232170924544334,-0.2705498933792114
1700516161467499800,6.356499755859375,0.0034233436454087496,-0.2648824155330658,0.40081819891929626
1700516161477509600,6.366509521484375,0.047499991953372955,0.0938539057970047,-0.16304919123649597
1700516161487519700,6.376519775390625,-0.005602641962468624,-0.05484742298722267,-0.10001108795404434
1700516161497529900,6.38652978515625,0.011438126675784588,0.017655538395047188,-0.0740860179066658
1700516161507539700,6.396539794921875,-0.03507157415151596,-0.05431407317519188,0.07752805948257446
1700516161517549800,6.4065498046875,0.05061563104391098,0.1832076758146286,-0.019684243947267532
1700516161527558700,6.41655859375,-0.0314837284386158,-0.05024038627743721,-0.042009469121694565
1700516161537568500,6.426568603515625,-0.03722230717539787,0.08252857625484467,0.02903567999601364
1700516161547578600,6.43657861328125,0.12875719368457794,-0.1038583517074585,-0.008903054520487785
1700516161557588500,6.44658837890625,-0.05415324121713638,-0.05844320356845856,0.05450068414211273
1700516161567598600,6.4565986328125,0.022864071652293205,0.03687747195363045,0.18365806341171265
1700516161577608700,6.466608642578125,0.06832742691040039,-0.21802912652492523,0.08655840903520584
1700516161587618600,6.47661865234375,-0.04766710847616196,-0.08267539739608765,-0.12068422138690948
1700516161597628700,6.486628662109375,0.029601048678159714,-0.052863702178001404,0.45532822608947754
1700516161607638500,6.496638427734375,0.37251773476600647,1.367835283279419,-2.365460157394409
1700516161617647600,6.506647705078125,-0.21245969831943512,-0.30546802282333374,0.18460772931575775
1700516161627657700,6.51665771484375,-0.014049919322133064,-0.014944923110306263,1.4193187952041626
1700516161637667600,6.52666748046875,0.07925845682621002,-0.39680200815200806,0.6213054656982422
1700516161647677700,6.536677734375,-0.15267261862754822,0.23724393546581268,0.08822227269411087
1700516161657687600,6.5466875,0.04641837626695633,0.1687338501214981,-0.7702059149742126
1700516161667697700,6.55669775390625,-0.12263169139623642,0.20572270452976227,-0.2518712282180786
1700516161677707800,6.566707763671875,-0.027581609785556793,-0.19522763788700104,0.3345613479614258
1700516161687717600,6.576717529296875,0.10406926274299622,-0.04179411381483078,0.06952939927577972
1700516161697727700,6.586727783203125,-0.12208104878664017,0.28558430075645447,0.24985069036483765
1700516161707737600,6.596737548828125,0.20416919887065887,-0.4282230734825134,0.1823190450668335
1700516161717746700,6.60674658203125,-0.04519856348633766,0.26182591915130615,-0.14809349179267883
1700516161727756800,6.6167568359375,-0.05945883318781853,-0.02532975934445858,0.18690796196460724
1700516161737766700,6.6267666015625,0.19298486411571503,-0.07901961356401443,-0.3495091199874878
1700516161747776800,6.63677685546875,-0.13659361004829407,0.48932793736457825,-0.3808990716934204
1700516161757786600,6.64678662109375,0.08884377032518387,-0.47969117760658264,0.2795068323612213
1700516161767796700,6.656796630859375,0.03899996727705002,0.41383641958236694,-0.14693760871887207
1700516161777806800,6.666806884765625,-0.13090865314006805,0.027801908552646637,0.36975452303886414
1700516161787816700,6.676816650390625,0.19175612926483154,-0.6693768501281738,0.43765750527381897
1700516161797826800,6.686826904296875,-0.12402579933404922,0.3704715073108673,-0.2050016224384308
1700516161807836700,6.696836669921875,-0.09439973533153534,-0.4368627071380615,0.6150637865066528
1700516161817846800,6.7068466796875,0.06405141949653625,0.19531528651714325,-0.3383697271347046
1700516161827857000,6.71685693359375,-0.1588212102651596,0.09373912215232849,-0.1322784125804901
1700516161837865500,6.726865478515625,0.1283370554447174,-0.5605958104133606,-0.07377222180366516
1700516161847875600,6.73687548828125,-0.007527976296842098,0.2991095781326294,-0.9115186333656311
1700516161857885700,6.7468857421875,-0.2618715763092041,0.5629289746284485,0.02323869988322258
1700516161867895600,6.7568955078125,0.218901589512825,-0.6168978214263916,0.1868046671152115
1700516161877905700,6.76690576171875,-0.08283349126577377,0.4088330864906311,0.12529256939888
1700516161887919600,6.776919677734375,0.05064785107970238,-0.5777007341384888,0.8228911757469177
1700516161897929700,6.7869296875,0.04236435517668724,0.31691041588783264,-0.2720610797405243
1700516161907939600,6.796939697265625,-0.1357995718717575,0.3712301552295685,0.25670361518859863
1700516161917949700,6.80694970703125,0.1334252506494522,-0.5287035703659058,0.11875639855861664
1700516161927959800,6.816959716796875,-0.12938527762889862,0.25107255578041077,-0.20667505264282227
1700516161937969700,6.8269697265625,0.0036377517972141504,-0.13990743458271027,0.6164801120758057
1700516161947979800,6.836979736328125,0.05252936854958534,-0.1101110428571701,-0.5765769481658936
1700516161957988900,6.84698876953125,-0.33908551931381226,0.9688825011253357,-0.1186181977391243
1700516161967998500,6.85699853515625,0.12908926606178284,-1.026139736175537,-0.06336574256420135
1700516161978008600,6.867008544921875,-0.049093518406152725,0.41913115978240967,-0.30580076575279236
1700516161988018400,6.877018310546875,-0.1477968990802765,-0.0029796063899993896,0.6582556962966919
1700516161998028500,6.887028564453125,0.1282850056886673,-0.8612066507339478,0.062478307634592056
1700516162008038400,6.897038330078125,-0.16830770671367645,1.0867480039596558,-0.06054837629199028
1700516162018048500,6.907048583984375,0.16534855961799622,-1.0203801393508911,0.16709090769290924
1700516162028058600,6.91705859375,-0.12068160623311996,0.51744544506073,-0.3971911072731018
1700516162038068500,6.927068359375,-0.029745308682322502,0.09534070640802383,0.49126264452934265
1700516162048078600,6.93707861328125,0.16723068058490753,-0.5069398880004883,0.05482782796025276
1700516162058088400,6.94708837890625,-0.1852722316980362,0.8063910603523254,0.22793330252170563
1700516162068098600,6.9570986328125,0.1896352767944336,-0.9574780464172363,0.055004823952913284
1700516162078108700,6.967108642578125,-0.06446224451065063,0.5833603739738464,-0.6335639953613281
1700516162088118500,6.977118408203125,0.024370964616537094,-0.5638983249664307,0.20010524988174438
1700516162098128600,6.987128662109375,0.1392861008644104,-0.06241445615887642,-0.4901706576347351
1700516162108137700,6.9971376953125,-0.14167648553848267,0.921848475933075,0.12038131058216095
1700516162118147600,7.007147705078125,0.13033798336982727,-0.7163947820663452,0.5370925664901733
1700516162128157700,7.01715771484375,-0.018470607697963715,0.5735283493995667,-0.012937817722558975
1700516162138167600,7.02716748046875,0.15639628469944,-0.7598908543586731,0.40474623441696167
1700516162148177700,7.037177734375,-0.025423821061849594,0.3078497350215912,-0.327077180147171
1700516162158187500,7.0471875,-0.02930884063243866,0.038089629262685776,0.5174695253372192
1700516162168197600,7.05719775390625,0.10130184888839722,-0.29669389128685,0.05418732017278671
1700516162178207700,7.067207763671875,-0.14217711985111237,0.5772149562835693,0.06640350073575974
1700516162188217600,7.077217529296875,0.07609875500202179,-0.7910628914833069,0.16980072855949402
1700516162198227700,7.087227783203125,-0.10879360139369965,0.6439623236656189,-0.22943347692489624
1700516162208237600,7.097237548828125,-0.0025174268521368504,-0.4712401032447815,0.2831744849681854
1700516162218247700,7.10724755859375,-0.014376749284565449,-0.06000727042555809,-0.25708264112472534
1700516162228257500,7.117257568359375,0.029626987874507904,-0.20439760386943817,0.32788464426994324
1700516162238267600,7.127267578125,-0.031619593501091,-0.1975913643836975,-0.4238378405570984
1700516162248277800,7.13727783203125,-0.02022477425634861,0.12195524573326111,-0.07312523573637009
1700516162258287600,7.14728759765625,-0.06174958124756813,-0.25634145736694336,-0.07946675270795822
1700516162268297700,7.157297607421875,-0.04113950952887535,0.28039130568504333,-0.06569157540798187
1700516162278306800,7.167306884765625,-0.01579154282808304,-0.47708120942115784,-0.0844183936715126
1700516162288316700,7.177316650390625,0.0143295768648386,0.389433890581131,-0.35952141880989075
1700516162298326800,7.187326904296875,0.00035836780443787575,-0.4305683374404907,0.13974778354167938
1700516162308336600,7.197336669921875,0.022541150450706482,0.07339424639940262,-0.34565305709838867
1700516162318346800,7.2073466796875,0.10012169927358627,-0.20393456518650055,0.017533108592033386
1700516162328356600,7.217356689453125,-0.08738192170858383,-0.03225666284561157,-0.5137662887573242
1700516162338366500,7.227366455078125,0.03443346172571182,0.4276374280452728,-0.04234020784497261
1700516162348376600,7.23737646484375,-0.01826237514615059,-0.27734169363975525,0.15896464884281158
1700516162358386400,7.247386474609375,0.02301901951432228,0.5019658207893372,0.4330204129219055
1700516162368396500,7.257396484375,-0.028041986748576164,-0.4111686944961548,0.11254490166902542
1700516162378406400,7.267406494140625,-0.02512049861252308,0.8936201930046082,0.03224046900868416
1700516162388416500,7.27741650390625,-0.03156842291355133,-0.34923264384269714,0.3663419485092163
1700516162398426600,7.287426513671875,0.009511901997029781,0.6951273083686829,0.2898128032684326
1700516162408436500,7.2974365234375,0.09429965913295746,-0.6309090852737427,0.24080654978752136
1700516162418446600,7.307446533203125,-0.011612393893301487,0.7178328037261963,-0.12339963763952255
1700516162428456400,7.31745654296875,0.011463564820587635,-0.3462957441806793,0.3207823634147644
1700516162438466600,7.327466552734375,0.0049611907452344894,0.4473366439342499,-0.044087763875722885
1700516162448476700,7.3374765625,0.11377400904893875,-0.5392097234725952,0.0014407457783818245
1700516162458486500,7.347486572265625,-0.025885092094540596,0.46685394644737244,-0.26367056369781494
1700516162468496600,7.35749658203125,0.04458237066864967,-0.3252280056476593,-0.06871640682220459
1700516162478506500,7.367506591796875,-0.05819514021277428,0.0952979028224945,-0.25761866569519043
1700516162488516600,7.3775166015625,0.214750736951828,-0.42665496468544006,-0.07131633162498474
1700516162498526500,7.3875263671875,-0.12242888659238815,0.21810166537761688,-0.4770936667919159
1700516162508536600,7.39753662109375,0.03868269920349121,-0.30061444640159607,-0.04847945272922516
1700516162518546700,7.407546630859375,-0.024514643475413322,0.04038337245583534,-0.09264425188302994
1700516162528555500,7.417555419921875,0.1660590022802353,-0.407816618680954,-0.1519809514284134
1700516162538565600,7.427565673828125,-0.07887832075357437,0.17886176705360413,-0.3421497941017151
1700516162548575700,7.43757568359375,0.014696670696139336,-0.09477641433477402,0.17184969782829285
1700516162558585600,7.447585693359375,-0.00907497201114893,0.22503994405269623,-0.014630693942308426
1700516162568595700,7.457595703125,0.07807232439517975,-0.3400973081588745,0.16794529557228088
1700516162578605600,7.46760546875,-0.07647889852523804,0.3430335819721222,-0.06337182968854904
1700516162588615700,7.47761572265625,0.005191966891288757,-0.42734265327453613,0.17829130589962006
1700516162598625500,7.48762548828125,-0.07424773275852203,0.508713960647583,-0.026377953588962555
1700516162608635600,7.4976357421875,0.14461398124694824,-0.9715704321861267,-0.037611138075590134
1700516162618645800,7.507645751953125,-0.11708127707242966,0.5841971635818481,-0.1922965794801712
1700516162628655600,7.517655517578125,0.014807872474193573,-0.5736207962036133,0.13247887790203094
1700516162638665700,7.527665771484375,-0.024312365800142288,0.36321377754211426,0.2018614113330841
1700516162648675600,7.537675537109375,0.05118520185351372,-0.31566235423088074,-0.24869929254055023
1700516162658685700,7.547685791015625,0.017572645097970963,0.22788533568382263,0.12696567177772522
1700516162668695800,7.55769580078125,-0.07920665293931961,-0.23385018110275269,0.1866280734539032
1700516162678705700,7.56770556640625,0.04019324108958244,0.16015677154064178,0.26691359281539917
1700516162688715800,7.5777158203125,-0.1019536629319191,-0.09006495028734207,-0.27658358216285706
1700516162698725600,7.5877255859375,0.06063098832964897,-0.04019193723797798,0.14402437210083008
1700516162708735700,7.59773583984375,-0.047697022557258606,-0.06662464886903763,-0.11247612535953522
1700516162718745600,7.60774560546875,0.10472714155912399,-0.36561426520347595,0.334041953086853
1700516162728755700,7.617755615234375,-0.12680456042289734,0.45676693320274353,-0.15475228428840637
1700516162738765800,7.627765869140625,0.06674972921609879,-0.455346018075943,0.3306729793548584
1700516162748775700,7.637775634765625,-0.06998268514871597,0.4909188151359558,0.12460780888795853
1700516162758785800,7.647785888671875,0.1547337919473648,-0.5652525424957275,-0.1408023089170456
1700516162768795600,7.657795654296875,-0.08513026684522629,0.5111609697341919,-0.22128833830356598
1700516162778805800,7.6678056640625,-0.00944589078426361,-0.3451315760612488,0.20550693571567535
1700516162788815600,7.677815673828125,0.009004754945635796,0.3232363760471344,0.2762995958328247
1700516162798825500,7.687825439453125,-0.0955437570810318,-0.2718411087989807,-0.3332183361053467
1700516162808835600,7.697835693359375,0.07107540965080261,0.2684418857097626,-0.1466425210237503
1700516162818845400,7.707845458984375,-0.09242084622383118,-0.10915680229663849,-0.3384542763233185
1700516162828855600,7.71785546875,0.19810910522937775,-0.2965821623802185,0.028687188401818275
1700516162838865400,7.727865478515625,-0.12627482414245605,0.3528096675872803,-0.430936336517334
1700516162848875500,7.73787548828125,0.052680082619190216,-0.4052119851112366,0.0837615579366684
1700516162858885600,7.7478857421875,0.006785028614103794,0.3314468562602997,-0.045605480670928955
1700516162868895500,7.7578955078125,0.014832918532192707,-0.3421232998371124,-0.14602813124656677
1700516162878905600,7.767905517578125,0.04039047658443451,0.5419649481773376,-0.11054843664169312
1700516162888915000,7.7779150390625,0.042508870363235474,-0.48291051387786865,0.2037535160779953
1700516162898925000,7.787925048828125,0.03730958327651024,0.2974127233028412,0.5070750713348389
1700516162908935200,7.79793505859375,-0.03978721797466278,0.22257070243358612,-0.43651068210601807
1700516162918945000,7.807945068359375,0.0981256440281868,-0.07676754891872406,0.11965988576412201
1700516162928955100,7.817955078125,-0.09509222209453583,0.15579843521118164,0.10058150440454483
1700516162938965000,7.827965087890625,0.15440654754638672,-0.30957749485969543,-0.06625594943761826
1700516162948975000,7.83797509765625,-0.11894991248846054,0.2724578380584717,-0.18279147148132324
1700516162958985200,7.847985107421875,-0.003231569193303585,-0.5211502909660339,0.3700088560581207
1700516162968995000,7.8579951171875,-0.03824140876531601,0.4579870402812958,0.23084469139575958
1700516162979005200,7.868005126953125,0.001186959445476532,-0.47235020995140076,-0.4089358448982239
1700516162989015000,7.87801513671875,0.07316893339157104,0.40334102511405945,0.14600452780723572
1700516162999025200,7.888025146484375,-0.0785372406244278,-0.16240441799163818,0.2084045261144638
1700516163009035000,7.898034912109375,0.15257759392261505,-0.2920330762863159,0.20689363777637482
1700516163019045000,7.908045166015625,-0.07169998437166214,0.423991858959198,-0.19478029012680054
1700516163029055200,7.91805517578125,0.033870186656713486,-0.4082334041595459,0.0464397557079792
1700516163039065000,7.928065185546875,-0.014913597144186497,0.6253622770309448,0.45813676714897156
1700516163049075200,7.9380751953125,-0.05667031556367874,-0.051224466413259506,0.18304285407066345
1700516163059085000,7.9480849609375,0.08941178768873215,0.0015122477198019624,0.15392038226127625
1700516163069095200,7.95809521484375,-0.08491715788841248,-0.08497455716133118,-0.19851981103420258
1700516163079105000,7.96810498046875,0.01740574836730957,-0.46587634086608887,0.16230016946792603
1700516163089115100,7.978115234375,-0.0925491601228714,0.5399408936500549,-0.2419108748435974
1700516163099125200,7.988125244140625,0.03880593925714493,-0.6585569977760315,0.033070359379053116
1700516163109135000,7.998135009765625,-0.039173875004053116,0.17582643032073975,0.09144022315740585
1700516163119145200,8.008145263671874,-0.07401654124259949,-0.3396363854408264,-0.2936509847640991
1700516163129155000,8.018155029296874,0.12508393824100494,0.36574169993400574,-0.24654307961463928
1700516163139165200,8.028165283203125,-0.03979582339525223,-0.2588313817977905,-0.2071637213230133
1700516163149175000,8.038175048828125,0.11119256913661957,-0.08452067524194717,0.08605406433343887
1700516163159185200,8.04818505859375,-0.07455332577228546,0.317527711391449,-0.3235608637332916
1700516163169195300,8.0581953125,0.09312529116868973,0.13390150666236877,0.019716648384928703
1700516163179205000,8.068205078125,0.00011465512216091156,0.48512184619903564,0.04882553219795227
1700516163189215200,8.07821533203125,0.03724932670593262,-0.15569041669368744,-0.14788968861103058
1700516163199225000,8.08822509765625,0.051315609365701675,0.6265841126441956,0.5462056994438171
1700516163209235200,8.098235107421875,-0.15742771327495575,-0.16180181503295898,0.7593876123428345
1700516163219245300,8.108245361328125,0.0603453628718853,-0.1622399091720581,0.6058590412139893
1700516163229255200,8.118255126953125,-0.09407988935709,0.485233336687088,-0.3051203489303589
1700516163239265300,8.128265380859375,-0.0011611366644501686,-0.42187339067459106,-0.05346148461103439
1700516163249275100,8.138275146484375,-0.020710891112685204,0.41964542865753174,0.12378428876399994
1700516163259285200,8.14828515625,-0.07848231494426727,-0.1796789914369583,-0.26383936405181885
1700516163269295000,8.158295166015625,0.06302018463611603,-0.054909855127334595,0.01527994405478239
1700516163279305200,8.16830517578125,-0.06908246129751205,-0.07084807753562927,-0.3874954581260681
1700516163289315300,8.1783154296875,0.19743335247039795,-0.2480313926935196,-0.4144483804702759
1700516163299325200,8.1883251953125,-0.046848028898239136,0.29937711358070374,-0.5124284625053406
1700516163309335300,8.198335205078125,0.13769419491291046,-0.1724570244550705,-0.25086069107055664
1700516163319345200,8.20834521484375,0.025555940344929695,0.38376572728157043,0.012602634727954865
1700516163329355300,8.218355224609375,0.05539387837052345,-0.2845531404018402,-0.4794105887413025
1700516163339365000,8.228365234375,0.010595781728625298,0.501128613948822,-0.03489303216338158
1700516163349375200,8.238375244140625,-0.025201650336384773,-0.1671251505613327,-0.09144963324069977
1700516163359385300,8.24838525390625,0.07819824665784836,-0.002289335709065199,0.2451116144657135
1700516163369395200,8.258395263671876,-0.07280293107032776,0.09780456870794296,-0.09666375815868378
1700516163379405300,8.2684052734375,-0.0871693566441536,-0.1370454877614975,0.26920345425605774
1700516163389415200,8.278415283203126,-0.08108129352331161,0.23600588738918304,0.456061452627182
1700516163399425300,8.28842529296875,-0.05993872508406639,-0.37707722187042236,-0.19909241795539856
1700516163409435400,8.298435302734376,0.04648176580667496,0.3437374234199524,-0.039730072021484375
1700516163419446300,8.3084462890625,-0.048434894531965256,-0.11413559317588806,0.12413077056407928
1700516163429456100,8.3184560546875,0.13619792461395264,-0.2657964825630188,0.013369040563702583
1700516163439466200,8.32846630859375,-0.09353940933942795,0.4227624833583832,-0.2366810142993927
1700516163449476400,8.338476318359374,0.03262048959732056,-0.19788114726543427,-0.017332429066300392
1700516163459486200,8.348486328125,-0.001903399359434843,0.4500715136528015,0.14768075942993164
1700516163469496300,8.358496337890625,-0.030676135793328285,-0.066769078373909,-0.36124321818351746
1700516163479506200,8.368506103515625,-0.005299938376992941,0.3437180519104004,-0.19154420495033264
1700516163489516300,8.378516357421875,-0.08111996203660965,0.11799763143062592,-0.3358438313007355
1700516163499526100,8.388526123046875,0.1213146299123764,-0.20337852835655212,-0.3808397948741913
1700516163509536300,8.398536376953125,-0.035747215151786804,-0.09887828677892685,-0.4580736756324768
1700516163519546400,8.40854638671875,0.04147274047136307,-0.270920068025589,-0.36769771575927734
1700516163529556200,8.41855615234375,-0.1112729161977768,0.06443920731544495,-0.02885449305176735
1700516163539566300,8.42856640625,0.06434764713048935,-0.3658234775066376,-0.5621216297149658
1700516163549576000,8.438575927734375,0.06655177474021912,0.17078204452991486,0.25393974781036377
1700516163559586000,8.4485859375,0.05864538624882698,0.20417143404483795,0.5242460370063782
1700516163569596200,8.45859619140625,0.08220811188220978,-0.08891616761684418,0.529969334602356
1700516163579606000,8.46860595703125,-0.021495912224054337,0.6306441426277161,0.3983767330646515
1700516163589616000,8.4786162109375,-0.02059195376932621,-0.2923464775085449,0.5005496740341187
1700516163599626000,8.4886259765625,0.04169085994362831,0.4994232654571533,0.5902401208877563
1700516163609636000,8.498635986328125,0.0031301057897508144,-0.07322247326374054,0.03662353381514549
1700516163619646000,8.50864599609375,0.025887615978717804,-0.21838659048080444,0.08800576627254486
1700516163629656000,8.518656005859375,-0.0919555053114891,0.30042362213134766,-0.1474858969449997
1700516163639666200,8.528666259765625,-0.008843572810292244,-0.9900094270706177,-0.3484134078025818
1700516163649676000,8.538676025390625,-0.06667859107255936,0.36069241166114807,-0.6450914144515991
1700516163659686100,8.54868603515625,-0.1176602840423584,-0.5840895771980286,-0.28819504380226135
1700516163669696000,8.558696044921875,0.049859557300806046,0.06848669797182083,0.09096790850162506
1700516163679706000,8.5687060546875,0.007602917030453682,0.1468116044998169,-0.037181541323661804
1700516163689717000,8.578717041015626,0.007055202499032021,-0.27227768301963806,0.3772799074649811
1700516163699727000,8.58872705078125,0.07809396088123322,0.7055799961090088,0.16295669972896576
1700516163709737000,8.598737060546876,0.04910975694656372,-0.48026710748672485,-0.15436194837093353
1700516163719747000,8.6087470703125,0.037635259330272675,0.46223387122154236,-0.17744195461273193
1700516163729757200,8.618757080078124,-0.09414109587669373,-0.4811441898345947,-0.38416701555252075
1700516163739767000,8.62876708984375,0.06487039476633072,0.02054077759385109,-0.2738511562347412
1700516163749777200,8.638777099609374,-0.03511594980955124,-0.4338141083717346,-0.6006391644477844
1700516163759787000,8.648787109375,0.06291075050830841,-0.1868847757577896,-0.37982234358787537
1700516163769797000,8.658797119140624,-0.0767790898680687,-0.41858717799186707,-0.38772156834602356
1700516163779807000,8.668806884765624,0.13419465720653534,-0.17847126722335815,-0.09811291098594666
1700516163789817000,8.678817138671874,0.09323621541261673,-0.18841645121574402,-0.10454773157835007
1700516163799827200,8.6888271484375,-0.07813793420791626,-0.0002470778999850154,0.11429912596940994
1700516163809837000,8.698837158203125,-0.01949474588036537,-0.00436623627319932,0.38560280203819275
1700516163819847200,8.70884716796875,-0.025306828320026398,1.0020140409469604,1.2090119123458862
1700516163829857000,8.71885693359375,-0.12958022952079773,0.023127015680074692,1.8588452339172363
1700516163839867100,8.7288671875,0.056035179644823074,0.5279057621955872,1.4029322862625122
1700516163849877000,8.738876953125,0.08328070491552353,-0.2576259970664978,-0.059536974877119064
1700516163859887000,8.74888720703125,-0.07716143131256104,0.013658772222697735,-0.257881224155426
1700516163869897200,8.758897216796875,-0.03807436674833298,0.1122383326292038,-0.4213181436061859
1700516163879907000,8.768906982421875,0.10275864601135254,-0.9074679613113403,-0.2386482059955597
1700516163889913900,8.778913818359374,-0.021870575845241547,0.4315592050552368,-0.445250928401947
1700516163899925000,8.788925048828125,0.02606499195098877,-0.4173750579357147,-0.1397610604763031
1700516163909935000,8.79893505859375,0.0878237783908844,-0.06620724499225616,0.116472989320755
1700516163919945000,8.808945068359375,-0.017558304592967033,0.13278654217720032,-0.30435147881507874
1700516163929955000,8.818955078125,-0.04128023236989975,-0.1877698004245758,0.1628381460905075
1700516163939965000,8.82896484375,-0.11600320786237717,0.29385408759117126,0.3196043074131012
1700516163949975000,8.83897509765625,0.03402703255414963,-0.48518964648246765,-0.04629913717508316
1700516163959985000,8.84898486328125,-0.07374469935894012,0.3239988088607788,-0.19608943164348602
1700516163969995000,8.8589951171875,-0.1542346477508545,-0.4866954982280731,0.12184548377990723
1700516163980005000,8.869005126953125,0.04194338247179985,-0.2177836000919342,0.08859352767467499
1700516163990015000,8.879014892578125,-0.18077470362186432,-0.007054963614791632,-0.6850244402885437
1700516164000024800,8.88902490234375,-0.08616326004266739,0.18233279883861542,-0.33645448088645935
1700516164010034700,8.89903466796875,-0.12619128823280334,-0.3585106432437897,-0.2603524625301361
1700516164020044800,8.909044921875,-0.05198604241013527,-0.35949307680130005,-0.3711428940296173
1700516164030055000,8.919054931640625,0.034265533089637756,0.6439359784126282,-0.3172222971916199
1700516164040064800,8.929064697265625,-0.07996543496847153,-0.18577159941196442,0.4275866448879242
1700516164050075000,8.939074951171875,0.0014461773680523038,0.10775161534547806,0.8471939563751221
1700516164060086000,8.9490859375,0.053961049765348434,0.4559498131275177,0.22995178401470184
1700516164070096100,8.95909619140625,0.018012361600995064,-0.14549805223941803,0.41927632689476013
1700516164080106000,8.96910595703125,-0.1191478967666626,0.48913270235061646,0.13534395396709442
1700516164090116000,8.9791162109375,-0.002617141231894493,-0.34488993883132935,-0.2939480245113373
1700516164100126000,8.9891259765625,0.04383557662367821,0.21461276710033417,-0.24173463881015778
1700516164110135800,8.9991357421875,-0.08834977447986603,-0.21674397587776184,-0.3802321255207062
1700516164120146000,9.00914599609375,0.09946460276842117,-0.348839670419693,-0.24638298153877258
1700516164130155800,9.01915576171875,-0.06155797466635704,0.11217272281646729,-0.43623775243759155
1700516164140166000,9.029165771484376,-0.009251896291971207,-0.2755507826805115,-0.07272878289222717
1700516164150175700,9.03917578125,0.08153311163187027,0.5256775617599487,0.41315993666648865
1700516164160185900,9.049185791015624,0.000970894587226212,-0.04557530954480171,0.589424192905426
1700516164170195700,9.05919580078125,0.029326526448130608,0.39994943141937256,0.8067249059677124
1700516164180205800,9.069205810546874,-0.05077443644404411,0.26986441016197205,0.39836588501930237
1700516164190216000,9.0792158203125,0.006572414189577103,-0.18367961049079895,0.6119811534881592
1700516164200225800,9.089225830078124,-0.1116061583161354,0.5796734094619751,0.054635073989629745
1700516164210237000,9.09923681640625,-0.08696980029344559,-0.39114075899124146,0.20813849568367004
1700516164220247000,9.1092470703125,-0.10340522974729538,0.2616910934448242,0.14202739298343658
1700516164230257000,9.1192568359375,-0.0676431655883789,-0.016553502529859543,-0.5921393632888794
1700516164240266800,9.129266845703125,-0.024679450318217278,-0.0803990587592125,-0.32351747155189514
1700516164250276900,9.13927685546875,-0.14580878615379333,0.14977499842643738,-0.4504617750644684
1700516164260286700,9.14928662109375,0.05404867231845856,-0.6291921734809875,-0.3156948983669281
1700516164270296800,9.159296875,-0.054047342389822006,0.4977225065231323,-0.4209918677806854
1700516164280307000,9.169306884765625,-0.034359127283096313,-0.4174930155277252,0.06599243730306625
1700516164290316800,9.17931689453125,0.09305296838283539,0.22399698197841644,0.1659068912267685
1700516164300327000,9.189326904296875,0.04524416849017143,-0.39625245332717896,-0.633220374584198
1700516164310336800,9.199336669921875,-0.08569349348545074,0.7635218501091003,-0.2682599425315857
1700516164320347000,9.209346923828125,-0.05363435670733452,-0.34930986166000366,-0.035866931080818176
1700516164330356700,9.219356689453125,0.021788587793707848,-0.15956011414527893,-0.042603667825460434
1700516164340366800,9.229366943359375,-0.03333218768239021,0.460750550031662,0.06393555551767349
1700516164350377700,9.239377685546875,-0.05387444421648979,-0.2712455689907074,0.4751296937465668
1700516164360387800,9.249387939453126,-0.011543499305844307,0.288770854473114,0.5918837189674377
1700516164370397700,9.259397705078126,-0.08076158910989761,-0.019250037148594856,0.030003326013684273
1700516164380407800,9.26940771484375,0.019432121887803078,0.4196743369102478,0.07678841054439545
1700516164390418000,9.27941796875,-0.02721002697944641,0.3135739862918854,0.10733687877655029
1700516164400427800,9.289427734375,-0.05649467930197716,-0.1699405014514923,0.26881179213523865
1700516164410438000,9.29943798828125,-0.014079573564231396,0.46512338519096375,0.1300731897354126
1700516164420447700,9.30944775390625,-0.05717378109693527,-0.28323206305503845,0.09175722301006317
1700516164430457900,9.319457763671876,0.07655584812164307,-0.10492413491010666,0.3317834734916687
1700516164440467700,9.3294677734375,-0.02114381454885006,0.3180484175682068,-0.4494881331920624
1700516164450477800,9.339477783203124,-0.037645939737558365,-0.15410536527633667,-0.007665203418582678
1700516164460488000,9.349488037109374,-0.0031814405228942633,0.33676716685295105,-0.06034838780760765
1700516164470498800,9.359498779296874,0.08853709697723389,-0.6568539142608643,-0.3239569664001465
1700516164480509000,9.369509033203125,-0.04228350147604942,0.6581761240959167,-0.3084624111652374
1700516164490518800,9.379518798828125,0.0463545136153698,-0.5769448280334473,0.013282316736876965
1700516164500529000,9.38952880859375,0.1623961627483368,-0.15879498422145844,0.0036725662648677826
1700516164510538800,9.399538818359375,-0.020966017618775368,0.35461533069610596,-0.5571821928024292
1700516164520548900,9.409548828125,-0.0666235163807869,0.3551042675971985,0.34576788544654846
1700516164530558700,9.419558837890625,-0.021703533828258514,0.15980450809001923,0.6464514136314392
1700516164540568800,9.42956884765625,0.02874712273478508,-0.10148967057466507,0.21772801876068115
1700516164550579000,9.439578857421875,-0.03133925423026085,0.4700651466846466,0.2597465217113495
1700516164560588800,9.4495888671875,0.003818466328084469,-0.31208130717277527,0.0734325423836708
1700516164570599000,9.459598876953125,0.08718744665384293,0.018988007679581642,0.1624584197998047
1700516164580609800,9.46960986328125,0.009241243824362755,0.5360122323036194,-0.21048852801322937
1700516164590620000,9.479619873046875,0.019309857860207558,-0.3894397020339966,0.25616762042045593
1700516164600629800,9.489629638671875,0.11560391634702682,0.40492579340934753,0.5449170470237732
1700516164610640000,9.499639892578125,0.17210343480110168,-0.13846784830093384,-0.10243909060955048
1700516164620649700,9.509649658203125,0.041970737278461456,0.43379300832748413,-0.018969496712088585
1700516164630659800,9.519659912109375,0.03589734807610512,0.3286071717739105,0.25225600600242615
1700516164640669700,9.529669677734375,0.1265643984079361,-0.5675231218338013,0.14678578078746796
1700516164650679800,9.5396796875,-0.12427204102277756,0.46034717559814453,0.01984347775578499
1700516164660690000,9.54968994140625,0.048075757920742035,-0.47428759932518005,-0.17172196507453918
1700516164670699800,9.55969970703125,0.07152517884969711,0.2670157849788666,-0.29819175601005554
1700516164680710000,9.5697099609375,-0.061259232461452484,-0.35068953037261963,-0.7463560104370117
1700516164690720800,9.579720703125,0.045353963971138,0.1685064435005188,-0.25008806586265564
1700516164700731000,9.58973095703125,0.02405719831585884,0.06067691743373871,-0.12932570278644562
1700516164710740700,9.59974072265625,0.12196437269449234,-0.4083450138568878,0.14855915307998657
1700516164720750800,9.609750732421874,0.10365673899650574,0.42125415802001953,0.09404504299163818
1700516164730760700,9.6197607421875,0.025814078748226166,-0.2785881757736206,0.12858393788337708
1700516164740770800,9.629770751953124,0.10637630522251129,0.20549514889717102,0.2922818064689636
1700516164750781000,9.639781005859374,0.08154962211847305,-0.22230775654315948,-0.3177242875099182
1700516164760790800,9.649790771484374,-0.07210119068622589,0.3654921054840088,-0.22950732707977295
1700516164770801000,9.65980078125,0.02721601352095604,-0.15744301676750183,0.08783857524394989
1700516164780810800,9.669810791015625,0.13899368047714233,-0.9612729549407959,-0.40732190012931824
1700516164790820900,9.67982080078125,-0.045099347829818726,0.5394477248191833,-0.5072301626205444
1700516164800831700,9.689831787109375,0.039383843541145325,-0.46821630001068115,-0.18737518787384033
1700516164810841900,9.699841796875,0.1550057828426361,-0.15995515882968903,0.04906664416193962
1700516164820851700,9.709851806640625,0.018583225086331367,0.18786939978599548,-0.37584418058395386
1700516164830861800,9.71986181640625,0.05889188498258591,0.1068572998046875,0.12313088774681091
1700516164840872000,9.729871826171875,0.024935780093073845,0.21971648931503296,0.19520561397075653
1700516164850881800,9.7398818359375,0.0028826044872403145,-0.44092318415641785,-0.2564106285572052
1700516164860892000,9.749891845703125,0.11790212988853455,0.36614909768104553,-0.29828697443008423
1700516164870901800,9.75990185546875,-0.10573654621839523,0.2948908507823944,-0.032542429864406586
1700516164880912000,9.769911865234375,0.08450289815664291,-0.18833254277706146,0.5105522871017456
1700516164890921500,9.77992138671875,0.08205806463956833,0.38530242443084717,0.014529306441545486
1700516164900932600,9.7899326171875,-0.2343776673078537,0.28201544284820557,0.5380039811134338
1700516164910942500,9.7999423828125,0.11143491417169571,-0.04225735738873482,0.47137293219566345
1700516164920952600,9.80995263671875,-0.018739596009254456,-0.1320679485797882,-0.17949140071868896
1700516164930962700,9.819962646484376,-0.029294241219758987,0.09037903696298599,-0.10147589445114136
1700516164940972500,9.82997265625,-0.02997308038175106,-0.2793816924095154,-0.33438265323638916
1700516164950982700,9.839982666015626,0.16948704421520233,-0.2598835527896881,-0.2009645700454712
1700516164960992500,9.849992431640626,0.041723210364580154,-0.01667007803916931,-0.5584657192230225
1700516164971002600,9.860002685546876,0.04979589208960533,-0.09060779958963394,-0.4251176714897156
1700516164981012500,9.870012451171876,-0.05977268144488335,0.21969148516654968,-0.34892889857292175
1700516164991023600,9.880023681640624,0.11518405377864838,-0.36442384123802185,-0.1497415006160736
1700516165001033500,9.890033447265624,0.012369794771075249,0.37457752227783203,-0.35973361134529114
1700516165011043600,9.900043701171874,-0.1020008772611618,0.1562025547027588,-0.33920443058013916
1700516165021053400,9.910053466796874,-0.05358674377202988,-0.12529650330543518,-0.2125847041606903
1700516165031063600,9.9200634765625,-0.020629113540053368,-0.42823055386543274,-0.004262790083885193
1700516165041073700,9.93007373046875,-0.15174904465675354,0.4972994029521942,0.22825726866722107
1700516165051083500,9.94008349609375,-0.006269083358347416,-0.002892258344218135,-0.0770314633846283
1700516165061093600,9.95009375,0.06947814673185349,-0.10931643098592758,-0.31940603256225586
1700516165071103500,9.960103515625,-0.022889122366905212,0.06366396695375443,-0.536602795124054
1700516165081114600,9.970114501953125,-0.03510450944304466,0.04226173460483551,-0.6277526617050171
1700516165091124500,9.98012451171875,0.060874320566654205,-0.028638077899813652,-0.5761974453926086
1700516165101134600,9.990134521484375,0.07932789623737335,0.06922483444213867,-0.48157721757888794
1700516165111144400,10.00014453125,0.07218381017446518,0.28941115736961365,-0.28058409690856934
1700516165121154600,10.010154541015625,0.06596826016902924,-0.03150402009487152,-0.22849957644939423
1700516165131164700,10.02016455078125,0.13648775219917297,-0.24573953449726105,0.010307831689715385
1700516165141174500,10.030174560546875,0.03282207250595093,0.5064916014671326,0.5593437552452087
1700516165151184600,10.0401845703125,0.03508102521300316,0.3333924114704132,0.6761974096298218
1700516165161194500,10.050194580078125,0.09087903797626495,-0.030147727578878403,1.0077722072601318
1700516165171205600,10.06020556640625,0.24697187542915344,0.39529144763946533,0.5379692912101746
1700516165181215500,10.070215576171876,0.03825194016098976,0.12436142563819885,0.3531387150287628
1700516165191225600,10.0802255859375,0.1591862440109253,-0.09449667483568192,0.3512326776981354
1700516165201235500,10.0902353515625,0.08723907917737961,0.08013797551393509,-0.3117964267730713
1700516165211245600,10.10024560546875,-0.11663782596588135,0.21134132146835327,-0.045428723096847534
1700516165221255400,10.11025537109375,-0.001511235604993999,-0.31888288259506226,-0.034172073006629944
1700516165231265500,10.120265625,0.06133388355374336,-0.6244558691978455,-0.4029688537120819
1700516165241275600,10.130275634765624,0.024770548567175865,0.6045775413513184,-0.3128538727760315
1700516165251286500,10.14028662109375,-0.10477510094642639,-0.2509367763996124,0.08237233757972717
1700516165261296400,10.15029638671875,0.03947022929787636,-0.09135695546865463,0.4437590539455414
1700516165271306500,10.160306396484375,0.11285389959812164,0.11374383419752121,0.07495313882827759
1700516165281316600,10.170316650390625,-0.10575301200151443,0.34436771273612976,0.2536528408527374
1700516165291326500,10.180326416015625,0.006473931949585676,0.49189332127571106,0.6966875791549683
1700516165301336600,10.190336669921875,0.1272253841161728,-0.5175459384918213,0.37310314178466797
1700516165311346400,10.200346435546875,0.04507000744342804,0.6406866312026978,0.06619570404291153
1700516165321356500,10.2103564453125,0.05245921388268471,-0.19351764023303986,0.12238281220197678
1700516165331367700,10.22036767578125,0.10812658816576004,-0.26478782296180725,0.05517793074250221
1700516165341377800,10.230377685546875,0.04761024937033653,0.3280898928642273,-0.13269689679145813
1700516165351387600,10.2403876953125,-0.049559082835912704,-0.2109842151403427,0.1433415561914444
1700516165361397500,10.2503974609375,0.1571911722421646,0.24686351418495178,0.31271862983703613
1700516165371407600,10.26040771484375,0.09305974096059799,0.2094288468360901,-0.1197003647685051
1700516165381417500,10.27041748046875,-0.09460229426622391,0.14174993336200714,0.34504228830337524
1700516165391427600,10.280427490234375,0.1488499790430069,0.25449812412261963,0.3918904960155487
1700516165401437400,10.2904375,0.0655183494091034,-0.36442500352859497,0.07651735842227936
1700516165411447600,10.300447509765625,0.0012370434124022722,0.17216958105564117,-0.03706029802560806
1700516165421458700,10.310458740234376,0.027198603376746178,-0.27507877349853516,-0.16099102795124054
1700516165431468800,10.32046875,0.04633917659521103,-0.10994325578212738,0.10418911278247833
1700516165441478700,10.330478759765626,0.05562615394592285,0.009724823758006096,-0.22830148041248322
1700516165451488800,10.34048876953125,-0.11018913239240646,-0.12591665983200073,-0.16740530729293823
1700516165461498600,10.35049853515625,0.00428418256342411,-0.018122291192412376,-0.5063215494155884
1700516165471508500,10.360508544921874,0.10302450507879257,-0.2991255521774292,-0.8374601006507874
1700516165481518600,10.3705185546875,-0.10079067200422287,0.27379870414733887,-0.5309364199638367
1700516165491529700,10.38052978515625,-0.12650281190872192,-0.40574541687965393,-0.1656012237071991
1700516165501539600,10.39053955078125,0.10080517828464508,-0.2526259124279022,-0.1434229463338852
1700516165511549700,10.4005498046875,-0.003337138332426548,0.10614457726478577,-0.5064281225204468
1700516165521559800,10.410559814453125,-0.0013861065963283181,0.4281122386455536,-0.13866367936134338
1700516165531569700,10.420569580078125,-0.1476239264011383,0.24796533584594727,0.17116889357566833
1700516165541579800,10.430579833984375,0.1679026037454605,-0.3142774999141693,0.29449135065078735
1700516165551589600,10.440589599609375,0.04226928576827049,0.8428729772567749,0.07961633801460266
1700516165561599700,10.450599853515625,-0.16594836115837097,0.1312933713197708,0.48561203479766846
1700516165571610600,10.460610595703125,0.20920376479625702,-0.37216565012931824,0.5436655282974243
1700516165581620700,10.470620849609375,0.04903034120798111,0.5291180610656738,0.06337269395589828
1700516165591630600,10.480630615234375,0.0016000015893951058,-0.19744053483009338,0.41217565536499023
1700516165601640700,10.490640625,0.18493761122226715,0.24623651802539825,0.6083528995513916
1700516165611650800,10.50065087890625,0.1640602946281433,0.06661419570446014,-0.04356027767062187
1700516165621660700,10.51066064453125,-0.04859951511025429,0.17363891005516052,0.0853271335363388
1700516165631670800,10.5206708984375,0.08249088376760483,0.16687604784965515,-0.20612896978855133
1700516165641681700,10.530681640625,0.1224614679813385,-0.45788636803627014,-0.3571930527687073
1700516165651691800,10.54069189453125,-0.0160724688321352,0.6272722482681274,-0.31450754404067993
1700516165661701600,10.55070166015625,-0.02931050956249237,-0.31473758816719055,0.16407449543476105
1700516165671711700,10.560711669921876,-0.012184889987111092,0.20445258915424347,0.27738940715789795
1700516165681721600,10.5707216796875,-0.07936419546604156,-0.4843921363353729,-0.2826017439365387
1700516165691731700,10.580731689453126,-0.2287614643573761,0.3927214443683624,-0.32380372285842896
1700516165701741600,10.590741455078126,-0.16261865198612213,-0.19273802638053894,-0.02577975019812584
1700516165711752700,10.600752685546874,0.12777499854564667,-0.34860265254974365,0.00027250731363892555
1700516165721762600,10.610762451171874,-0.17271453142166138,0.07684212923049927,-0.09057111293077469
1700516165731772700,10.620772705078124,-0.09112381190061569,-0.21267195045948029,0.18583253026008606
1700516165741782800,10.63078271484375,0.006099678575992584,0.12304134666919708,0.3483055830001831
1700516165751792600,10.640792724609375,0.05240996181964874,0.017712987959384918,0.09767867624759674
1700516165761802800,10.650802734375,-0.027549583464860916,0.5006141662597656,0.3997519910335541
1700516165771812600,10.6608125,0.1710260659456253,0.08925122767686844,0.5442730188369751
1700516165781823700,10.67082373046875,0.14670580625534058,-0.11425182968378067,-0.002704814076423645
1700516165791833600,10.68083349609375,-0.014744610525667667,0.713254988193512,-0.0666155219078064
1700516165801843700,10.69084375,0.04022489860653877,-0.15077805519104004,0.03923287242650986
1700516165811853600,10.700853515625,0.08855967223644257,0.017381930723786354,0.16777007281780243
1700516165821863700,10.71086376953125,0.0010604510316625237,0.32760584354400635,-0.3749230206012726
1700516165831873500,10.72087353515625,-0.26284873485565186,-0.24881680309772491,0.08611154556274414
1700516165841883600,10.730883544921875,0.006292991805821657,0.18657328188419342,-0.17767880856990814
1700516165851894500,10.74089453125,-0.11624416708946228,-0.9727111458778381,-0.435813844203949
1700516165861904600,10.750904541015625,-0.22261720895767212,0.18373380601406097,-0.4544011056423187
1700516165871914800,10.760914794921876,-0.22457639873027802,-0.44739747047424316,-0.19638977944850922
1700516165881924600,10.770924560546876,-0.08350689709186554,-0.3503577411174774,0.11966513842344284
1700516165891934500,10.7809345703125,0.014010169543325901,-0.03471820056438446,-0.21309255063533783
1700516165901944300,10.7909443359375,-0.29144346714019775,0.17212580144405365,0.16147439181804657
1700516165911954400,10.800954345703126,-0.011033326387405396,0.13640649616718292,0.44507941603660583
1700516165921965300,10.81096533203125,0.04995599389076233,-0.10664395987987518,0.1454450488090515
1700516165931975400,10.820975341796874,-0.12106037139892578,0.6597117185592651,0.23092924058437347
1700516165941985300,10.8309853515625,0.0677228644490242,-0.16010884940624237,0.29254573583602905
1700516165951995400,10.840995361328124,0.07129432260990143,-0.2845170795917511,0.05372017249464989
1700516165962005500,10.851005615234374,-0.06835278868675232,0.4416137635707855,-0.37839528918266296
1700516165972015400,10.861015380859374,-0.16730503737926483,-0.3635545074939728,0.0717155858874321
1700516165982025500,10.871025390625,0.05350829288363457,0.043640684336423874,0.02375684306025505
1700516165992036400,10.881036376953125,-0.052092064172029495,-0.2584557831287384,-0.33612072467803955
1700516166002046500,10.89104638671875,-0.19120760262012482,0.223613902926445,-0.2714671492576599
1700516166012056300,10.901056396484375,-0.06306126713752747,-0.08479923009872437,-0.1841074526309967
1700516166022066400,10.91106640625,-0.06152701750397682,-0.5285471677780151,-0.04988466948270798
1700516166032076300,10.921076171875,-0.011281630024313927,0.15707919001579285,-0.2702275514602661
1700516166042086400,10.93108642578125,-0.27131322026252747,-0.16964885592460632,-0.11865188181400299
1700516166052097300,10.94109716796875,0.024986999109387398,-0.1746436208486557,-0.10129958391189575
1700516166062107400,10.951107421875,0.015078708529472351,-0.1444748044013977,-0.20365498960018158
1700516166072117200,10.9611171875,-0.20004095137119293,0.1836586445569992,-0.044880300760269165
1700516166082127400,10.97112744140625,-0.15219034254550934,0.06681086122989655,0.06495698541402817
1700516166092137200,10.98113720703125,0.11480093002319336,-0.3740317225456238,0.10213731974363327
1700516166102147300,10.991147216796875,-0.034036215394735336,0.4684441089630127,-0.09397706389427185
1700516166112157400,11.001157470703125,-0.14786335825920105,0.004390042275190353,0.3707701563835144
1700516166122168300,11.011168212890626,0.1838621199131012,-0.01331864669919014,0.4860634505748749
1700516166132178400,11.021178466796876,-0.005781316198408604,0.5039308667182922,0.026630617678165436
1700516166142188300,11.031188232421876,-0.13945281505584717,-0.06528224050998688,0.3922796845436096
1700516166152198400,11.041198486328126,-0.07834991067647934,0.5072497129440308,0.4705313444137573
1700516166162208300,11.051208251953126,0.03728986531496048,-0.6279791593551636,-0.0555683933198452
1700516166172218400,11.06121826171875,-0.26342877745628357,0.4396187663078308,-0.48925283551216125
1700516166182229200,11.071229248046874,-0.17696312069892883,-0.4777486324310303,-0.41616344451904297
1700516166192239400,11.0812392578125,-0.10366003960371017,-0.2701185941696167,-0.08557210862636566
1700516166202249200,11.091249267578124,-0.24203601479530334,-0.44013479351997375,-0.21314737200737
1700516166212259300,11.10125927734375,-0.13863033056259155,-0.18464167416095734,-0.27765417098999023
1700516166222269200,11.111269287109375,-0.21396076679229736,-0.5318143367767334,-0.6487355828285217
1700516166232279300,11.121279296875,-0.17061489820480347,-0.5876803398132324,-0.5877514481544495
1700516166242290200,11.131290283203125,-0.060894258320331573,0.2632436156272888,-0.4025864005088806
1700516166252300300,11.14130029296875,-0.1603078693151474,0.23511840403079987,0.25228387117385864
1700516166262310100,11.15131005859375,0.07444339990615845,-0.33029890060424805,0.6485853791236877
1700516166272320300,11.1613203125,0.07101612538099289,0.25135302543640137,0.4507199227809906
1700516166282330400,11.171330322265625,-0.0654759332537651,0.7040960192680359,0.6032495498657227
1700516166292340200,11.18134033203125,0.0763743445277214,0.18927274644374847,0.8420010805130005
1700516166302351400,11.191351318359375,0.038589682430028915,-0.09824639558792114,0.045286115258932114
1700516166312361500,11.201361572265625,-0.15288463234901428,0.857811450958252,0.1851075440645218
1700516166322371600,11.21137158203125,-0.06365383416414261,-0.11509988456964493,0.3214070498943329
1700516166332381400,11.22138134765625,-0.08022236078977585,-0.42132076621055603,0.0019887257367372513
1700516166342391300,11.231391357421876,-0.26100465655326843,0.32038795948028564,-0.30927541851997375
1700516166352401200,11.241401123046876,-0.21018335223197937,-0.6855666637420654,-0.08777947723865509
1700516166362412500,11.25141259765625,-0.10966712236404419,-0.07142653316259384,-0.10022442787885666
1700516166372422400,11.26142236328125,-0.2719295620918274,-0.412333220243454,-0.3436131775379181
1700516166382432500,11.2714326171875,-0.197053462266922,0.04889991134405136,-0.13479843735694885
1700516166392442400,11.2814423828125,-0.19935880601406097,-0.07497195154428482,0.020908406004309654
1700516166402452500,11.291452392578124,-0.07909949868917465,-0.6993615031242371,-0.00033376505598425865
1700516166412462600,11.301462646484374,-0.1508421152830124,0.30756866931915283,-0.2709296643733978
1700516166422473500,11.311473388671875,-0.1636471301317215,-0.3016832172870636,0.053136296570301056
1700516166432483300,11.3214833984375,0.0287640243768692,-0.034967098385095596,0.18101151287555695
1700516166442493400,11.331493408203125,-0.049510274082422256,0.14630042016506195,-0.05932999402284622
1700516166452503600,11.341503662109375,-0.11726468801498413,0.1211804747581482,0.12475309520959854
1700516166462513400,11.351513427734375,-0.10306018590927124,0.33000025153160095,0.07530378550291061
1700516166472523500,11.3615234375,0.09561050683259964,-0.22576908767223358,-0.1628139317035675
1700516166482534400,11.371534423828125,-0.17353254556655884,0.5364387631416321,-0.11352813988924026
1700516166492544500,11.38154443359375,-0.11132939159870148,-0.47067466378211975,-0.061012253165245056
1700516166502554400,11.391554443359375,0.03456522524356842,-0.029173431918025017,-0.09364503622055054
1700516166512564500,11.401564453125,-0.09679470956325531,0.16437354683876038,-0.3245200514793396
1700516166522574300,11.41157421875,-0.11784087866544724,0.0009723640978336334,0.2822524309158325
1700516166532584400,11.42158447265625,-0.20790040493011475,0.1921248733997345,0.3173198103904724
1700516166542595300,11.43159521484375,-0.014444396831095219,-0.2805015444755554,-0.18769142031669617
1700516166552605400,11.44160546875,-0.1685144007205963,0.15566310286521912,0.011949338018894196
1700516166562615300,11.451615234375,-0.16198432445526123,-0.24550855159759521,0.03069586120545864
1700516166572625400,11.46162548828125,-0.0675525963306427,-0.48008993268013,0.02865912951529026
1700516166582635500,11.471635498046876,-0.13366371393203735,0.3792532980442047,-0.31257009506225586
1700516166592646400,11.481646484375,-0.11945391446352005,-0.2613903284072876,0.24977415800094604
1700516166602656300,11.49165625,-0.041928499937057495,0.3395700752735138,0.37896570563316345
1700516166612666400,11.501666259765624,0.07403743267059326,-0.011530504561960697,-0.07411285489797592
1700516166622676500,11.511676513671874,-0.06196834146976471,0.3229342997074127,0.04293706268072128
1700516166632686300,11.521686279296874,-0.12658478319644928,0.15134069323539734,-0.14005093276500702
1700516166642696400,11.531696533203124,0.09081970900297165,-0.4296087324619293,-0.2023097723722458
1700516166652707300,11.541707275390625,-0.10341767221689224,0.40377238392829895,-0.23547039926052094
1700516166662717400,11.551717529296875,-0.08794417977333069,-0.5217591524124146,0.06299352645874023
1700516166672727300,11.561727294921875,0.009177589789032936,0.19819998741149902,0.03947772458195686
1700516166682737400,11.5717373046875,-0.0925234705209732,0.015079153701663017,-0.14902321994304657
1700516166692747300,11.581747314453125,-0.17776061594486237,-0.07330477982759476,0.2959519028663635
1700516166702757400,11.59175732421875,-0.1341010183095932,0.27669557929039,0.3828338086605072
1700516166712768300,11.601768310546875,-0.0038464106619358063,-0.5175204873085022,0.029731033369898796
1700516166722778400,11.6117783203125,-0.10344304144382477,0.18069961667060852,-0.1727277934551239
1700516166732788200,11.621788330078125,-0.09966237843036652,-0.15596899390220642,-0.17055007815361023
1700516166742798300,11.63179833984375,-0.02188316360116005,-0.34792324900627136,0.20119524002075195
1700516166752808400,11.641808349609375,-0.05056643486022949,0.3710481822490692,-0.21700327098369598
1700516166762819300,11.6518193359375,-0.11689964681863785,-0.3495342433452606,0.21189455687999725
1700516166772829200,11.6618291015625,-0.06189419701695442,0.5522231459617615,0.16002576053142548
1700516166782839300,11.67183935546875,-0.014123212546110153,-0.343043714761734,-0.12555165588855743
1700516166792849400,11.681849365234376,-0.12966430187225342,0.37844550609588623,0.05055876821279526
1700516166802859300,11.691859375,-0.020464040338993073,0.10815781354904175,-0.01104867272078991
1700516166812869400,11.701869384765626,0.018436651676893234,-0.4051201343536377,0.14334256947040558
1700516166822880300,11.71188037109375,-0.10784219205379486,0.5028601288795471,-0.19734416902065277
1700516166832890400,11.721890380859374,-0.12302693724632263,-0.499104380607605,0.18521186709403992
1700516166842900200,11.731900146484374,-0.10913322865962982,0.21217693388462067,0.3773874342441559
1700516166852910300,11.741910400390625,-0.0076043568551540375,0.08090294897556305,-0.07972700893878937
1700516166862920200,11.751920166015625,-0.09774703532457352,-0.07875275611877441,0.3523639440536499
1700516166872931600,11.761931640625,-0.028059210628271103,0.3033062815666199,0.09444081038236618
1700516166882941400,11.77194140625,-0.006181076169013977,-0.48654788732528687,-0.07634877413511276
1700516166892951800,11.781951904296875,-0.06012151017785072,0.22827550768852234,-0.20822416245937347
1700516166902961700,11.791961669921875,-0.05421142280101776,-0.34648552536964417,-0.10199306905269623
1700516166912971800,11.8019716796875,0.07928410172462463,-0.14424918591976166,0.035330139100551605
1700516166922982700,11.811982666015625,-0.023376762866973877,-0.14563056826591492,-0.3013205826282501
1700516166932992800,11.82199267578125,-0.09665635973215103,-0.03151920437812805,-0.11496047675609589
1700516166943002600,11.832002685546875,-0.08392059057950974,0.32421520352363586,-0.24487800896167755
1700516166953012700,11.8420126953125,-0.0029019122011959553,-0.3049960136413574,-0.14798204600811005
1700516166963022600,11.852022705078125,-0.11214850842952728,0.4601360261440277,-0.05406752973794937
1700516166973032700,11.86203271484375,-0.11688786745071411,-0.04079447314143181,0.0019390154629945755
1700516166983043600,11.872043701171876,-0.08519864827394485,0.08852782845497131,0.2544860541820526
1700516166993053700,11.8820537109375,-0.11096759140491486,0.266182541847229,0.24692946672439575
1700516167003063600,11.8920634765625,-0.20198245346546173,-0.2787971496582031,0.6419905424118042
1700516167013073700,11.90207373046875,-0.1277744323015213,0.1911676675081253,0.5893450379371643
1700516167023083800,11.912083740234374,-0.060898736119270325,-0.3420941233634949,-0.18076202273368835
1700516167033094700,11.9220947265625,-0.15686637163162231,-0.03007255680859089,0.04174649342894554
1700516167043104800,11.932104736328125,-0.03424272686243057,0.3501959443092346,0.08230484277009964
1700516167053114600,11.942114501953125,0.06507635861635208,-0.5112995505332947,0.07755831629037857
1700516167063124700,11.952124755859375,-0.013563064858317375,0.4792637825012207,-0.09050845354795456
1700516167073134600,11.962134521484375,0.00909399427473545,-0.06734374910593033,-0.0803641676902771
1700516167083145700,11.972145751953125,0.13531558215618134,0.4092491865158081,0.020984826609492302
1700516167093155600,11.982155517578125,-0.08421775698661804,0.3832389712333679,-0.31794872879981995
1700516167103165700,11.992165771484375,-0.18828050792217255,0.05128658190369606,0.10794850438833237
1700516167113175600,12.002175537109375,-0.1368011236190796,0.4218893051147461,0.1760397106409073
1700516167123185700,12.012185546875,-0.08304201811552048,-0.5564021468162537,-0.2830493152141571
1700516167133196500,12.022196533203125,-0.1795801818370819,0.08190198242664337,-0.26843923330307007
1700516167143206700,12.03220654296875,-0.12822778522968292,-0.3179916441440582,-0.23983024060726166
1700516167153216500,12.042216552734375,-0.034672532230615616,-0.3755318820476532,0.04400840774178505
1700516167163226600,12.0522265625,0.027753230184316635,0.16062892973423004,-0.21312516927719116
1700516167173236700,12.06223681640625,-0.060057416558265686,-0.2507721185684204,0.28467899560928345
1700516167183247600,12.07224755859375,0.12667572498321533,0.4623206853866577,0.22474509477615356
1700516167193257500,12.082257568359376,0.157687246799469,0.40094369649887085,-0.08073224872350693
1700516167203267600,12.092267578125,0.08531904220581055,0.2643943727016449,0.3187576234340668
1700516167213277700,12.102277587890624,0.10301169753074646,0.6135344505310059,0.2283279448747635
1700516167223287600,12.11228759765625,0.08470166474580765,-0.3856731355190277,-0.054341308772563934
1700516167233297700,12.122297607421874,-0.0697254091501236,0.448053240776062,-0.1293839067220688
1700516167243308500,12.13230859375,0.0003721883986145258,-0.25407397747039795,-0.2264191061258316
1700516167253318700,12.142318603515625,0.02698562480509281,-0.3185185194015503,-0.0516921728849411
1700516167263328500,12.15232861328125,-0.03153521195054054,0.1336044818162918,-0.3304479122161865
