time,seconds_elapsed,z,y,x
1700516155126458000,0.0154580078125,0.012203402817249298,0.0002002697146963328,-0.13709020614624023
1700516155136468200,0.02546826171875,-0.04531102254986763,0.008553806692361832,-0.08347491919994354
1700516155146477300,0.035477294921875,0.0218333937227726,-0.0650532990694046,0.09795399010181427
1700516155156486400,0.045486328125,0.009698700159788132,0.009881659410893917,-0.06579659134149551
1700516155166495200,0.0554951171875,0.0142329977825284,-0.017767544835805893,0.0334668792784214
1700516155176505300,0.06550537109375,-0.010608435608446598,-0.011904862709343433,-0.06095416471362114
1700516155186514200,0.07551416015625,-0.011967180296778679,0.03395823389291763,-0.07787802070379257
1700516155196523300,0.085523193359375,0.011876100674271584,-0.008488825522363186,0.04663248360157013
1700516155206533000,0.095533203125,-0.0004878911131527275,0.020317789167165756,0.048471927642822266
1700516155216542200,0.105542236328125,0.009958891198039055,-0.014620221219956875,-0.1045897901058197
1700516155226551300,0.11555126953125,-0.0445094108581543,0.004024568945169449,-0.058578625321388245
1700516155236561400,0.1255615234375,0.01576405018568039,-0.10397540032863617,0.13111060857772827
1700516155246570200,0.1355703125,0.003043194068595767,-0.026323216035962105,-0.029203426092863083
1700516155256579000,0.1455791015625,0.00857378076761961,-0.042379945516586304,0.06070063263177872
1700516155266589200,0.155589111328125,-0.010526410304009914,-0.07576800137758255,-0.039496809244155884
1700516155276598300,0.165598388671875,-0.032765403389930725,-0.0070254188030958176,-0.04339833930134773
1700516155286607400,0.175607421875,-0.001151018193922937,-0.08275080472230911,0.10340521484613419
1700516155296617200,0.1856171875,-0.009212406352162361,0.019449597224593163,0.03274622932076454
1700516155306626300,0.195626220703125,0.009899502620100975,-0.07616906613111496,-0.17510762810707092
1700516155316635100,0.20563525390625,-0.017198162153363228,0.07750384509563446,-0.07295010983943939
1700516155326644200,0.215644287109375,0.0021382521372288465,-0.08782519400119781,0.14584854245185852
1700516155336654000,0.225654052734375,0.005403553601354361,-0.011598332785069942,-0.0690712109208107
1700516155346663200,0.2356630859375,0.01937662810087204,-0.02599937655031681,0.04897233471274376
1700516155356672300,0.24567236328125,0.006779875606298447,-0.06911222636699677,-0.004231230355799198
1700516155366682400,0.255682373046875,-0.012055064551532269,0.04754887521266937,-0.017553959041833878
1700516155376691500,0.26569140625,0.008643555454909801,-0.04418610408902168,0.09793961048126221
1700516155386700000,0.275699951171875,0.028170650824904442,0.06530842930078506,0.05528455972671509
1700516155396710100,0.285710205078125,0.01429531630128622,0.028117921203374863,-0.143773153424263
1700516155406719200,0.29571923828125,-0.006712497677654028,0.07149522006511688,-0.015507853589951992
1700516155416728300,0.305728271484375,0.011154649779200554,-0.04136102274060249,0.06589432805776596
1700516155426738200,0.31573828125,-0.000966993800830096,0.04038497433066368,-0.083253875374794
1700516155436747300,0.325747314453125,0.01230247225612402,-0.06399576365947723,0.029509423300623894
1700516155446756400,0.33575634765625,0.017299095168709755,0.03684110566973686,-0.09588977694511414
1700516155456766200,0.34576611328125,-0.0003046656202059239,0.036310601979494095,-0.06450203061103821
1700516155466775300,0.355775390625,0.03941185399889946,0.046968307346105576,0.04807964339852333
1700516155476784000,0.3657841796875,0.01919340156018734,0.036681849509477615,0.0054552191868424416
1700516155486794200,0.375794189453125,0.01005050353705883,0.021818745881319046,-0.1817956268787384
1700516155496803300,0.38580322265625,-0.013825002126395702,0.03911890834569931,0.023067502304911613
1700516155506812400,0.3958125,0.02851446531713009,-0.01672172173857689,0.1239272728562355
1700516155516821200,0.4058212890625,-0.014313957653939724,0.08532608300447464,-0.042097121477127075
1700516155526831000,0.4158310546875,0.005619003437459469,-0.061459366232156754,0.0890880674123764
1700516155536840200,0.425840087890625,-0.010551177896559238,0.0169166661798954,-0.08722198754549026
1700516155546849300,0.435849365234375,0.004834436345845461,-0.011214571073651314,0.05169754847884178
1700516155556859100,0.445859130859375,0.023452062159776688,0.016712401062250137,0.07607638835906982
1700516155566868200,0.4558681640625,-0.002834135899320245,-0.03184155374765396,0.02076386846601963
1700516155576877300,0.465877197265625,-0.01654542051255703,-0.03021116554737091,-0.15018950402736664
1700516155586887400,0.475887451171875,0.005233910400420427,0.0057471017353236675,0.07357195764780045
1700516155596896300,0.485896240234375,0.006624347064644098,-0.06313156336545944,0.08235026895999908
1700516155606905300,0.4959052734375,-0.008875517174601555,0.08676418662071228,-0.06817053258419037
1700516155616915200,0.505915283203125,-0.006995591334998608,-0.07710490375757217,0.06706584990024567
1700516155626924300,0.51592431640625,-0.008533300831913948,0.00968671590089798,-0.11791225522756577
1700516155636933400,0.525933349609375,0.0013206616276875138,-0.0359012745320797,0.009012402966618538
1700516155646943200,0.535943115234375,0.022231535986065865,0.017433585599064827,0.023510918021202087
1700516155656952000,0.5459521484375,-0.0007238471880555153,-0.03418220579624176,-0.04884929955005646
1700516155666961200,0.555961181640625,-0.023907730355858803,-0.009703760035336018,-0.21038386225700378
1700516155676971300,0.56597119140625,0.008326373063027859,-0.02111593820154667,0.0442497543990612
1700516155686980400,0.57598046875,0.0041100564412772655,-0.02251223288476467,0.04869376868009567
1700516155696989200,0.5859892578125,0.01332938764244318,0.10385609418153763,-0.05994988605380058
1700516155706998300,0.595998291015625,-0.002365419641137123,-0.047927312552928925,0.020246949046850204
1700516155717008400,0.60600830078125,-0.014182131737470627,0.025104021653532982,-0.12710894644260406
1700516155727017200,0.616017333984375,0.012503274716436863,-0.009050752967596054,0.03518887981772423
1700516155737026300,0.6260263671875,0.02526700682938099,0.029228990897536278,0.05391409620642662
1700516155747036200,0.6360361328125,0.01691213808953762,0.014569887891411781,-0.042576223611831665
1700516155757045200,0.646045166015625,-0.030005568638443947,0.00884835235774517,-0.18266035616397858
1700516155767054300,0.656054443359375,0.03213050588965416,-0.004538026638329029,0.0912630707025528
1700516155777064400,0.666064453125,-0.005344165489077568,-0.01943282037973404,0.02002643793821335
1700516155787073000,0.676072998046875,0.02479802444577217,0.11951068788766861,-0.046969372779130936
1700516155797082000,0.68608203125,-0.023196665570139885,-0.09914416074752808,0.04565776512026787
1700516155807092200,0.69609228515625,-0.014113422483205795,0.044858284294605255,-0.11607813835144043
1700516155817101300,0.706101318359375,0.002897519152611494,-0.038455780595541,0.06878838688135147
1700516155827110400,0.7161103515625,0.01576751098036766,0.014252971857786179,0.061105698347091675
1700516155837120300,0.726120361328125,-0.003418699838221073,-0.025740517303347588,-0.06743576377630234
1700516155847129300,0.73612939453125,-0.03626106679439545,0.017669541761279106,-0.16898475587368011
1700516155857138200,0.74613818359375,0.018327875062823296,-0.02600283920764923,0.12944267690181732
1700516155867148300,0.756148193359375,0.014475878328084946,-0.004319380968809128,0.020070914179086685
1700516155877157000,0.7661572265625,0.02646676078438759,0.05801989510655403,-0.02034495212137699
1700516155887166200,0.776166259765625,-0.0145887965336442,-0.05385231226682663,-0.023661918938159943
1700516155897176300,0.78617626953125,-0.006862965878099203,0.03404824808239937,-0.07222439348697662
1700516155907185400,0.796185302734375,0.0070467242039740086,-0.0184040404856205,0.07026883959770203
1700516155917194200,0.8061943359375,0.008305334486067295,0.017822140827775,0.052138302475214005
1700516155927204400,0.816204345703125,0.002526541007682681,-0.02383449301123619,-0.08627843111753464
1700516155937213400,0.82621337890625,-0.04602954164147377,0.03602670878171921,-0.14431244134902954
1700516155947222500,0.836222412109375,0.02961301989853382,-0.03744005039334297,0.15068218111991882
1700516155957232400,0.846232421875,0.0169675312936306,0.014815697446465492,0.011245996691286564
1700516155967241200,0.8562412109375,0.026016952469944954,0.0573573000729084,0.003397394670173526
1700516155977250300,0.866250244140625,-0.009523198008537292,-0.04296823963522911,-0.016938770189881325
1700516155987259400,0.87625927734375,-0.012146944180130959,0.04634938761591911,-0.05062749236822128
1700516155997269500,0.88626953125,0.01044331956654787,-0.014031130820512772,0.08460010588169098
1700516156007278300,0.8962783203125,0.004680771846324205,0.02768702059984207,0.04730572924017906
1700516156017287200,0.906287109375,0.00902545265853405,-0.0315115861594677,-0.0785568580031395
1700516156027297300,0.91629736328125,-0.04701411351561546,0.03214488551020622,-0.10288084298372269
1700516156037306400,0.926306396484375,0.027599669992923737,-0.04685672000050545,0.15831081569194794
1700516156047315500,0.9363154296875,0.014244982041418552,0.016272978857159615,-0.022482139989733696
1700516156057325300,0.9463251953125,0.02647874504327774,0.04494856670498848,0.02334393747150898
1700516156067334400,0.95633447265625,-0.001570998691022396,-0.05167225003242493,-0.00041758365114219487
1700516156077343500,0.966343505859375,-0.005116198677569628,0.05025677755475044,-0.043169040232896805
1700516156087353300,0.976353271484375,0.011714712716639042,0.005653358530253172,0.07279884070158005
1700516156097362200,0.986362060546875,0.005373193882405758,0.03205114230513573,0.050144392997026443
1700516156107371300,0.996371337890625,0.019416574388742447,-0.02093910425901413,-0.0847734734416008
1700516156117381400,1.00638134765625,-0.04209765046834946,0.03557663783431053,-0.09599843621253967
1700516156127390500,1.016390380859375,0.029517145827412605,-0.04157061129808426,0.14552976191043854
1700516156137399600,1.026399658203125,0.01913747563958168,0.016714265570044518,-0.03038267232477665
1700516156147409400,1.036409423828125,0.028671592473983765,0.029381589964032173,0.026688335463404655
1700516156157418200,1.046418212890625,-0.005240035708993673,-0.04536455124616623,-0.018698852509260178
1700516156167427300,1.05642724609375,-0.009641442447900772,0.03991252928972244,-0.050096724182367325
1700516156177437200,1.066437255859375,0.012883574701845646,-0.013995977118611336,0.07880134135484695
1700516156187446300,1.0764462890625,0.00000958738019107841,0.019399797543883324,0.03281547129154205
1700516156197455400,1.086455322265625,0.011218033730983734,-0.02911660633981228,-0.10319536179304123
1700516156207465500,1.096465576171875,-0.044327784329652786,0.020368387922644615,-0.08477054536342621
1700516156217474600,1.106474609375,0.027820711955428123,-0.05438041687011719,0.1516299992799759
1700516156227483400,1.1164833984375,0.014140053652226925,0.012152004055678844,-0.04668334871530533
1700516156237493200,1.1264931640625,0.016499880701303482,0.015152321197092533,0.03852662071585655
1700516156247502300,1.13650244140625,-0.002686064224690199,-0.04909590631723404,-0.02075747586786747
1700516156257511400,1.146511474609375,-0.012153868563473225,0.02263367362320423,-0.04545057192444801
1700516156267521300,1.156521240234375,0.01133787538856268,-0.006946855690330267,0.0756063461303711
1700516156277530400,1.1665302734375,-0.005323392804712057,0.006548979319632053,0.03725922107696533
1700516156287539500,1.17653955078125,0.013379720970988274,-0.032041557133197784,-0.11584058403968811
1700516156297549600,1.186549560546875,-0.04085955023765564,0.011811385862529278,-0.06717317551374435
1700516156307558400,1.196558349609375,0.02653121016919613,-0.04928738996386528,0.1458546668291092
1700516156317567200,1.206567138671875,0.02112685702741146,0.016462596133351326,-0.05612372234463692
1700516156327577300,1.216577392578125,0.018790464848279953,-0.018262093886733055,0.04729321226477623
1700516156337586400,1.22658642578125,-0.010416688397526741,-0.018625082448124886,-0.03669889271259308
1700516156347595500,1.236595458984375,-0.010361826978623867,0.03229722008109093,-0.023571105673909187
1700516156357605400,1.24660546875,0.013895043171942234,0.007808121852576733,0.06512094289064407
1700516156367614200,1.2566142578125,-0.0005717806634493172,0.024270718917250633,0.029500633478164673
1700516156377623300,1.266623291015625,0.013047625310719013,-0.035777702927589417,-0.11746297776699066
1700516156387633400,1.27663330078125,-0.03277792036533356,0.023135678842663765,-0.059965599328279495
1700516156397642500,1.286642578125,0.02467605099081993,-0.0354251004755497,0.14716973900794983
1700516156407651300,1.2966513671875,0.01847647875547409,0.02310025878250599,-0.06274114549160004
1700516156417661400,1.306661376953125,0.018671156838536263,-0.02124723233282566,0.04513898119330406
1700516156427670500,1.31667041015625,-0.007036071736365557,-0.017232783138751984,-0.03609515354037285
1700516156437680400,1.326680419921875,-0.014153636060655117,0.027248932048678398,-0.012770390138030052
1700516156447689200,1.336689208984375,0.017766213044524193,0.011055580340325832,0.06324288249015808
1700516156457698300,1.3466982421875,-0.0014197311829775572,0.024572188034653664,0.02333781309425831
1700516156467708400,1.35670849609375,0.014684404246509075,-0.03068654052913189,-0.12369105219841003
1700516156477717500,1.366717529296875,-0.028065189719200134,0.019037872552871704,-0.048276983201503754
1700516156487726300,1.376726318359375,0.020441891625523567,-0.044913679361343384,0.13677169382572174
1700516156497736400,1.386736328125,0.02101234160363674,0.020620856434106827,-0.07244303822517395
1700516156507745300,1.396745361328125,0.016820525750517845,-0.035404596477746964,0.04625804349780083
1700516156517754400,1.40675439453125,-0.012145878747105598,-0.015217036008834839,-0.04030827432870865
1700516156527764200,1.41676416015625,-0.003915912006050348,0.026206303387880325,-0.020050140097737312
1700516156537773300,1.426773193359375,0.014681474305689335,-0.0012873720843344927,0.04746445268392563
1700516156547782400,1.436782470703125,-0.005034972447901964,0.019359050318598747,0.016468722373247147
1700516156557792500,1.44679248046875,0.011867844499647617,-0.04722663387656212,-0.1185106709599495
1700516156567801600,1.456801513671875,-0.02846013754606247,0.018308432772755623,-0.06095682829618454
1700516156577810200,1.46681005859375,0.01901976391673088,-0.04980617016553879,0.1335950791835785
1700516156587820300,1.4768203125,0.02377750165760517,0.02063070982694626,-0.0670543983578682
1700516156597829400,1.486829345703125,0.016106797382235527,-0.008217450231313705,0.05058834329247475
1700516156607838500,1.49683837890625,0.000740625080652535,-0.016260461881756783,-0.03455158695578575
1700516156617848300,1.506848388671875,-0.009101619012653828,0.025316808372735977,-0.037334855645895004
1700516156627857400,1.516857421875,0.020127106457948685,0.008984173648059368,0.0697798803448677
1700516156637866200,1.5268662109375,-0.005655222572386265,0.027396736666560173,0.024510668590664864
1700516156647876400,1.53687646484375,0.012534966692328453,-0.029265742748975754,-0.11216914653778076
1700516156657885400,1.546885498046875,-0.032459139823913574,0.02804335206747055,-0.051961466670036316
1700516156667895300,1.556895263671875,0.017915617674589157,-0.037876009941101074,0.14492736756801605
1700516156677904400,1.566904296875,0.02665291540324688,0.023618509992957115,-0.053401440382003784
1700516156687913500,1.57691357421875,0.022897325456142426,-0.014801050536334515,0.05488535389304161
1700516156697923300,1.58692333984375,-0.00762835843488574,-0.024759408086538315,-0.02875814400613308
1700516156707932400,1.596932373046875,-0.008422779850661755,0.02075241692364216,-0.027941619977355003
1700516156717941200,1.606941162109375,0.013065468519926071,-0.010113353841006756,0.06616224348545074
1700516156727951400,1.616951416015625,-0.005298625212162733,0.026463564485311508,0.02768142893910408
1700516156737960400,1.62696044921875,0.014845258556306362,-0.027791684493422508,-0.10622097551822662
1700516156747969300,1.63696923828125,-0.0336327962577343,0.02124829776585102,-0.06389296054840088
1700516156757979400,1.6469794921875,0.021218469366431236,-0.0339430533349514,0.14015232026576996
1700516156767988500,1.656988525390625,0.02491653524339199,0.022184930741786957,-0.062490809708833694
1700516156777997300,1.666997314453125,0.014172278344631195,0.0009195895399898291,0.04600930213928223
1700516156788007200,1.677007080078125,-0.006441654171794653,-0.025907497853040695,-0.022278673946857452
1700516156798016300,1.687016357421875,-0.01465617399662733,0.0386190302670002,-0.04308222234249115
1700516156808025300,1.697025390625,0.01913055032491684,0.0018122810870409012,0.07111705094575882
1700516156818035500,1.707035400390625,-0.006281065288931131,0.030880151316523552,0.02323128655552864
1700516156828044300,1.717044189453125,0.01648150570690632,-0.02533385157585144,-0.10928308218717575
1700516156838054400,1.727054443359375,-0.030959779396653175,0.025559954345226288,-0.06199412792921066
1700516156848063500,1.7370634765625,0.025305356830358505,-0.046605050563812256,0.14271587133407593
1700516156858072300,1.747072265625,0.02924576960504055,0.01775130070745945,-0.06005241721868515
1700516156868082200,1.757082275390625,0.014305968768894672,-0.007941014133393764,0.0591067299246788
1700516156878091300,1.76709130859375,-0.0019531622529029846,-0.031751006841659546,-0.03434598818421364
1700516156888101400,1.777101318359375,-0.011421232484281063,0.023069100454449654,-0.04614166170358658
1700516156898111200,1.787111328125,0.014539794065058231,0.003909520339220762,0.08163520693778992
1700516156908120000,1.7971201171875,-0.005035238806158304,0.017918545752763748,0.02948305755853653
1700516156918129200,1.807129150390625,0.016146479174494743,-0.030662305653095245,-0.1380356401205063
1700516156928139300,1.81713916015625,-0.03568928688764572,0.00965795386582613,-0.058458514511585236
1700516156938148400,1.8271484375,0.022714899852871895,-0.06557554751634598,0.14987045526504517
1700516156948158200,1.837158203125,0.006462692748755217,0.0318324975669384,-0.06222635507583618
1700516156958167300,1.847167236328125,0.005876265000551939,-0.055445946753025055,0.05187917500734329
1700516156968176000,1.857176025390625,-0.0070919981226325035,-0.026796460151672363,-0.06827572733163834
1700516156978186200,1.867186279296875,-0.01721440628170967,-0.0013949638232588768,-0.01757340133190155
1700516156988195000,1.877195068359375,0.017478859052062035,0.00037950044497847557,0.0719950944185257
1700516156998204200,1.8872041015625,-0.005859220866113901,-0.015960324555635452,0.003177683800458908
1700516157008214300,1.89721435546875,0.0016578177455812693,-0.035290878266096115,-0.17690978944301605
1700516157018223400,1.907223388671875,-0.02050953544676304,0.0004689826746471226,-0.02508644387125969
1700516157028233200,1.917233154296875,0.017607223242521286,-0.08025755733251572,0.13470828533172607
1700516157038242300,1.9272421875,-0.011863583698868752,0.07321029901504517,-0.07414400577545166
1700516157048251100,1.937251220703125,0.002674612682312727,-0.08595965057611465,0.059854812920093536
1700516157058261200,1.94726123046875,-0.01401648297905922,0.01834678277373314,-0.09439041465520859
1700516157068270000,1.95727001953125,-0.012102735228836536,-0.019401393830776215,0.030343258753418922
1700516157078279200,1.967279052734375,0.027288611978292465,0.02045760490000248,0.06673748791217804
1700516157088289300,1.977289306640625,-0.007240602280944586,-0.007995075546205044,-0.002517752582207322
1700516157098298400,1.98729833984375,-0.01362526509910822,-0.016577377915382385,-0.1861291229724884
1700516157108308200,1.99730810546875,-0.0020852552261203527,-0.008261391893029213,0.05284883454442024
1700516157118317000,2.007317138671875,0.0035350800026208162,-0.03313877806067467,0.11386824399232864
1700516157128326100,2.017326171875,-0.0001901497016660869,0.12239595502614975,-0.06369775533676147
1700516157138336300,2.027336181640625,-0.012195945717394352,-0.05145014077425003,0.031431958079338074
1700516157148345300,2.037345458984375,-0.011098191142082214,0.019694609567523003,-0.09035705775022507
1700516157158354200,2.047354248046875,0.001976331928744912,-0.02425766922533512,0.05975334346294403
1700516157168364300,2.0573642578125,0.022371351718902588,0.033300165086984634,0.057298444211483
1700516157178373400,2.067373291015625,-0.010808438993990421,-0.00039468047907575965,-0.024168984964489937
1700516157188383200,2.07738330078125,-0.023979103192687035,0.014147510752081871,-0.18546174466609955
1700516157198392000,2.08739208984375,0.011888884007930756,-0.023744210600852966,0.11532872170209885
1700516157208401200,2.097401123046875,0.005132710561156273,0.011196195147931576,0.07493948936462402
1700516157218411300,2.107411376953125,0.027299797162413597,0.12048939615488052,-0.045404497534036636
1700516157228420400,2.11742041015625,-0.015848470851778984,-0.047864459455013275,-0.008300540037453175
1700516157238430200,2.12743017578125,-0.004786765668541193,0.04270591959357262,-0.059179168194532394
1700516157248439300,2.137439208984375,0.012632171623408794,-0.010409231297671795,0.08626298606395721
1700516157258448400,2.147448486328125,0.014085192233324051,0.034206707030534744,0.04374934360384941
1700516157268458200,2.157458251953125,0.0008247809601016343,-0.010208961553871632,-0.0709087923169136
1700516157278467000,2.167467041015625,-0.03217577934265137,0.028913939371705055,-0.14561152458190918
1700516157288477200,2.177477294921875,0.02412131428718567,-0.034389663487672806,0.1562119722366333
1700516157298486300,2.187486328125,0.02105708234012127,0.005037635564804077,0.007315969560295343
1700516157308495400,2.197495361328125,0.024504544213414192,0.05812721699476242,-0.012358931824564934
1700516157318505200,2.207505126953125,-0.009869408793747425,-0.047326236963272095,-0.016951819881796837
1700516157328514300,2.217514404296875,-0.007564176339656115,0.047873783856630325,-0.032885510474443436
1700516157338524400,2.2275244140625,0.009841445833444595,-0.002115348819643259,0.07474907487630844
1700516157348533200,2.237533203125,0.005598763469606638,0.026708044111728668,0.04008163884282112
1700516157358542000,2.2475419921875,0.015935290604829788,-0.028975725173950195,-0.09449002146720886
1700516157368552200,2.25755224609375,-0.03520485758781433,0.031092938035726547,-0.10126350075006485
1700516157378561300,2.267561279296875,0.02793016843497753,-0.04213520139455795,0.15437279641628265
1700516157388571100,2.277571044921875,0.023457655683159828,0.00035127095179632306,-0.04421007260680199
1700516157398580200,2.287580322265625,0.009587912820279598,-0.009614011272788048,0.022061092779040337
1700516157408589300,2.29758935546875,-0.004061320796608925,-0.03171585127711296,-0.04496587812900543
1700516157418599200,2.30759912109375,-0.015309181064367294,0.02388456091284752,-0.020657341927289963
1700516157428608300,2.317608154296875,0.0128145981580019,0.009307747706770897,0.07684498280286789
1700516157438618000,2.3276181640625,0.0043864925391972065,0.004483697935938835,0.029830332845449448
1700516157448627200,2.337627197265625,0.011447065509855747,-0.02648220770061016,-0.13851526379585266
1700516157458636300,2.34763623046875,-0.027416709810495377,0.017063405364751816,-0.04763542860746384
1700516157468646400,2.357646484375,0.02870594710111618,-0.06222023069858551,0.14879906177520752
1700516157478655200,2.3676552734375,-0.0013137373607605696,0.04433364048600197,-0.059543222188949585
1700516157488665300,2.377665283203125,0.009526393376290798,-0.06095815822482109,0.04290565475821495
1700516157498674200,2.387674072265625,-0.0075548551976680756,0.0022533005103468895,-0.07185261696577072
1700516157508683300,2.397683349609375,-0.012257997877895832,-0.011425493285059929,0.026037193834781647
1700516157518693000,2.407693115234375,0.022273346781730652,0.025248898193240166,0.05402062460780144
1700516157528702200,2.4177021484375,-0.003462908323854208,-0.006067213602364063,0.011437477543950081
1700516157538712300,2.42771240234375,-0.00006285060226218775,-0.010717359371483326,-0.16689737141132355
1700516157548721400,2.437721435546875,-0.009463543072342873,0.012059592641890049,0.026138925924897194
1700516157558730200,2.447730224609375,0.013285977765917778,-0.03993409872055054,0.12141723930835724
1700516157568740000,2.457739990234375,-0.013097425922751427,0.10648036748170853,-0.05788274109363556
1700516157578749200,2.467749267578125,0.00007430219557136297,-0.05499481037259102,0.04148352891206741
1700516157588759300,2.47775927734375,-0.017250891774892807,0.007252053823322058,-0.07866551727056503
1700516157598768000,2.48776806640625,0.0004809668753296137,-0.02913125418126583,0.057501375675201416
1700516157608778200,2.4977783203125,0.02159051224589348,0.03951678425073624,0.03997031971812248
1700516157618787300,2.507787353515625,-0.01378105953335762,-0.006325806491076946,-0.0033129723742604256
1700516157628796400,2.51779638671875,-0.014984807930886745,-0.00717588746920228,-0.1669655442237854
1700516157638806300,2.52780615234375,0.009610016830265522,-0.012501942925155163,0.08141735941171646
1700516157648815000,2.537815185546875,0.0024378576781600714,-0.009501359425485134,0.08977116644382477
1700516157658825200,2.5478251953125,0.004584631882607937,0.1266775131225586,-0.06033098325133324
1700516157668834300,2.557834228515625,-0.014361894689500332,-0.04409635439515114,0.03597477823495865
1700516157678843100,2.567843017578125,-0.006996390409767628,0.028733909130096436,-0.07843302190303802
1700516157688853200,2.577853271484375,0.007739678490906954,-0.0238195788115263,0.06827998906373978
1700516157698862300,2.5878623046875,0.013648434542119503,0.04164065420627594,0.02720339223742485
1700516157708872200,2.5978720703125,-0.009129848331212997,-0.008269115351140499,-0.018927086144685745
1700516157718881000,2.607881103515625,-0.024941036477684975,0.011088870465755463,-0.1565810889005661
1700516157728891100,2.61789111328125,0.01605912670493126,-0.02491387166082859,0.10776108503341675
1700516157738900200,2.627900146484375,-0.0020501012913882732,0.00947978813201189,0.048948898911476135
1700516157748909300,2.637909423828125,0.020437629893422127,0.11393962055444717,-0.04685352370142937
1700516157758919200,2.647919189453125,-0.014766695909202099,-0.06168999522924423,0.02050900273025036
1700516157768928300,2.65792822265625,-0.005405151750892401,0.0389532595872879,-0.07852756232023239
1700516157778938400,2.6679384765625,0.0099636847153306,-0.025056350976228714,0.06659873574972153
1700516157788947500,2.677947509765625,0.009109875187277794,0.035416048020124435,0.022540196776390076
1700516157798957300,2.687957275390625,-0.0033475933596491814,-0.021763086318969727,-0.03713911399245262
1700516157808966100,2.697966064453125,-0.03707706183195114,0.014975220896303654,-0.14248764514923096
1700516157818976300,2.707976318359375,0.019780362024903297,-0.03397767245769501,0.1273752599954605
1700516157828985000,2.717985107421875,-0.0009289105655625463,0.018686868250370026,0.021929534152150154
1700516157838994200,2.727994140625,0.022040320560336113,0.09319785237312317,-0.028001274913549423
1700516157849004300,2.73800439453125,-0.01350488979369402,-0.03558436036109924,0.0038458709605038166
1700516157859013400,2.748013427734375,-0.005087436642497778,0.0428401418030262,-0.056839581578969955
1700516157869023200,2.758023193359375,0.009997772984206676,-0.017611484974622726,0.06187615171074867
1700516157879032000,2.768031982421875,0.008704009465873241,0.0343656949698925,0.014122743159532547
1700516157889045000,2.778044921875,-0.0036330842413008213,-0.02485421672463417,-0.02629844844341278
1700516157899054000,2.78805419921875,-0.03227538242936134,0.029279058799147606,-0.13278041779994965
1700516157909064000,2.79806396484375,0.019340142607688904,-0.029162945225834846,0.12781281769275665
1700516157919073000,2.808072998046875,-0.003163569141179323,0.019830163568258286,0.013585050590336323
1700516157929081900,2.818081787109375,0.017845043912529945,0.09249291568994522,-0.03401336073875427
1700516157939092000,2.828092041015625,-0.017843712121248245,-0.06446021795272827,0.04297862574458122
1700516157949101000,2.83810107421875,-0.008726646192371845,0.05225308611989021,-0.07081878185272217
1700516157959111000,2.84811083984375,0.009632653556764126,-0.02913258597254753,0.0561588779091835
1700516157969120000,2.8581201171875,0.0059843892231583595,0.03419019281864166,0.00013555490295402706
1700516157979130000,2.868130126953125,0.010566091164946556,-0.028386900201439857,-0.010143714025616646
1700516157989139200,2.87813916015625,-0.03586851805448532,0.015537946484982967,-0.13256363570690155
1700516157999149000,2.888149169921875,0.02184005081653595,-0.032769929617643356,0.10691952705383301
1700516158009158000,2.898157958984375,-0.0022983080707490444,0.009096026420593262,0.015273228287696838
1700516158019168000,2.90816796875,-0.0012772521004080772,0.09719020128250122,-0.032513733953237534
1700516158029176800,2.9181767578125,-0.014110226184129715,-0.05095159634947777,0.05006050318479538
1700516158039187000,2.92818701171875,-0.0047849016264081,0.030769895762205124,-0.08005595207214355
1700516158049196000,2.938196044921875,0.004332696553319693,-0.028023645281791687,0.04806739464402199
1700516158059205000,2.948205078125,0.008474444970488548,0.02371385134756565,0.0014290522085502744
1700516158069215000,2.958215087890625,0.009897105395793915,-0.029398368671536446,0.006651777308434248
1700516158079224000,2.96822412109375,-0.028264660388231277,-0.001014398061670363,-0.1371314823627472
1700516158089234200,2.978234130859375,0.01823359914124012,-0.025065405294299126,0.07532644271850586
1700516158099243000,2.988242919921875,-0.0037766287568956614,-0.02731737494468689,0.03976712003350258
1700516158109252900,2.9982529296875,-0.01239062286913395,0.07866578549146652,-0.04266250878572464
1700516158119262000,3.008261962890625,-0.003978762775659561,-0.06696838140487671,0.09652493894100189
1700516158129272000,3.01827197265625,-0.005849633365869522,0.02516207844018936,-0.090530164539814
1700516158139281200,3.02828125,-0.0022916500456631184,-0.022300777956843376,0.034329477697610855
1700516158149291000,3.038291015625,0.009769540280103683,0.019657591357827187,0.014886803925037384
1700516158159300000,3.048300048828125,0.010927482508122921,-0.011358115822076797,0.008329568430781364
1700516158169310200,3.058310302734375,-0.01998249627649784,-0.014171212911605835,-0.1289827525615692
1700516158179318800,3.06831884765625,0.008193215355277061,-0.010007626377046108,0.0383756197988987
1700516158189329000,3.078328857421875,-0.0008950884221121669,-0.03598569706082344,0.06682084500789642
1700516158199338000,3.088337890625,-0.004355866461992264,0.055394016206264496,-0.056588977575302124
1700516158209347800,3.098347900390625,0.00794234499335289,-0.05463874340057373,0.10800503194332123
1700516158219357000,3.10835693359375,-0.004160390235483646,0.009670737199485302,-0.0745922103524208
1700516158229367000,3.118366943359375,-0.014727546833455563,0.0019915117882192135,-0.006699714343994856
1700516158239376100,3.128376220703125,0.014058827422559261,0.009314938448369503,0.045516617596149445
1700516158249385000,3.138385009765625,0.0011414308100938797,0.004416053649038076,0.008374576456844807
1700516158259394800,3.148394775390625,-0.0013640711549669504,-0.020128171890974045,-0.13485528528690338
1700516158269404000,3.15840380859375,-0.006098638754338026,0.008537561632692814,-0.0014415690675377846
1700516158279414000,3.1684140625,0.006520750001072884,-0.04397118464112282,0.11012516915798187
1700516158289423000,3.178423095703125,0.0075513930059969425,0.04375334084033966,-0.06286364793777466
1700516158299433000,3.188432861328125,0.01654888316988945,-0.049188852310180664,0.07419619709253311
1700516158309442000,3.198442138671875,-0.00875274557620287,-0.008993761613965034,-0.05703159421682358
1700516158319452200,3.2084521484375,-0.014503574930131435,0.017519870772957802,-0.014100372791290283
1700516158329461000,3.2184609375,0.01684049889445305,0.0026221484877169132,0.05475911870598793
1700516158339471000,3.22847119140625,-0.00595429539680481,0.012740296311676502,0.003082609036937356
1700516158349480000,3.23847998046875,0.005560946650803089,-0.02941674366593361,-0.13355007767677307
1700516158359489800,3.24848974609375,-0.020494889467954636,0.010910438373684883,-0.027472637593746185
1700516158369499000,3.258498779296875,0.010762632824480534,-0.04699653759598732,0.12747913599014282
1700516158379509000,3.268509033203125,0.012830844148993492,0.03972477465867996,-0.06772072613239288
1700516158389518000,3.27851806640625,0.011324560269713402,-0.03614948317408562,0.07630009949207306
1700516158399528000,3.28852783203125,0.0001816275907913223,-0.007562312297523022,-0.05253138393163681
1700516158409537000,3.298537109375,-0.015336612239480019,0.009953830391168594,-0.026101907715201378
1700516158419547100,3.308547119140625,0.01563861407339573,0.012969860807061195,0.06719741225242615
1700516158429556000,3.318555908203125,-0.003507116809487343,0.010499779134988785,0.007515174336731434
1700516158439565800,3.32856591796875,0.010310694575309753,-0.03296301141381264,-0.1479223519563675
1700516158449576000,3.338575927734375,-0.02352450042963028,0.010512029752135277,-0.0325494222342968
1700516158459585000,3.3485849609375,0.014518222771584988,-0.056898701936006546,0.13705825805664062
1700516158469595000,3.358594970703125,0.004708468914031982,0.0554366260766983,-0.06291132420301437
1700516158479604000,3.36860400390625,0.011713913641870022,-0.051356397569179535,0.07415518909692764
1700516158489614000,3.378614013671875,-0.005939914379268885,-0.00304638990201056,-0.06634919345378876
1700516158499623200,3.388623046875,-0.015137141570448875,0.004393683280795813,-0.005086903925985098
1700516158509633000,3.398633056640625,0.017766213044524193,0.020623253658413887,0.07607000321149826
1700516158519641900,3.408641845703125,-0.004650145769119263,-0.0073623089119791985,0.008440090343356133
1700516158529652000,3.41865185546875,-0.00040959418402053416,-0.025645708665251732,-0.16373859345912933
1700516158539661000,3.4286611328125,-0.018022676929831505,0.006129265297204256,0.0009270463488064706
1700516158549671000,3.4386708984375,0.011087538674473763,-0.055257927626371384,0.13935069739818573
1700516158559680000,3.448679931640625,-0.014551245607435703,0.10425610095262527,-0.05462782457470894
1700516158569690000,3.458690185546875,0.009246761910617352,-0.06502081453800201,0.07347075641155243
1700516158579699000,3.468698974609375,-0.014237791299819946,0.006337258033454418,-0.09188251942396164
1700516158589709000,3.478708984375,-0.004625644534826279,-0.012231365777552128,0.03346981108188629
1700516158599718100,3.48871826171875,0.021328724920749664,0.01926104538142681,0.06932021677494049
1700516158609728000,3.49872802734375,-0.013683854602277279,-0.014096643775701523,-0.0004492752777878195
1700516158619736800,3.50873681640625,-0.020482106134295464,-0.01775556057691574,-0.17854337394237518
1700516158629747000,3.518746826171875,-0.002092445734888315,0.0011355718597769737,0.06908532977104187
1700516158639756800,3.5287568359375,-0.003133208956569433,-0.0398922897875309,0.09561094641685486
1700516158649766000,3.538765869140625,-0.008771120570600033,0.10974753648042679,-0.0706251710653305
1700516158659776000,3.54877587890625,-0.006566289812326431,-0.05777488276362419,0.07017695903778076
1700516158669785000,3.55878515625,-0.026613235473632812,0.006343116983771324,-0.10839571803808212
1700516158679795000,3.568794921875,-0.00019414443522691727,-0.024462465196847916,0.05935147404670715
1700516158689804000,3.578803955078125,0.028173847123980522,0.030522754415869713,0.057496048510074615
1700516158699814100,3.588814208984375,-0.022912772372364998,-0.07470326870679855,-0.047929443418979645
1700516158709823000,3.598822998046875,-0.029550701379776,0.00011158645065734163,-0.19325867295265198
1700516158719832800,3.608832763671875,0.010244647972285748,-0.02257428504526615,0.13109970092773438
1700516158729842000,3.618842041015625,0.004969724919646978,-0.01937742717564106,-0.005847236607223749
1700516158739852000,3.62885205078125,0.011226821690797806,0.05306481570005417,-0.0322684571146965
1700516158749862000,3.63886181640625,-0.01013838779181242,-0.07137750834226608,0.033909764140844345
1700516158759871000,3.64887109375,-0.015121694654226303,0.01918993890285492,-0.08940710872411728
1700516158769881000,3.658881103515625,-0.0020562265999615192,-0.03765549883246422,0.05070845037698746
1700516158779890200,3.66889013671875,0.011723767966032028,-0.007786017842590809,0.05627019703388214
1700516158789900000,3.678900146484375,-0.003796069882810116,-0.05868621543049812,-0.10159959644079208
1700516158799908900,3.688908935546875,-0.03562111034989357,0.0033009881153702736,-0.14511404931545258
1700516158809919000,3.6989189453125,0.019709521904587746,-0.09419947117567062,0.16764146089553833
1700516158819927800,3.708927734375,0.010439058765769005,-0.0009526127250865102,-0.06817985326051712
1700516158829938000,3.71893798828125,0.005335110705345869,-0.04537893459200859,0.023197731003165245
1700516158839948000,3.728947998046875,-0.013025786727666855,-0.056943442672491074,-0.0374794639647007
1700516158849956900,3.738956787109375,-0.012748552486300468,0.03401975333690643,-0.03761075809597969
1700516158859967000,3.748967041015625,0.006848052144050598,-0.02865108661353588,0.051844820380210876
1700516158869976000,3.75897607421875,0.0065319351851940155,-0.010155964642763138,0.06192861497402191
1700516158879986000,3.76898583984375,-0.007526093162596226,-0.03441150486469269,-0.15837791562080383
1700516158889992200,3.7789921875,-0.01859738677740097,0.0547412745654583,-0.050093259662389755
1700516158900002000,3.789001953125,0.015430888161063194,-0.09675423800945282,0.15931189060211182
1700516158910012000,3.799011962890625,-0.013382384553551674,0.08244907110929489,-0.09299518913030624
1700516158920021000,3.80902099609375,0.006410761270672083,-0.050155580043792725,0.04921841248869896
1700516158930031000,3.819031005859375,-0.014223677106201649,-0.005965214688330889,-0.06667516380548477
1700516158940040200,3.829040283203125,-0.00532578956335783,0.009288040921092033,0.020021378993988037
1700516158950050000,3.839050048828125,0.014727813191711903,0.008464591577649117,0.02604971081018448
1700516158960059100,3.84905908203125,-0.0026788737159222364,-0.014476411044597626,0.04254106804728508
1700516158970069200,3.8590693359375,-0.015048990957438946,-0.04989885166287422,-0.18984264135360718
1700516158980079000,3.8690791015625,-0.004265318624675274,0.04038150981068611,0.022097311913967133
1700516158990088200,3.879088134765625,0.0005571332876570523,-0.07090026885271072,0.08970218896865845
1700516159000098300,3.889098388671875,-0.014642059803009033,0.09284285455942154,-0.08710560947656631
1700516159010107100,3.899107177734375,-0.007920773699879646,-0.06203780323266983,0.03395770117640495
1700516159020117000,3.909116943359375,-0.02828436903655529,0.004314054735004902,-0.13492293655872345
1700516159030127000,3.919127197265625,0.002496180823072791,-0.030531810596585274,0.04255997762084007
1700516159040136200,3.92913623046875,0.0064895907416939735,0.03586878627538681,0.017853032797574997
1700516159050146000,3.93914599609375,-0.018689798191189766,-0.03735163435339928,-0.024750087410211563
1700516159060155100,3.949155029296875,-0.033238645642995834,-0.020371317863464355,-0.22656603157520294
1700516159070165200,3.959165283203125,-0.01834704913198948,0.016207465901970863,0.035347070544958115
1700516159080175000,3.969175048828125,-0.008897088468074799,-0.059065718203783035,0.045222073793411255
1700516159090184200,3.97918408203125,0.007985222153365612,0.10711073875427246,-0.06386446952819824
1700516159100194300,3.9891943359375,-0.031297467648983,-0.10094046592712402,0.016386697068810463
1700516159110203100,3.999203125,-0.014654843136668205,0.03461124002933502,-0.1473284661769867
1700516159120213000,4.009212890625,-0.006209426559507847,-0.03440644219517708,0.015805061906576157
1700516159130223000,4.01922314453125,0.00833622645586729,0.04405853897333145,0.03953222930431366
1700516159140232200,4.029232177734375,-0.02442092075943947,-0.06422319263219833,-0.030971763655543327
1700516159150242000,4.039241943359375,-0.013700898736715317,0.03906217962503433,-0.22992880642414093
1700516159160251100,4.049251220703125,-0.01167183555662632,-0.019161710515618324,0.039627570658922195
1700516159170261200,4.05926123046875,0.008668589405715466,0.012750149704515934,0.049430400133132935
1700516159180271000,4.06927099609375,0.02526780590415001,0.07164835184812546,0.00512951472774148
1700516159190280200,4.0792802734375,-0.027881965041160583,-0.07888176292181015,-0.017376061528921127
1700516159200290300,4.089290283203125,-0.00216488353908062,0.06473265588283539,-0.10531710088253021
1700516159210299100,4.099299072265625,0.006247243378311396,-0.0332769975066185,0.07411204278469086
1700516159220309000,4.10930908203125,0.013851100578904152,0.0472484715282917,0.06476248800754547
1700516159230319000,4.119319091796875,-0.007951666601002216,-0.05216679722070694,-0.051295410841703415
1700516159240328200,4.129328125,-0.0334801971912384,0.06505995988845825,-0.1773121953010559
1700516159250338000,4.139338134765625,0.0269546527415514,-0.02442065440118313,0.17234806716442108
1700516159260348200,4.14934814453125,0.011232680641114712,0.014929414726793766,0.0485539548099041
1700516159270357200,4.159357177734375,0.02761165425181389,0.09063402563333511,-0.016997892409563065
1700516159280367000,4.1693671875,-0.016867130994796753,-0.06132674217224121,0.006198773626238108
1700516159290376200,4.179376220703125,0.001062068622559309,0.06232675909996033,-0.043170373886823654
1700516159300386300,4.18938623046875,0.009781524538993835,-0.03569221869111061,0.08657057583332062
1700516159310396200,4.199396240234375,0.011206582188606262,0.04605138301849365,0.041970085352659225
1700516159320405000,4.209405029296875,0.008162322454154491,-0.026677150279283524,-0.040950894355773926
1700516159330415000,4.2194150390625,-0.034457042813301086,0.04083957523107529,-0.11526773869991302
1700516159340425000,4.229425048828125,0.02424222230911255,-0.022713834419846535,0.1665615439414978
1700516159350434000,4.23943408203125,0.018909242004156113,0.05440039187669754,0.026507774367928505
1700516159360444200,4.249444091796875,0.025604162365198135,0.12353924661874771,0.007251521106809378
1700516159370453000,4.259452880859375,-0.007481351960450411,-0.06812046468257904,0.07048854976892471
1700516159380463000,4.269463134765625,-0.0041004689410328865,0.0885825976729393,-0.07639836519956589
1700516159390473200,4.27947314453125,0.006773750297725201,-0.01884346269071102,0.0727200135588646
1700516159400482300,4.289482421875,0.009858223609626293,0.05043760687112808,0.029738454148173332
1700516159410492200,4.2994921875,0.002555835759267211,-0.03543895110487938,-0.04205743968486786
1700516159420502300,4.309502197265625,-0.041538920253515244,0.04926981031894684,-0.15070295333862305
1700516159430511400,4.319511474609375,0.028267856687307358,-0.018222946673631668,0.14122742414474487
1700516159440521000,4.32952099609375,-0.003172091208398342,0.010832141153514385,-0.026188727468252182
1700516159450531000,4.339531005859375,0.018553975969552994,0.10776161402463913,-0.03344850242137909
1700516159460540200,4.3495400390625,-0.013709420338273048,-0.09137784689664841,0.03970027342438698
1700516159470550000,4.359550048828125,-0.014524880796670914,0.050402186810970306,-0.14134274423122406
1700516159480560000,4.36956005859375,0.012522982433438301,-0.03044419176876545,0.06036533787846565
1700516159490569200,4.3795693359375,0.009877397678792477,0.017771007493138313,0.005556419026106596
1700516159500579000,4.3895791015625,-0.003049053018912673,-0.04843331128358841,-0.08452393859624863
1700516159510589200,4.399589111328125,-0.03971332311630249,0.0383729562163353,-0.1665668785572052
1700516159520598300,4.409598388671875,0.03512682765722275,-0.07788893580436707,0.1773177981376648
1700516159530608000,4.419608154296875,0.004058923572301865,0.04434908926486969,-0.00893890019506216
1700516159540618200,4.4296181640625,0.022895729169249535,0.11392976343631744,0.009578058496117592
1700516159550627300,4.43962744140625,-0.005672533065080643,-0.10276685655117035,0.10849159210920334
1700516159560637200,4.44963720703125,-0.013304353691637516,0.08605099469423294,-0.09733587503433228
1700516159570647000,4.45964697265625,0.007394533138722181,-0.023139674216508865,0.11278566718101501
1700516159580656000,4.46965625,0.013039901852607727,0.04653208330273628,0.08701692521572113
1700516159590666000,4.479666015625,0.008979646489024162,-0.022424615919589996,-0.04117273539304733
1700516159600676000,4.489676025390625,-0.038418494164943695,0.046004775911569595,-0.10523294657468796
1700516159610685200,4.499685302734375,0.03310202807188034,-0.0710534006357193,0.2171245962381363
1700516159620695000,4.509695068359375,0.016570720821619034,0.017107080668210983,-0.018245849758386612
1700516159630705200,4.519705078125,0.010660633444786072,0.06971436738967896,0.0267165657132864
1700516159640714200,4.52971435546875,-0.010163421742618084,-0.10020755976438522,0.057795390486717224
1700516159650724000,4.53972412109375,-0.004226969089359045,0.04616909474134445,-0.09554782509803772
1700516159660734200,4.549734130859375,0.003695935010910034,-0.05096997320652008,0.08402832597494125
1700516159670743300,4.559743408203125,0.006521548610180616,0.004059456288814545,0.05030311644077301
1700516159680753200,4.569753173828125,0.004987834487110376,-0.0336916521191597,-0.15674486756324768
1700516159690763300,4.57976318359375,-0.03479526564478874,-0.020307401195168495,-0.0999995693564415
1700516159700772000,4.589772216796875,0.03331481292843819,-0.0662703663110733,0.14265994727611542
1700516159710782000,4.599781982421875,0.021748438477516174,0.020500481128692627,-0.06637449562549591
1700516159720792000,4.6097919921875,0.023388147354125977,0.0008399609941989183,0.04430408030748367
1700516159730801200,4.61980126953125,0.00005219795639277436,0.01059272326529026,-0.025615880265831947
1700516159740811000,4.62981103515625,0.005359877832233906,0.04386865347623825,-0.006042446009814739
1700516159750821000,4.639821044921875,0.02588246390223503,0.007271228823810816,0.06654227524995804
1700516159760830200,4.649830322265625,0.018270883709192276,0.032889772206544876,0.038482412695884705
1700516159770840000,4.659840087890625,0.010024404153227806,-0.02334154210984707,-0.15868791937828064
1700516159780850200,4.66985009765625,-0.01182177197188139,0.03344184532761574,-0.014142450876533985
1700516159790859300,4.679859375,0.01336028054356575,-0.06850022822618484,0.10880424082279205
1700516159800869000,4.689869140625,-0.017315873876214027,0.07769852131605148,-0.07873662561178207
1700516159810879200,4.699879150390625,0.009526127018034458,-0.051894888281822205,0.04640691354870796
1700516159820889300,4.709889404296875,-0.017100689932703972,0.011925102211534977,-0.09362262487411499
1700516159830898000,4.71989794921875,-0.006826480850577354,-0.009195095859467983,0.02153938077390194
1700516159840908000,4.729907958984375,0.02520761825144291,0.04055222123861313,0.027906199917197227
1700516159850918100,4.739918212890625,-0.00595562718808651,0.00929283443838358,-0.017182715237140656
1700516159860927200,4.74992724609375,-0.004822452086955309,-0.03457821533083916,-0.21426062285900116
1700516159870937000,4.75993701171875,-0.008066714741289616,0.02190556563436985,0.024161262437701225
1700516159880947200,4.769947265625,0.005903429351747036,-0.03021143190562725,0.03495718538761139
1700516159890955500,4.77995556640625,-0.00612207455560565,0.11354281008243561,-0.11420300602912903
1700516159900965400,4.78996533203125,-0.0020511667244136333,-0.061351243406534195,0.02966734766960144
1700516159910975500,4.7999755859375,-0.02353462018072605,0.02857332117855549,-0.14683152735233307
1700516159920985300,4.8099853515625,0.01269875094294548,0.010281932540237904,0.019271166995167732
1700516159930994400,4.819994384765625,0.029954969882965088,0.05271940305829048,0.060860153287649155
1700516159941004500,4.830004638671875,0.0034961977507919073,0.017039436846971512,-0.02648460492491722
1700516159951014400,4.840014404296875,-0.021208349615335464,-0.006110889371484518,-0.19490770995616913
1700516159961023500,4.8500234375,0.013894244097173214,-0.010085923597216606,0.1330331563949585
1700516159971033600,4.86003369140625,0.013878530822694302,0.016269251704216003,0.061650581657886505
1700516159981043500,4.87004345703125,0.028975725173950195,0.12706208229064941,-0.0075665730983018875
1700516159991053600,4.880053466796875,-0.00824061967432499,-0.05102456733584404,0.0018607506062835455
1700516160001062400,4.8900625,-0.0027031085919588804,0.06082899495959282,-0.06243567913770676
1700516160011072500,4.900072509765625,0.008895223960280418,-0.007540740538388491,0.08394709974527359
1700516160021082400,4.910082275390625,0.021813420578837395,0.047803740948438644,0.07656987756490707
1700516160031092500,4.920092529296875,0.008685633540153503,-0.019514845684170723,-0.07173996418714523
1700516160041101600,4.9301015625,-0.03634282574057579,0.02551068551838398,-0.1210518553853035
1700516160051111400,4.940111328125,0.021613948047161102,-0.04181509092450142,0.18232160806655884
1700516160061121500,4.95012158203125,0.019786754623055458,0.0345422625541687,-0.03701314702630043
1700516160071130600,4.960130615234375,0.023298131301999092,0.01589028351008892,0.03190120682120323
1700516160081140500,4.970140380859375,-0.008069644682109356,-0.0324370339512825,-0.011024687439203262
1700516160091150600,4.980150634765625,-0.004077565856277943,0.05379345640540123,-0.03516464680433273
1700516160101160400,4.990160400390625,0.0017867147689685225,-0.025980733335018158,0.0651683509349823
1700516160111169500,5.00016943359375,0.014653244987130165,0.044133905321359634,0.056602559983730316
1700516160121179600,5.0101796875,0.008912268094718456,-0.020061325281858444,-0.11260244250297546
1700516160131189500,5.020189453125,-0.03460298478603363,0.04151521995663643,-0.059351738542318344
1700516160141199600,5.03019970703125,0.025593509897589684,-0.07712621241807938,0.17160664498806
1700516160151208400,5.04020849609375,0.004572913981974125,0.05269357189536095,-0.10103260725736618
1700516160161218300,5.05021826171875,0.020436299964785576,-0.03943289443850517,0.04277222976088524
1700516160171228400,5.060228515625,-0.013906228356063366,-0.019477294757962227,-0.02467498555779457
1700516160181238500,5.070238525390625,-0.006739661563187838,0.020709538832306862,-0.014676947146654129
1700516160191247400,5.080247314453125,0.015410914085805416,-0.00373002327978611,0.01798406057059765
1700516160201257500,5.090257568359375,0.0039007319137454033,0.006141249556094408,0.026612170040607452
1700516160211267600,5.100267578125,0.012047608382999897,-0.045157358050346375,-0.10779038071632385
1700516160221277400,5.11027734375,-0.024289892986416817,0.041244640946388245,-0.05742014944553375
1700516160231286500,5.12028662109375,0.01912735588848591,-0.06346872448921204,0.12401355803012848
1700516160241296600,5.130296630859375,-0.001814677962101996,0.0388544537127018,-0.07321429252624512
1700516160251306500,5.140306396484375,0.02056839130818844,-0.04832758381962776,0.049316950142383575
1700516160261316600,5.150316650390625,-0.016351809725165367,-0.006225138902664185,-0.06099970266222954
1700516160271325700,5.16032568359375,-0.007451790850609541,0.009009740315377712,-0.009925068356096745
1700516160281335600,5.17033544921875,0.012774917297065258,-0.0005938849062658846,0.03166818246245384
1700516160291345700,5.180345703125,-0.00010918960470007733,0.0116135124117136,0.021826468408107758
1700516160301355500,5.19035546875,0.012514992617070675,-0.03269136697053909,-0.11755193024873734
1700516160311364400,5.2003642578125,-0.015991216525435448,0.057021740823984146,-0.03937403857707977
1700516160321374500,5.21037451171875,0.014605574309825897,-0.0800626128911972,0.13060034811496735
1700516160331384300,5.22038427734375,0.009169263765215874,0.051844820380210876,-0.0899469330906868
1700516160341394400,5.23039453125,0.02468137815594673,-0.026073412969708443,0.05792748183012009
1700516160351403500,5.240403564453125,-0.01623622700572014,-0.014492389746010303,-0.05374765023589134
1700516160361413400,5.250413330078125,-0.004495415836572647,0.028775455430150032,-0.03045457787811756
1700516160371423500,5.260423583984375,0.01689802296459675,-0.004315386060625315,0.04815234988927841
1700516160381433600,5.27043359375,-0.00024288028362207115,0.030888406559824944,0.02520468831062317
1700516160391442400,5.2804423828125,0.014761635102331638,-0.020053869113326073,-0.1284692883491516
1700516160401452500,5.29045263671875,-0.022130869328975677,0.07070719450712204,-0.04675445705652237
1700516160411462700,5.300462646484375,0.01871350035071373,-0.06796599924564362,0.14466477930545807
1700516160421472500,5.310472412109375,0.00914369709789753,0.04675418883562088,-0.07460526376962662
1700516160431482600,5.320482666015625,0.027293672785162926,-0.016057530418038368,0.07208457589149475
1700516160441491700,5.33049169921875,-0.015264440327882767,-0.008300540037453175,-0.034690070897340775
1700516160451501600,5.34050146484375,-0.007793208118528128,0.019169965758919716,-0.0003920173039659858
1700516160461511700,5.35051171875,0.014192251488566399,0.0036171053070575,0.059838034212589264
1700516160471521300,5.360521240234375,-0.003698331769555807,0.023092536255717278,0.04156848043203354
1700516160481530400,5.3705302734375,0.016627712175250053,-0.03728451952338219,-0.1018667072057724
1700516160491540500,5.38054052734375,-0.020591827109456062,0.042639072984457016,-0.03164048492908478
1700516160501550300,5.39055029296875,0.015241803601384163,-0.07243052124977112,0.13484570384025574
1700516160511560400,5.400560546875,0.005062136333435774,0.032702554017305374,-0.07699598371982574
1700516160521570600,5.410570556640625,0.026135463267564774,-0.02225363999605179,0.08250606060028076
1700516160531579400,5.420579345703125,-0.01919899508357048,-0.04151628538966179,-0.03919161111116409
1700516160541589500,5.430589599609375,-0.009247826412320137,0.028806613758206367,-0.040045954287052155
1700516160551599600,5.440599609375,0.011537079699337482,-0.018387529999017715,0.07115566730499268
1700516160561609500,5.450609375,-0.008423312567174435,0.02329307235777378,0.02810007706284523
1700516160571618600,5.46061865234375,0.002229332225397229,-0.005919940769672394,-0.11972559988498688
1700516160581628700,5.470628662109375,-0.03663897141814232,0.05431729927659035,-0.01678537204861641
1700516160591638500,5.480638427734375,0.028910212218761444,-0.09139303117990494,0.17248602211475372
1700516160601648600,5.490648681640625,-0.015501461923122406,0.032160598784685135,-0.08492660522460938
1700516160611658500,5.500658447265625,0.024655278772115707,-0.014398380182683468,0.09293419867753983
1700516160621667300,5.510667236328125,-0.018061291426420212,-0.07452989369630814,0.031497739255428314
1700516160631677400,5.520677490234375,-0.011597533710300922,0.0468045249581337,-0.05279077589511871
1700516160641687300,5.530687255859375,0.007169229444116354,-0.05450718477368355,0.075370654463768
1700516160651697400,5.540697509765625,-0.0037984666414558887,0.015956062823534012,0.02738075703382492
1700516160661707500,5.55070751953125,-0.0133301867172122,-0.053047772496938705,-0.13751019537448883
1700516160671716400,5.56071630859375,-0.03296966850757599,0.03819212689995766,-0.03524347394704819
1700516160681726500,5.5707265625,0.02105974592268467,-0.11616495251655579,0.1236865222454071
1700516160691736600,5.580736572265625,-0.013017797842621803,0.01170539204031229,-0.1177535280585289
1700516160701746400,5.590746337890625,0.018253305926918983,-0.04643114656209946,0.04208513721823692
1700516160711756500,5.600756591796875,-0.01654968224465847,-0.10146617144346237,-0.03863926976919174
1700516160721765600,5.610765625,-0.0018865832826122642,0.0010381002211943269,-0.11155049502849579
1700516160731775500,5.620775390625,0.01504180021584034,-0.07603484392166138,0.01270114816725254
1700516160741785600,5.63078564453125,0.0028791434597223997,-0.033957965672016144,0.0056799896992743015
1700516160751795500,5.64079541015625,-0.008858206681907177,-0.15063558518886566,-0.19969552755355835
1700516160761805600,5.6508056640625,-0.02292076125741005,0.010096043348312378,-0.19980046153068542
1700516160771815400,5.6608154296875,0.015301458537578583,-0.12627537548542023,0.06778916716575623
1700516160781824500,5.670824462890625,0.006713296286761761,0.018072210252285004,-0.08404111117124557
1700516160791834600,5.680834716796875,0.021334582939743996,-0.05933842435479164,0.10872568190097809
1700516160801844500,5.690844482421875,-0.009515740908682346,-0.05796503275632858,-0.0386350117623806
1700516160811854600,5.7008544921875,0.006490389816462994,0.08463392406702042,-0.046241797506809235
1700516160821864700,5.71086474609375,0.03104366920888424,0.008329568430781364,0.12503594160079956
1700516160831873500,5.72087353515625,0.018017349764704704,0.09713587164878845,0.14599795639514923
1700516160841883400,5.73088330078125,0.02016519010066986,-0.012173042632639408,-0.08421075344085693
1700516160851893500,5.7408935546875,-0.008825715631246567,0.10056362301111221,0.005526059307157993
1700516160861903400,5.7509033203125,0.010790063068270683,-0.026488864794373512,0.17306286096572876
1700516160871913500,5.76091357421875,-0.00561101408675313,0.05121205374598503,0.017489511519670486
1700516160881923300,5.77092333984375,0.0159510038793087,-0.013795973733067513,0.09544476121664047
1700516160891932700,5.7809326171875,-0.014642592519521713,-0.01978888548910618,-0.0958559587597847
1700516160901942800,5.79094287109375,-0.01564580574631691,-0.006399842444807291,0.0011821772204712033
1700516160911952600,5.80095263671875,0.024505609646439552,0.0017129451734945178,0.09652041643857956
1700516160921962800,5.810962646484375,-0.015746472403407097,-0.015978965908288956,0.02851393260061741
1700516160931972900,5.820972900390625,0.020859742537140846,-0.0453706756234169,-0.1801639050245285
1700516160941982700,5.830982666015625,-0.008221444673836231,-0.016350211575627327,0.03266846388578415
1700516160951991600,5.840991455078125,0.008097074925899506,-0.09261568635702133,0.09856732189655304
1700516160962001700,5.851001708984375,-0.015723569318652153,-0.028477713465690613,-0.08649387955665588
1700516160972011500,5.861011474609375,0.007995608262717724,-0.07112983614206314,0.06256111711263657
1700516160982021600,5.871021728515625,-0.010872887447476387,-0.042448125779628754,-0.11138564348220825
1700516160992031500,5.881031494140625,-0.012024970725178719,-0.02021392434835434,-0.0022631543688476086
1700516161002041600,5.89104150390625,0.022649385035037994,-0.03614974766969681,0.03965393453836441
1700516161012050700,5.90105078125,-0.02605210617184639,-0.0223897285759449,-0.00911413598805666
1700516161022060500,5.911060546875,0.00036991306114941835,-0.05998237803578377,-0.22308474779129028
1700516161032070700,5.921070556640625,-0.019512714818120003,0.024043550714850426,0.021769743412733078
1700516161042080800,5.931080810546875,-0.002959837205708027,-0.0020964404102414846,0.12923361361026764
1700516161052090600,5.941090576171875,-0.008229966275393963,0.13514050841331482,-0.0413394495844841
1700516161062100700,5.951100830078125,-0.01792573742568493,-0.022885607555508614,0.10714136809110641
1700516161072109800,5.96110986328125,-0.012619388289749622,0.08808138966560364,-0.1276293247938156
1700516161082119700,5.97111962890625,-0.018142784014344215,0.010357566177845001,0.06347911059856415
1700516161092129800,5.9811298828125,0.029324598610401154,0.05173696205019951,0.12671320140361786
1700516161102139600,5.9911396484375,-0.03487782180309296,0.012940299697220325,0.025103488937020302
1700516161112149800,6.001149658203125,0.027654796838760376,0.06666504591703415,-0.22048044204711914
1700516161122159600,6.01115966796875,-0.036851491779088974,-0.0016911072889342904,0.038305576890707016
1700516161132169700,6.021169677734375,-0.00538517814129591,-0.032771795988082886,0.10367872565984726
1700516161142178800,6.0311787109375,0.025680063292384148,0.2089124619960785,-0.0788159891963005
1700516161152188700,6.041188720703125,-0.013365873135626316,-0.4049232602119446,0.16810724139213562
1700516161162198500,6.051198486328125,0.03705708682537079,0.21628303825855255,-0.5637480616569519
1700516161172208600,6.061208740234375,-0.06408444046974182,-0.061167217791080475,0.11192946135997772
1700516161182218500,6.071218505859375,0.08882041275501251,-0.014313957653939724,0.3186546862125397
1700516161192228600,6.081228515625,-0.042162634432315826,-0.11267488449811935,-0.20164550840854645
1700516161202238500,6.091238525390625,-0.011492072604596615,0.14406822621822357,-0.38576021790504456
1700516161212247600,6.10124755859375,0.03380616754293442,-0.020787037909030914,0.06689008325338364
1700516161222257700,6.111257568359375,0.02104989066720009,-0.12121963500976562,0.4525807797908783
1700516161232267500,6.121267578125,0.03833860158920288,0.13606062531471252,-0.3846350312232971
1700516161242277600,6.131277587890625,-0.08589333295822144,0.08311033248901367,-0.2517033517360687
1700516161252287700,6.141287841796875,0.06827439367771149,-0.08901029825210571,0.2848929762840271
1700516161262297600,6.151297607421875,0.00526720006018877,0.0876515582203865,0.029256155714392662
1700516161272307700,6.1613076171875,-0.033067673444747925,-0.012296080589294434,-0.09920354932546616
1700516161282316800,6.17131689453125,0.04776592552661896,0.13258573412895203,-0.053694386035203934
1700516161292326700,6.18132666015625,-0.01732519455254078,-0.4747185707092285,0.20858943462371826
1700516161302336800,6.191336669921875,0.002049835165962577,0.2458912581205368,-0.3252215087413788
1700516161312346600,6.2013466796875,-0.01667964458465576,0.020743094384670258,0.2853499948978424
1700516161322356700,6.211356689453125,0.07754432410001755,-0.06538646668195724,-0.04694220796227455
1700516161332366600,6.22136669921875,-0.08039923757314682,-0.09031285345554352,-0.17697317898273468
1700516161342376700,6.231376708984375,0.0651284009218216,0.23661307990550995,0.04049842432141304
1700516161352385800,6.2413857421875,-0.07849320769309998,-0.48563700914382935,0.4977719783782959
1700516161362395600,6.251395751953125,-0.02665025368332863,0.2549513280391693,-0.41004717350006104
1700516161372405800,6.26140576171875,-0.04898352175951004,0.14501844346523285,-0.0009944243356585503
1700516161382416000,6.271415771484375,-0.04784821718931198,-0.22006498277187347,0.21684415638446808
1700516161392425700,6.28142578125,-0.04037325456738472,0.04753343015909195,-0.07931133359670639
1700516161402435800,6.291435791015625,-0.010876616463065147,0.2957320511341095,-0.03821556270122528
1700516161412445400,6.301445556640625,-0.020289292559027672,-0.432689905166626,0.3546385169029236
1700516161422455600,6.31145556640625,-0.0023004384711384773,0.13858558237552643,-0.33373960852622986
1700516161432465700,6.321465576171875,0.008410529233515263,0.033194173127412796,0.19616098701953888
1700516161442474500,6.331474609375,-0.03885951638221741,-0.11796178668737411,0.19336573779582977
1700516161452484600,6.341484619140625,0.031440213322639465,0.003317233407869935,-0.07918749749660492
1700516161462494700,6.35149462890625,-0.046177349984645844,0.40368568897247314,-0.0015164038632065058
1700516161472504600,6.361504638671875,-0.017046362161636353,-0.42304500937461853,0.2606995105743408
1700516161482514700,6.3715146484375,-0.024096015840768814,0.2735969126224518,-0.2549353539943695
1700516161492524500,6.381524658203125,-0.015081747435033321,-0.09257201105356216,-0.1192861795425415
1700516161502534700,6.39153466796875,0.018151840195059776,-0.038247786462306976,-0.0073266224935650826
1700516161512544500,6.40154443359375,0.008501076139509678,-0.15846820175647736,-0.015917181968688965
1700516161522554600,6.4115546875,-0.014489194378256798,-0.01044545043259859,-0.05041097477078438
1700516161532563700,6.421563720703125,0.007162305526435375,-0.03798732906579971,-0.08311112970113754
1700516161542573600,6.431573486328125,-0.0056802560575306416,0.07318712770938873,0.187148317694664
1700516161552583700,6.441583740234375,0.01040656864643097,0.17548154294490814,-0.05510826036334038
1700516161562593800,6.45159375,-0.022785739973187447,-0.15807272493839264,0.2153051197528839
1700516161572603600,6.461603759765625,0.064248226583004,0.2412155419588089,0.3346051573753357
1700516161582613800,6.47161376953125,-0.07264677435159683,0.11040480434894562,-0.08904705196619034
1700516161592623600,6.48162353515625,-0.07457463443279266,0.07019506394863129,0.21158628165721893
1700516161602633700,6.4916337890625,0.1613718420267105,2.1304497718811035,-0.8877424001693726
1700516161612643800,6.501643798828125,-0.12508521974086761,-1.9489641189575195,-0.6488975882530212
1700516161622652700,6.511652587890625,-0.047692954540252686,0.5185797810554504,0.9715118408203125
1700516161632662800,6.521662841796875,0.25094592571258545,-1.05808424949646,1.0766267776489258
1700516161642673000,6.5316728515625,-0.0466226302087307,0.20368868112564087,0.09327002614736557
1700516161652682500,6.5416826171875,0.0013733921805396676,-0.36701154708862305,-0.3054230213165283
1700516161662692600,6.551692626953125,-0.02033323422074318,0.37206119298934937,-0.7459221482276917
1700516161672702500,6.561702392578125,-0.10467101633548737,0.3635169565677643,-0.3106130063533783
1700516161682712600,6.571712646484375,0.15244174003601074,-0.40302574634552,0.28556808829307556
1700516161692722400,6.581722412109375,-0.043246008455753326,0.24640178680419922,-0.05297320336103439
1700516161702732500,6.591732666015625,-0.027457457035779953,-0.14787441492080688,0.5770689249038696
1700516161712742700,6.60174267578125,0.13789102435112,0.21316739916801453,-0.14187857508659363
1700516161722751700,6.611751708984375,-0.10419324785470963,-0.003023486817255616,-0.07887830585241318
1700516161732761600,6.62176171875,0.10388751327991486,-0.18284492194652557,0.006024336442351341
1700516161742771700,6.631771728515625,-0.0070222229696810246,0.3235948383808136,-0.5160186290740967
1700516161752781600,6.641781494140625,-0.17094404995441437,0.12417973577976227,0.28012967109680176
1700516161762791700,6.651791748046875,0.2161637246608734,-0.19302591681480408,0.010026268661022186
1700516161772801500,6.661801513671875,-0.10434184968471527,0.2956843674182892,-0.014165353961288929
1700516161782811600,6.671811767578125,-0.04753556102514267,-0.10736613720655441,0.8351089954376221
1700516161792821800,6.68182177734375,0.08842653781175613,-0.04741651937365532,0.002127333078533411
1700516161802831600,6.69183154296875,-0.2545340061187744,0.5273668766021729,0.12231525778770447
1700516161812841700,6.701841796875,0.16296547651290894,-0.8209300637245178,0.07163583487272263
1700516161822851600,6.7118515625,-0.06897880136966705,0.38800153136253357,-0.242384135723114
1700516161832860700,6.721860595703125,-0.07607053220272064,-0.24243927001953125,0.10449045896530151
1700516161842870800,6.731870849609375,0.21122702956199646,-0.6235261559486389,-0.5913200378417969
1700516161852880600,6.741880615234375,-0.25080186128616333,1.0284563302993774,-0.6158496141433716
1700516161862890800,6.751890869140625,0.05522037670016289,-0.7106706500053406,0.2804489731788635
1700516161872900600,6.761900634765625,0.08598122000694275,0.42498910427093506,-0.02082591876387596
1700516161882910700,6.77191064453125,-0.11305385082960129,0.13413622975349426,0.6701770424842834
1700516161892924700,6.781924560546875,0.24054282903671265,-0.6461220383644104,0.24992488324642181
1700516161902934500,6.7919345703125,-0.19003304839134216,0.6323883533477783,-0.26738110184669495
1700516161912944600,6.801944580078125,0.07461804151535034,-0.5616614818572998,0.5361084342002869
1700516161922954500,6.81195458984375,0.010336526669561863,0.24625983834266663,-0.20477178692817688
1700516161932964600,6.821964599609375,-0.0918516293168068,0.14516384899616241,0.14226366579532623
1700516161942974500,6.831974365234375,0.27636954188346863,-0.8605461716651917,0.11957459896802902
1700516161952984600,6.841984619140625,-0.14345170557498932,0.46414849162101746,-0.771750807762146
1700516161962993700,6.85199365234375,-0.039265114814043045,-0.4178891181945801,0.2117529958486557
1700516161973003500,6.86200341796875,0.03671646863222122,-0.1726577877998352,-0.3371463418006897
1700516161983013600,6.872013671875,-0.12847328186035156,0.535944402217865,-0.07894434779882431
1700516161993023700,6.882023681640625,0.12445005029439926,-1.1507830619812012,0.5193246603012085
1700516162003033600,6.89203369140625,-0.051416054368019104,0.6330909132957458,-0.3982115685939789
1700516162013043700,6.902043701171875,0.009457417763769627,0.1234726682305336,0.19893254339694977
1700516162023053600,6.912053466796875,0.06142980605363846,-0.3485531806945801,-0.21972917020320892
1700516162033063700,6.922063720703125,-0.12663809955120087,1.0032892227172852,-0.14241254329681396
1700516162043073500,6.932073486328125,0.2579069137573242,-1.0713976621627808,0.42822006344795227
1700516162053083600,6.942083740234375,-0.08995598554611206,0.6444655656814575,-0.1931353658437729
1700516162063093800,6.95209375,0.02749207802116871,-0.6210286617279053,0.3845897614955902
1700516162073103600,6.962103515625,0.14224262535572052,0.07014074176549911,-0.569343626499176
1700516162083113700,6.97211376953125,-0.21836349368095398,0.9734106659889221,0.024631310254335403
1700516162093123600,6.98212353515625,0.24171382188796997,-1.23663330078125,0.07296395301818848
1700516162103133700,6.9921337890625,-0.022068817168474197,0.8670656085014343,-0.4795604646205902
1700516162113142800,7.002142822265625,0.007985488511621952,-0.5999012589454651,0.5099785923957825
1700516162123152600,7.012152587890625,0.14019306004047394,-0.01894386298954487,0.13908624649047852
1700516162133162800,7.022162841796875,-0.030068952590227127,0.30848485231399536,0.5234536528587341
1700516162143172600,7.032172607421875,0.08615246415138245,-0.405564546585083,0.04315546154975891
1700516162153182500,7.042182373046875,-0.10158228129148483,0.8184927105903625,-0.12801069021224976
1700516162163192600,7.052192626953125,0.09481891989707947,-0.6865962147712708,0.4852665662765503
1700516162173202400,7.062202392578125,-0.04386865347623825,0.29676881432533264,-0.3091842234134674
1700516162183212500,7.072212646484375,0.053222473710775375,-0.41134920716285706,0.4917428493499756
1700516162193222400,7.082222412109375,-0.022877618670463562,0.12410090863704681,-0.37363511323928833
1700516162203232500,7.092232421875,0.003245328087359667,-0.01782134175300598,0.11694925278425217
1700516162213242600,7.10224267578125,-0.037287451326847076,-0.2579447329044342,0.05331355333328247
1700516162223252500,7.11225244140625,-0.057983409613370895,0.3027678430080414,0.03825604170560837
1700516162233262600,7.1222626953125,0.008704542182385921,-0.6365708708763123,0.05004372447729111
1700516162243272400,7.1322724609375,-0.04583113640546799,0.3231082856655121,-0.39829811453819275
1700516162253282600,7.142282470703125,0.0036693033762276173,-0.47145965695381165,0.07550913840532303
1700516162263292700,7.152292724609375,0.006215285509824753,-0.07700157165527344,-0.3648706376552582
1700516162273302500,7.162302490234375,0.02690325304865837,-0.221779003739357,0.03873461112380028
1700516162283311600,7.1723115234375,-0.047022901475429535,-0.02810886688530445,-0.3638352155685425
1700516162293321700,7.18232177734375,0.06029289960861206,0.15922747552394867,-0.04519384354352951
1700516162303331600,7.19233154296875,-0.0663132444024086,-0.26994067430496216,-0.03905312716960907
1700516162313341700,7.202341796875,0.020478110760450363,0.5804676413536072,-0.15745699405670166
1700516162323351600,7.2123515625,0.03371588513255119,-0.6907009482383728,-0.1336078643798828
1700516162333361700,7.222361572265625,-0.014318752102553844,0.6355136036872864,-0.4187290668487549
1700516162343371500,7.23237158203125,-0.013096893206238747,-0.42831140756607056,0.23385722935199738
1700516162353381600,7.242381591796875,-0.007758587133139372,0.4565204083919525,0.07072397321462631
1700516162363391700,7.252391845703125,0.12136823683977127,-0.4598373770713806,0.4161045253276825
1700516162373401600,7.262401611328125,-0.034381940960884094,0.5063521265983582,-0.21688996255397797
1700516162383411700,7.27241162109375,0.03755722939968109,-0.14931891858577728,0.3818235397338867
1700516162393421600,7.282421630859375,0.02779940702021122,0.18371017277240753,-0.0067660268396139145
1700516162403431700,7.292431640625,0.12845198810100555,-0.07881225645542145,0.5946385860443115
1700516162413441500,7.302441650390625,-0.014958443120121956,0.3069799244403839,-0.3015025854110718
1700516162423451600,7.31245166015625,0.010404970496892929,0.06734202057123184,0.42115601897239685
1700516162433461800,7.322461669921875,0.03296354413032532,0.09173764288425446,-0.15014076232910156
1700516162443471600,7.3324716796875,0.02605210617184639,-0.03742966428399086,0.2355153113603592
1700516162453481700,7.342481689453125,-0.03364131599664688,0.11889415979385376,-0.3775731325149536
1700516162463491600,7.35249169921875,-0.007589210290461779,-0.05613464117050171,0.04658294841647148
1700516162473501700,7.362501708984375,-0.04910735785961151,-0.07614749670028687,-0.2620134949684143
1700516162483511800,7.37251171875,0.07107763737440109,0.08327864110469818,0.13672535121440887
1700516162493521700,7.382521728515625,-0.036793701350688934,-0.24652349948883057,-0.4694734811782837
1700516162503531800,7.39253173828125,0.00637747161090374,0.148687481880188,-0.10630965977907181
1700516162513541600,7.402541748046875,-0.059836167842149734,-0.25352945923805237,-0.08775355666875839
1700516162523551700,7.4125517578125,0.028630312532186508,0.16696155071258545,0.12751242518424988
1700516162533560600,7.422560546875,-0.019937755540013313,-0.37412673234939575,-0.3857000172138214
1700516162543570400,7.4325703125,0.01167556457221508,0.39168813824653625,-0.09560827910900116
1700516162553580500,7.44258056640625,-0.01565246284008026,-0.3745776116847992,0.1295318901538849
1700516162563590400,7.45259033203125,0.025623338297009468,0.49615222215652466,0.3122290074825287
1700516162573600500,7.4626005859375,-0.06094164773821831,-0.3401471972465515,-0.01985040307044983
1700516162583610600,7.472610595703125,0.025287512689828873,0.26096421480178833,0.11331777274608612
1700516162593620500,7.482620361328125,-0.05702893063426018,-0.26578959822654724,-0.08498626202344894
1700516162603630600,7.492630615234375,0.03747866675257683,0.017424263060092926,0.291208952665329
1700516162613640400,7.502640380859375,-0.06632070243358612,-0.06318029761314392,-0.3541269302368164
1700516162623650600,7.512650634765625,0.012437228113412857,-0.015955796465277672,0.1309329867362976
1700516162633660700,7.52266064453125,-0.021737519651651382,-0.07088668644428253,-0.07651341706514359
1700516162643670500,7.53267041015625,0.1384343057870865,-0.3343188464641571,0.08272737264633179
1700516162653680600,7.5426806640625,-0.12430810183286667,0.34479227662086487,-0.16574609279632568
1700516162663690500,7.5526904296875,0.07842183858156204,-0.32543429732322693,0.21157856285572052
1700516162673700600,7.56270068359375,0.0009243832319043577,0.10744523257017136,0.08521796017885208
1700516162683710500,7.57271044921875,0.08917994052171707,-0.47782862186431885,-0.0670621246099472
1700516162693720600,7.582720458984375,0.003840810852125287,0.340596467256546,-0.2403356432914734
1700516162703730700,7.592730712890625,-0.04908978193998337,-0.4915313720703125,0.3466287851333618
1700516162713740500,7.602740478515625,-0.004240285139530897,0.6708726286888123,0.2120286375284195
1700516162723750700,7.612750732421875,-0.029269471764564514,-0.5096778869628906,-0.0787171795964241
1700516162733760500,7.622760498046875,0.017905231565237045,0.2659893333911896,0.1815149337053299
1700516162743770600,7.6327705078125,-0.06621630489826202,-0.07518237084150314,0.03260241821408272
1700516162753780500,7.642780517578125,0.11238966137170792,-0.08077207952737808,0.28777772188186646
1700516162763790600,7.65279052734375,-0.12743119895458221,0.30196279287338257,-0.40570515394210815
1700516162773800700,7.66280078125,0.05330902710556984,-0.10245607048273087,0.0739131048321724
1700516162783810600,7.672810546875,-0.0889679566025734,0.03774498030543327,0.049306828528642654
1700516162793820700,7.682820556640625,0.14519260823726654,-0.4283577501773834,-0.012295282445847988
1700516162803830500,7.69283056640625,-0.10673177242279053,0.25507891178131104,-0.38829153776168823
1700516162813840600,7.702840576171875,0.0006852313526906073,-0.4302248954772949,-0.043711792677640915
1700516162823850800,7.712850830078125,-0.06006280332803726,0.6402342915534973,-0.008799617178738117
1700516162833860600,7.722860595703125,0.02646489627659321,-0.6344690918922424,-0.5043219923973083
1700516162843870700,7.73287060546875,-0.014487329870462418,0.3451259732246399,-0.0417620949447155
1700516162853880600,7.742880615234375,-0.06907813996076584,-0.28603148460388184,0.03128974512219429
1700516162863890700,7.752890625,0.20016877353191376,0.11385253071784973,0.027118170633912086
1700516162873900500,7.762900634765625,-0.071112260222435,0.07067230343818665,-0.31158265471458435
1700516162883910700,7.77291064453125,0.06420934945344925,0.01522742211818695,0.40868788957595825
1700516162893920300,7.782920166015625,-0.1089179590344429,0.42527326941490173,0.19602543115615845
1700516162903930000,7.79293017578125,0.26336267590522766,-0.7191019654273987,0.027223898097872734
1700516162913940200,7.802940185546875,-0.13240544497966766,0.6880641579627991,-0.14664137363433838
1700516162923950000,7.8129501953125,0.039922114461660385,-0.3872997760772705,0.16206879913806915
1700516162933960200,7.822960205078125,0.07175195217132568,0.27675384283065796,0.21351760625839233
1700516162943970300,7.83297021484375,-0.10811768472194672,-0.21947163343429565,-0.30394577980041504
1700516162953980200,7.842980224609375,0.06803151220083237,0.14898681640625,0.1474459171295166
1700516162963990300,7.852990234375,-0.06474251300096512,-0.20666076242923737,-0.013115801848471165
1700516162974000000,7.863000244140625,0.17207109928131104,-0.5357853770256042,0.0139608234167099
1700516162984010200,7.87301025390625,-0.10162889212369919,0.48173362016677856,-0.1583760529756546
1700516162994020000,7.88302001953125,0.08431008458137512,-0.42550069093704224,0.2554861009120941
1700516163004030200,7.8930302734375,-0.0018706043483689427,0.3480602502822876,0.3709871172904968
1700516163014040300,7.903040283203125,-0.03314756602048874,-0.2727750837802887,-0.20380905270576477
1700516163024050200,7.91305029296875,0.10105258226394653,0.3543415665626526,0.0268904697149992
1700516163034060300,7.923060302734375,-0.08520970493555069,0.21730728447437286,-0.06125190481543541
1700516163044070100,7.933070068359375,0.16193456947803497,-0.4529227316379547,0.28674203157424927
1700516163054080300,7.943080322265625,-0.07457996159791946,0.3682962656021118,0.20310650765895844
1700516163064090400,7.95309033203125,-0.09124389290809631,-0.26085183024406433,0.24529044330120087
1700516163074100200,7.963100341796875,-0.05330716446042061,0.5648216009140015,0.08149565756320953
1700516163084110300,7.9731103515625,-0.02996588870882988,-0.48533421754837036,-0.3252771496772766
1700516163094120200,7.9831201171875,0.023976705968379974,0.005105013493448496,-0.005532983224838972
1700516163104130300,7.99313037109375,-0.14695429801940918,0.01871696300804615,-0.06830262392759323
1700516163114140200,8.00314013671875,0.19624140858650208,-0.545516312122345,-0.02647688053548336
1700516163124150300,8.013150390625,-0.09156187623739243,0.19955384731292725,-0.44331032037734985
1700516163134160400,8.023160400390625,0.1003018394112587,-0.3287621736526489,-0.07292959839105606
1700516163144170000,8.033169921875,-0.032525453716516495,0.43186458945274353,0.08863505721092224
1700516163154180000,8.04318017578125,0.04363083466887474,-0.613657534122467,-0.46577516198158264
1700516163164190000,8.05318994140625,0.06688209623098373,0.34878063201904297,-0.17186416685581207
1700516163174200000,8.063199951171875,-0.007182279136031866,-0.4422498643398285,-0.30500730872154236
1700516163184210200,8.073210205078125,0.0477568693459034,0.35869771242141724,0.29968976974487305
1700516163194220000,8.083219970703125,-0.0007219829712994397,0.27837464213371277,0.20219437777996063
1700516163204230100,8.093230224609375,-0.011206582188606262,0.1632445901632309,0.8870630264282227
1700516163214240000,8.103239990234375,-0.012337093241512775,0.32794830203056335,0.8598729372024536
1700516163224250000,8.11325,0.02022324688732624,-0.32270827889442444,-0.0877695307135582
1700516163234260000,8.123260009765625,0.007786816451698542,0.24549365043640137,-0.19809071719646454
1700516163244270000,8.13327001953125,-0.11334946006536484,0.05175347626209259,-0.12822481989860535
1700516163254280200,8.1432802734375,0.1400844007730484,-0.30024105310440063,-0.05871497839689255
1700516163264290000,8.1532900390625,0.00008388957212446257,0.36896631121635437,-0.21640446782112122
1700516163274300200,8.163300048828125,-0.006406500469893217,-0.6057215929031372,-0.06197655200958252
1700516163284310000,8.17331005859375,-0.00028522455249913037,0.34869033098220825,-0.18567799031734467
1700516163294320000,8.183320068359375,0.04451580345630646,-0.2522495687007904,-0.6267379522323608
1700516163304330000,8.193330078125,0.11057817935943604,0.39838919043540955,-0.20733614265918732
1700516163314340000,8.203340087890625,0.05679696798324585,-0.25946033000946045,-0.3772279918193817
1700516163324350200,8.21335009765625,0.12513288855552673,0.11673620343208313,-0.0587216354906559
1700516163334360000,8.223360107421875,0.024872859939932823,0.1279315948486328,-0.3483997881412506
1700516163344370200,8.2333701171875,0.06634680181741714,-0.046250320971012115,0.003734284546226263
1700516163354380000,8.243380126953125,-0.11230656504631042,0.35644787549972534,0.4205722510814667
1700516163364390100,8.25339013671875,-0.04767191410064697,-0.290131151676178,-0.018924156203866005
1700516163374400300,8.263400146484376,-0.007952465675771236,0.28681740164756775,0.06156642362475395
1700516163384410000,8.27341015625,-0.040049415081739426,-0.22506746649742126,0.14612337946891785
1700516163394420200,8.283420166015626,0.04760080948472023,-0.17024870216846466,0.1681719571352005
1700516163404430000,8.29343017578125,-0.09579843282699585,0.19109618663787842,-0.2757285237312317
1700516163414440200,8.303440185546876,-0.0680733248591423,-0.16399027407169342,0.2629815638065338
1700516163424451000,8.313451171875,0.011579690501093864,0.3091525137424469,0.3907938599586487
1700516163434461200,8.323461181640624,-0.006695186719298363,-0.24839410185813904,-0.32440924644470215
1700516163444471000,8.333470947265624,0.03749624267220497,0.42573878169059753,0.001317998394370079
1700516163454481200,8.343481201171874,-0.028812207281589508,0.03852022811770439,-0.09604983031749725
1700516163464491000,8.353490966796874,0.10239854454994202,-0.03522350266575813,-0.19717325270175934
1700516163474501000,8.363501220703125,-0.023500531911849976,0.23932842910289764,-0.2916758060455322
1700516163484511200,8.37351123046875,0.02057132124900818,-0.15564312040805817,-0.4236346185207367
1700516163494521000,8.38352099609375,-0.05297320336103439,0.3969484269618988,-0.05937996879220009
1700516163504531200,8.39353125,-0.023503461852669716,-0.28784245252609253,-0.5093985199928284
1700516163514541000,8.403541015625,-0.021767346188426018,0.21829664707183838,-0.29093649983406067
1700516163524551200,8.41355126953125,-0.10613442212343216,-0.27010366320610046,-0.3386334478855133
1700516163534561300,8.423561279296875,0.11119789630174637,-0.3264838457107544,-0.21726414561271667
1700516163544571100,8.433571044921875,0.08277557045221329,0.3005150854587555,-0.1566774994134903
1700516163554581200,8.443581298828125,0.022606508806347847,-0.20329506695270538,0.4105566442012787
1700516163564591000,8.453591064453125,0.13200010359287262,0.41205012798309326,0.7867521047592163
1700516163574601200,8.463601318359375,0.07190561294555664,0.1364412009716034,0.26256823539733887
1700516163584611000,8.473611083984375,0.08334469050168991,0.18191148340702057,0.5751453042030334
1700516163594621200,8.48362109375,0.04439276456832886,0.3421802520751953,0.22468610107898712
1700516163604631300,8.49363134765625,-0.10617969930171967,-0.4374295175075531,0.4316858947277069
1700516163614641200,8.50364111328125,-0.06684134900569916,0.43540552258491516,-0.04875129461288452
1700516163624651300,8.5136513671875,-0.13343103229999542,-0.5852283239364624,-0.16129301488399506
1700516163634661000,8.5236611328125,-0.04701464623212814,0.04349767789244652,0.07403028756380081
1700516163644671200,8.533671142578125,-0.08532208949327469,-0.2003788948059082,-0.5947115421295166
1700516163654681000,8.54368115234375,-0.007900799624621868,-0.11818096786737442,-0.14216673374176025
1700516163664691200,8.553691162109375,0.0016767261549830437,0.24769635498523712,-0.12017993628978729
1700516163674701300,8.563701416015626,0.057138919830322266,-0.40513524413108826,-0.07434719800949097
1700516163684711200,8.573711181640626,0.024228639900684357,0.3264350891113281,0.1100468784570694
1700516163694722000,8.58372216796875,-0.0686163455247879,-0.22237767279148102,0.07152371853590012
1700516163704732200,8.593732177734376,0.11911467462778091,0.05775251239538193,0.11015872657299042
1700516163714742300,8.6037421875,-0.02870781160891056,0.3468242585659027,-0.163876011967659
1700516163724752100,8.613752197265624,0.07024380564689636,-0.3050275444984436,-0.12971484661102295
1700516163734762200,8.62376220703125,-0.05757967382669449,0.25423282384872437,-0.28989094495773315
1700516163744772000,8.633772216796874,0.1737520843744278,-0.7539007067680359,-0.660051167011261
1700516163754782200,8.6437822265625,-0.012632171623408794,-0.20348520576953888,-0.5380048751831055
1700516163764792300,8.653792236328124,0.04084543511271477,-0.21971425414085388,-0.36514362692832947
1700516163774802200,8.66380224609375,-0.03916418179869652,-0.12647084891796112,-0.17661844193935394
1700516163784812300,8.673812255859374,0.1724545955657959,-0.32959628105163574,-0.13761352002620697
1700516163794822100,8.683822265625,-0.015812251716852188,0.03315236046910286,0.08740867674350739
1700516163804832300,8.693832275390625,-0.07334984838962555,-0.21518075466156006,0.001091629732400179
1700516163814842000,8.703842041015625,-0.0019182749092578888,0.5274124145507812,0.9264495372772217
1700516163824852200,8.713852294921875,0.0008460862445645034,0.623431921005249,1.6148841381072998
1700516163834862300,8.7238623046875,0.01498454250395298,-0.03013766184449196,1.3737071752548218
1700516163844872200,8.7338720703125,0.10222090780735016,-0.3874598443508148,0.7719561457633972
1700516163854882300,8.74388232421875,-0.06166709214448929,0.44519397616386414,-0.4177176058292389
1700516163864892200,8.75389208984375,-0.06084124743938446,-0.42992475628852844,-0.5778502821922302
1700516163874902300,8.76390234375,-0.007247260306030512,0.031095867976546288,-0.14600248634815216
1700516163884912000,8.773912109375,-0.0854288786649704,-0.16199609637260437,-0.5265604853630066
1700516163894919000,8.7839189453125,-0.03370709717273712,-0.19814664125442505,-0.12565992772579193
1700516163904929800,8.7939296875,-0.03626373037695885,0.29185235500335693,-0.04849642887711525
1700516163914940000,8.80393994140625,0.09373421221971512,-0.620754063129425,-0.18424813449382782
1700516163924949800,8.81394970703125,0.028506210073828697,0.3197638988494873,-0.09665117412805557
1700516163934959900,8.8239599609375,0.01546231284737587,-0.25956737995147705,0.13224884867668152
1700516163944970000,8.833969970703125,0.12545032799243927,-0.05951419472694397,0.2657110393047333
1700516163954979800,8.843979736328125,-0.08153533935546875,0.13786040246486664,-0.21337006986141205
1700516163964990000,8.853989990234375,-0.07503296434879303,-0.05260568857192993,0.10720794647932053
1700516163974999800,8.863999755859375,-0.13847878575325012,-0.0020362529903650284,0.17991463840007782
1700516163985010000,8.874010009765625,-0.06034136936068535,-0.6732636094093323,-0.43050023913383484
1700516163995020000,8.88402001953125,-0.17428870499134064,0.3759738802909851,-0.6461777091026306
1700516164005030000,8.89402978515625,0.049726810306310654,-0.44180190563201904,-0.28352758288383484
1700516164015040000,8.9040400390625,-0.20960596203804016,-0.09785173088312149,-0.16815517842769623
1700516164025049900,8.9140498046875,-0.07038921117782593,-0.05835225433111191,-0.5643275380134583
1700516164035060000,8.92406005859375,-0.008640892803668976,0.3866816759109497,0.13215777277946472
1700516164045069800,8.93406982421875,-0.03917962685227394,0.1613561362028122,0.7848727107048035
1700516164055080000,8.944079833984375,0.05494900420308113,-0.19874025881290436,0.5117335915565491
1700516164065090800,8.9540908203125,0.07067736238241196,0.7438315153121948,0.295279860496521
1700516164075101000,8.964100830078126,-0.019750269129872322,-0.405415415763855,0.1098247691988945
1700516164085110800,8.97411083984375,0.0396755076944828,-0.16957464814186096,-0.01649322360754013
1700516164095121000,8.984120849609376,-0.08237423747777939,0.28634440898895264,-0.24702470004558563
1700516164105131000,8.994131103515626,0.10908947139978409,-0.5177773833274841,-0.15012770891189575
1700516164115140900,9.004140869140626,-0.03972956910729408,0.26674380898475647,-0.18313945829868317
1700516164125151000,9.01415087890625,0.07369792461395264,-0.55499267578125,-0.3566758334636688
1700516164135160800,9.024160888671876,0.08347731828689575,0.24384142458438873,-0.28772178292274475
1700516164145171000,9.0341708984375,-0.016559801995754242,-0.0076158419251441956,-0.016323579475283623
1700516164155181000,9.04418115234375,0.20227719843387604,0.05968303605914116,0.5720134377479553
1700516164165191000,9.05419091796875,0.011329620145261288,0.3469044268131256,0.63808274269104
1700516164175201000,9.064200927734374,0.03183995559811592,-0.0602516233921051,0.7537262439727783
1700516164185211000,9.0742109375,-0.03489886224269867,0.625676691532135,0.6355625987052917
1700516164195221000,9.084220947265624,-0.04304653778672218,-0.042153578251600266,0.19772586226463318
1700516164205230800,9.09423095703125,-0.025378327816724777,0.2487805187702179,0.2140907198190689
1700516164215242000,9.104241943359375,-0.12221219390630722,0.11352390050888062,0.034149449318647385
1700516164225251800,9.114251953125,0.09481652081012726,-0.588767409324646,-0.16840659081935883
1700516164235262000,9.124261962890625,-0.10431655496358871,0.4371890425682068,-0.5896726250648499
1700516164245271800,9.134271728515625,-0.028057733550667763,-0.5230826735496521,-0.3325377404689789
1700516164255282000,9.144281982421875,-0.03110039420425892,0.2972939908504486,-0.1703978329896927
1700516164265292000,9.1542919921875,0.037155888974666595,-0.23151259124279022,-0.5212363004684448
1700516164275302000,9.164302001953125,0.09663999080657959,0.18560022115707397,-0.057060357183218
1700516164285312000,9.17431201171875,0.021944446489214897,0.005825398489832878,0.0442257858812809
1700516164295321900,9.18432177734375,0.20535102486610413,-0.6354272961616516,-0.2153725028038025
1700516164305332000,9.19433203125,-0.02612001821398735,0.4631924331188202,-0.711685299873352
1700516164315341800,9.204341796875,-0.02605929784476757,-0.03567437455058098,-0.04884450510144234
1700516164325352000,9.21435205078125,0.04352084547281265,-0.08985185623168945,0.11789654195308685
1700516164335362000,9.224362060546875,-0.012960273772478104,-0.05035904422402382,-0.304773211479187
1700516164345373000,9.234373046875,0.10711526870727539,0.2067665010690689,0.355692058801651
1700516164355383000,9.244383056640626,-0.01564021222293377,0.04513605311512947,0.47721874713897705
1700516164365393000,9.254392822265626,0.08408558368682861,-0.10813099890947342,0.2755756378173828
1700516164375403000,9.264403076171876,-0.002882871776819229,0.3396798074245453,-0.06416966766119003
1700516164385412900,9.274412841796876,-0.051058389246463776,-0.10880211740732193,0.11288793385028839
1700516164395423000,9.284423095703126,0.0600430965423584,0.38707926869392395,0.4051738679409027
1700516164405432800,9.294432861328126,-0.07491152733564377,-0.07701169699430466,0.17796361446380615
1700516164415443000,9.30444287109375,-0.007151386234909296,0.06457206606864929,0.29689186811447144
1700516164425453000,9.314453125,-0.13004295527935028,0.4362340271472931,0.308286190032959
1700516164435463000,9.324462890625,0.06801660358905792,-0.6854217648506165,-0.12525352835655212
1700516164445473000,9.33447314453125,-0.0630042627453804,0.6305904388427734,-0.4916948974132538
1700516164455483000,9.34448291015625,-0.10709422826766968,-0.42457178235054016,-0.1691322922706604
1700516164465494000,9.354493896484374,0.09273713082075119,0.008856075815856457,-0.0706896185874939
1700516164475503900,9.36450390625,-0.10573495179414749,0.22627361118793488,-0.5245926380157471
1700516164485514000,9.374513916015625,-0.03416143357753754,-0.025684325024485588,0.1873435229063034
1700516164495523800,9.38452392578125,0.015741145238280296,0.1755310744047165,0.042448658496141434
1700516164505534000,9.394533935546875,0.06812898814678192,-0.5987275838851929,-0.44211748242378235
1700516164515544000,9.4045439453125,0.004142280668020248,1.0849249362945557,-0.23792921006679535
1700516164525554000,9.414553955078125,-0.017069265246391296,-0.45744451880455017,0.36545705795288086
1700516164535564000,9.42456396484375,0.13707396388053894,0.17183780670166016,0.48083239793777466
1700516164545574000,9.434573974609375,0.02287202700972557,0.29556533694267273,0.23063214123249054
1700516164555584000,9.444583984375,0.03989814594388008,-0.2788026034832001,0.43229708075523376
1700516164565593900,9.45459375,0.016168583184480667,0.5221651792526245,0.2631448209285736
1700516164575604000,9.46460400390625,0.09998784959316254,-0.26676297187805176,-0.12674783170223236
1700516164585614800,9.47461474609375,0.052862681448459625,0.39830583333969116,-0.01883946731686592
1700516164595625000,9.484625,-0.03568822145462036,0.03368419408798218,0.2029632329940796
1700516164605634800,9.494634765625,0.15050402283668518,-0.513385534286499,0.28321200609207153
1700516164615645000,9.50464501953125,0.03786695376038551,0.6990438103675842,-0.23387055099010468
1700516164625655000,9.514655029296875,-0.02111274190247059,-0.23895825445652008,0.17911382019519806
1700516164635665000,9.524664794921875,0.17067213356494904,0.37983226776123047,0.42497578263282776
1700516164645675000,9.534675048828126,0.010867827571928501,0.023431023582816124,-0.10406115651130676
1700516164655684900,9.544684814453126,0.04457918554544449,-0.03910026326775551,0.20544183254241943
1700516164665695000,9.554695068359376,0.026090722531080246,0.3121757507324219,-0.4541504681110382
1700516164675704800,9.564704833984376,0.10710301995277405,-0.7286251783370972,-0.487570196390152
1700516164685715000,9.57471484375,-0.11341258138418198,0.4868418276309967,-0.5582731366157532
1700516164695725800,9.584725830078124,0.061163220554590225,-0.45394620299339294,-0.16357934474945068
1700516164705736000,9.59473583984375,0.03621312975883484,0.2611740827560425,0.3126987814903259
1700516164715746000,9.60474609375,0.1180289015173912,-0.010410563088953495,0.06105563044548035
1700516164725756000,9.614755859375,0.10347605496644974,0.17610472440719604,0.1921129822731018
1700516164735766000,9.62476611328125,0.012990366667509079,0.3335374891757965,0.143625870347023
1700516164745775900,9.63477587890625,0.17917615175247192,-0.6248462796211243,-0.1286085695028305
1700516164755786000,9.644785888671874,-0.03135978803038597,0.42530494928359985,-0.4260849952697754
1700516164765795800,9.6547958984375,-0.033245306462049484,-0.28700166940689087,-0.09889142960309982
1700516164775806000,9.664805908203125,0.1603097766637802,-0.41139447689056396,0.09549003839492798
1700516164785816000,9.674816162109375,0.016106531023979187,-0.0812453180551529,-0.6697562336921692
1700516164795827000,9.684826904296875,-0.014217551797628403,0.37433871626853943,-0.23417548835277557
1700516164805836800,9.6948369140625,0.042263299226760864,-0.2999798059463501,-0.07294424623250961
1700516164815847000,9.704846923828125,0.09293287247419357,-0.295994371175766,-0.29298660159111023
1700516164825857000,9.71485693359375,0.12689243257045746,0.46513092517852783,-0.07010451704263687
1700516164835867000,9.724866943359375,-0.029570940881967545,-0.18217380344867706,0.03941185399889946
1700516164845877000,9.734876953125,0.10668836534023285,0.02244911715388298,0.20076319575309753
1700516164855886800,9.744886962890625,0.010698983445763588,-0.006101301871240139,-0.4118003249168396
1700516164865897000,9.75489697265625,-0.046666570007801056,0.4326243996620178,-0.1170019879937172
1700516164875907000,9.764906982421875,-0.06629060953855515,0.5553865432739258,0.4759766459465027
1700516164885917000,9.7749169921875,0.11469808965921402,-0.6085163354873657,0.02239132486283779
1700516164895927600,9.784927490234375,-0.04397464916110039,0.8118055462837219,0.11793781816959381
1700516164905937700,9.794937744140626,-0.05994882062077522,-0.36956846714019775,0.3922186493873596
1700516164915947800,9.80494775390625,0.1719379425048828,-0.21211998164653778,0.15265771746635437
1700516164925957600,9.81495751953125,-0.04959764704108238,0.21504493057727814,-0.1742415726184845
1700516164935967700,9.8249677734375,-0.02449309267103672,-0.4111771583557129,-0.002435727044939995
1700516164945977600,9.8349775390625,0.0044322991743683815,0.31067878007888794,-0.1030704602599144
1700516164955987700,9.84498779296875,0.13371412456035614,-0.6446570158004761,-0.5153837203979492
1700516164965997600,9.85499755859375,0.0787893533706665,0.145024836063385,-0.5210221409797668
1700516164976007700,9.865007568359376,-0.013351491652429104,-0.2787565290927887,-0.5767461657524109
1700516164986017800,9.875017822265624,0.03706507757306099,0.042262766510248184,-0.1582876443862915
1700516164996028700,9.885028564453124,0.07484627515077591,-0.17467433214187622,-0.2573108971118927
1700516165006038800,9.895038818359374,-0.056290701031684875,0.2567971646785736,-0.3521122336387634
1700516165016048600,9.905048583984374,-0.13223473727703094,0.04818563908338547,-0.27594316005706787
1700516165026058800,9.915058837890625,-0.009345298632979393,-0.378408819437027,-0.15126141905784607
1700516165036068600,9.925068603515625,-0.10914832353591919,0.16972458362579346,0.14520779252052307
1700516165046078700,9.93507861328125,-0.07567638158798218,0.22467945516109467,0.0734635666012764
1700516165056088600,9.945088623046875,0.07343506813049316,-0.014974155463278294,-0.14979615807533264
1700516165066098700,9.9550986328125,0.018760105594992638,-0.07784126698970795,-0.49642521142959595
1700516165076108800,9.96510888671875,-0.03815004974603653,0.14497236907482147,-0.5313712358474731
1700516165086119700,9.97511962890625,-0.004723649006336927,0.009049687534570694,-0.6422572731971741
1700516165096129500,9.985129638671875,0.11038243025541306,-0.12319490313529968,-0.5377944707870483
1700516165106139600,9.9951396484375,0.04863864183425903,0.48075464367866516,-0.40802451968193054
1700516165116149800,10.005149658203125,0.07557305693626404,0.22031213343143463,-0.28429749608039856
1700516165126159600,10.01515966796875,0.1489492654800415,-0.3441392779350281,-0.12272245436906815
1700516165136169700,10.025169677734375,0.0674954205751419,0.2651139497756958,0.1640520542860031
1700516165146179600,10.0351796875,0.06568899750709534,0.34438908100128174,0.7405470609664917
1700516165156189700,10.045189697265625,0.06454410403966904,0.2703936696052551,1.014580488204956
1700516165166199800,10.05519970703125,0.1675114929676056,0.10819917172193527,0.7654929161071777
1700516165176210700,10.065210693359376,0.20487459003925323,0.37855395674705505,0.4643714129924774
1700516165186220500,10.075220458984376,0.018487663939595222,0.35231465101242065,0.3803609311580658
1700516165196230700,10.085230712890626,0.19835595786571503,-0.6592317223548889,-0.10822793841362
1700516165206240800,10.09524072265625,0.024206802248954773,0.523468017578125,-0.37138631939888
1700516165216250600,10.105250732421876,-0.09019806981086731,-0.3971140682697296,-0.13079290091991425
1700516165226260700,10.1152607421875,0.1787915825843811,-0.5210605263710022,-0.055097874253988266
1700516165236270600,10.1252705078125,-0.04712037369608879,0.12232165038585663,-0.5735415816307068
1700516165246280700,10.13528076171875,-0.080405093729496,0.18315304815769196,-0.01836249604821205
1700516165256291600,10.14529150390625,-0.06582961231470108,0.03891810402274132,0.3251144289970398
1700516165266301700,10.1553017578125,0.014051370322704315,-0.26763731241226196,0.23463168740272522
1700516165276311600,10.1653115234375,0.12301966547966003,0.3908862769603729,0.047686830163002014
1700516165286321700,10.17532177734375,-0.18984930217266083,0.45733878016471863,0.36948803067207336
1700516165296331500,10.18533154296875,0.16636048257350922,-0.4821815490722656,0.6085464358329773
1700516165306341600,10.195341552734375,0.09549909085035324,0.3909728229045868,0.1278138905763626
1700516165316351700,10.205351806640625,-0.09175548702478409,-0.06588766723871231,0.2900347411632538
1700516165326361600,10.215361572265625,0.10425769537687302,0.2316550612449646,0.28798437118530273
1700516165336372700,10.225372802734375,0.04115808755159378,-0.03150732442736626,-0.11034408211708069
1700516165346382600,10.235382568359375,0.06078771501779556,0.263786643743515,0.039329562336206436
1700516165356392700,10.245392822265625,0.10169599950313568,0.1972571462392807,0.18824927508831024
1700516165366402600,10.255402587890625,0.16015079617500305,-0.4127154052257538,0.0832056775689125
1700516165376412700,10.26541259765625,-0.029871080070734024,0.5487267374992371,-0.04748975485563278
1700516165386422500,10.275422607421875,-0.05187118798494339,-0.29709985852241516,0.41917383670806885
1700516165396432600,10.2854326171875,0.2506950795650482,0.1446746289730072,0.3415794372558594
1700516165406442800,10.29544287109375,-0.04875475540757179,0.10079824924468994,0.0024772724136710167
1700516165416453600,10.30545361328125,-0.0774143636226654,-0.2102283388376236,0.11024901270866394
1700516165426463500,10.31546337890625,0.07794300466775894,0.4559246599674225,-0.00572952488437295
1700516165436473600,10.3254736328125,0.014260961674153805,-0.5894020199775696,-0.009229451417922974
1700516165446483700,10.335483642578126,0.0249029528349638,0.29562047123908997,-0.3435211479663849
1700516165456493600,10.34549365234375,-0.1214718371629715,-0.6386862397193909,-0.3524547219276428
1700516165466503700,10.355503662109374,0.15255118906497955,-0.020961208269000053,-0.6399708986282349
1700516165476513500,10.365513427734374,-0.004857872147113085,0.07319431751966476,-0.7702761888504028
1700516165486523600,10.375523681640624,-0.12969301640987396,0.0017614146927371621,-0.23651054501533508
1700516165496534500,10.385534423828124,-0.06496594846248627,-0.33056220412254333,-0.22685179114341736
1700516165506544600,10.395544677734375,0.06723230332136154,-0.30518653988838196,-0.27920687198638916
1700516165516554500,10.405554443359375,0.08633728325366974,0.5890869498252869,-0.3973492383956909
1700516165526564600,10.415564697265625,-0.12773266434669495,0.1392146199941635,-0.012072641402482986
1700516165536574700,10.42557470703125,0.03371668606996536,0.0819726288318634,0.3938141465187073
1700516165546584600,10.43558447265625,0.15198899805545807,0.037285320460796356,-0.0018578211311250925
1700516165556594700,10.4455947265625,-0.13844256103038788,0.7438419461250305,0.3608548641204834
1700516165566605600,10.45560546875,0.0979049950838089,0.009551160968840122,0.7179384231567383
1700516165576615700,10.46561572265625,0.002749181119725108,-0.07589822262525558,0.19109751284122467
1700516165586625500,10.47562548828125,0.10979973524808884,0.44275957345962524,0.08616045117378235
1700516165596635600,10.4856357421875,0.07544016093015671,-0.13040700554847717,0.33262643218040466
1700516165606645500,10.4956455078125,0.2618377208709717,-0.37726926803588867,0.2852080464363098
1700516165616655600,10.505655517578125,0.06384209543466568,0.3441488444805145,-0.0625603199005127
1700516165626665500,10.51566552734375,-0.023601999506354332,-0.3521907925605774,0.04176129400730133
1700516165636675600,10.525675537109375,0.17224739491939545,0.3525404632091522,-0.14092862606048584
1700516165646686500,10.5356865234375,0.004806206561625004,-0.08281072974205017,-0.43493494391441345
1700516165656696600,10.545696533203126,-0.102690689265728,0.20699100196361542,-0.02726437710225582
1700516165666706700,10.555706787109376,0.016888968646526337,0.1366446614265442,0.11914023756980896
1700516165676716500,10.565716552734376,-0.005262406077235937,-0.6227495670318604,0.028180506080389023
1700516165686726700,10.5757265625,-0.13669393956661224,0.32599541544914246,-0.4339831471443176
1700516165696736500,10.585736572265626,-0.3062390089035034,-0.19649973511695862,-0.0804666131734848
1700516165706746600,10.59574658203125,0.062364574521780014,-0.1141100600361824,0.05957624316215515
1700516165716757500,10.605757568359374,-0.11820334196090698,-0.15798057615756989,-0.09756384044885635
1700516165726767600,10.615767578125,-0.1551150232553482,0.007170294877141714,0.10813073068857193
1700516165736777500,10.625777587890624,-0.08528080582618713,0.21600154042243958,0.17598381638526917
1700516165746787600,10.63578759765625,0.06666771322488785,-0.49581003189086914,0.2232501357793808
1700516165756797400,10.64579736328125,0.02124776504933834,0.5934705138206482,0.06874071806669235
1700516165766807600,10.6558076171875,0.031730763614177704,-0.22584857046604156,0.4719925820827484
1700516165776817700,10.665817626953125,0.29678773880004883,-0.003179814200848341,0.3459978997707367
1700516165786828500,10.67582861328125,0.02297855354845524,0.5118779540061951,-0.11540142446756363
1700516165796838400,10.68583837890625,-0.05469893291592598,0.0025995115283876657,0.21954034268856049
1700516165806848500,10.6958486328125,0.060383450239896774,0.5800367593765259,0.1806587278842926
1700516165816858600,10.705858642578125,-0.012017248198390007,-0.36574894189834595,-0.10684309154748917
1700516165826868500,10.715868408203125,-0.13406193256378174,0.3097975254058838,-0.3195183277130127
1700516165836878600,10.725878662109375,-0.17088891565799713,-0.4578213691711426,-0.27350184321403503
1700516165846888400,10.735888427734375,0.0826200470328331,-0.3035489618778229,-0.28746798634529114
1700516165856899800,10.74589990234375,-0.24946574866771698,-0.290955126285553,-0.47635775804519653
1700516165866909400,10.755909423828125,-0.24567048251628876,-0.15352563560009003,-0.21969693899154663
1700516165876919600,10.76591943359375,-0.07811184227466583,-0.1954517811536789,-0.007227020338177681
1700516165886929400,10.775929443359376,-0.0793377012014389,-0.6380513310432434,-0.06710952520370483
1700516165896939300,10.785939208984376,-0.12503594160079956,0.4277563989162445,-0.11921960115432739
1700516165906949400,10.795949462890626,-0.18055087327957153,-0.028243621811270714,0.22251562774181366
1700516165916959200,10.805959228515626,0.21672432124614716,-0.2101156860589981,0.3548568785190582
1700516165926970400,10.815970458984374,-0.048224788159132004,0.5269975066184998,0.06311478465795517
1700516165936980500,10.82598046875,-0.10669821500778198,-0.010423879139125347,0.43877869844436646
1700516165946990300,10.835990234375,0.08356546610593796,0.30705368518829346,0.3792858123779297
1700516165957000200,10.846000244140624,-0.05295669287443161,-0.12731507420539856,-0.2588382065296173
1700516165967010300,10.85601025390625,-0.13237401843070984,0.3911035656929016,-0.20059221982955933
1700516165977020200,10.866020263671874,-0.0509614497423172,-0.11784354597330093,0.04326624795794487
1700516165987031600,10.876031494140625,0.03009585104882717,-0.5361925959587097,-0.19608615338802338
1700516165997041400,10.88604150390625,-0.17014190554618835,0.30248555541038513,-0.4380388557910919
1700516166007051500,10.896051513671875,-0.06054803356528282,-0.2943786382675171,-0.23477841913700104
1700516166017061400,10.906061279296875,-0.07071491330862045,-0.012991698458790779,-0.034634143114089966
1700516166027071500,10.916071533203125,0.03477156162261963,-0.4770621657371521,-0.303836852312088
1700516166037081600,10.92608154296875,-0.15687324106693268,0.2546994090080261,-0.16406111419200897
1700516166047091500,10.936091552734375,-0.20489774644374847,-0.3098966181278229,-0.20735132694244385
1700516166057102300,10.946102294921875,0.1246042475104332,-0.2907143831253052,-0.012776249088346958
1700516166067112400,10.956112548828125,-0.0438593327999115,0.1503724604845047,-0.2478710561990738
1700516166077122600,10.96612255859375,-0.25470632314682007,-0.09394007921218872,0.020360931754112244
1700516166087132400,10.97613232421875,0.011095793917775154,-0.025599369779229164,0.12149500846862793
1700516166097142500,10.986142578125,0.09222393482923508,-0.07775577902793884,-0.12842455506324768
1700516166107152400,10.99615234375,-0.1862950474023819,0.5662943124771118,0.22019149363040924
1700516166117163500,11.00616357421875,0.11855567246675491,-0.008176437579095364,0.5011885166168213
1700516166127173400,11.01617333984375,0.05573490262031555,-0.1209181621670723,0.21007627248764038
1700516166137183500,11.02618359375,-0.03424159437417984,0.6735067963600159,0.04403110593557358
1700516166147193300,11.036193359375,-0.08500117808580399,-0.21946418285369873,0.22689412534236908
1700516166157203500,11.046203369140626,0.0311009269207716,-0.1575600653886795,0.3528169095516205
1700516166167213300,11.05621337890625,-0.1038595512509346,0.11456945538520813,-0.4745928943157196
1700516166177224400,11.066224365234374,-0.3196538984775543,-0.23214668035507202,-0.21577224135398865
1700516166187234300,11.076234375,-0.0897035226225853,0.15617921948432922,-0.20743708312511444
1700516166197244400,11.086244384765624,-0.21938349306583405,-0.8224278092384338,-0.091257743537426
1700516166207254500,11.096254638671875,-0.1729949414730072,-0.06041727215051651,-0.32104727625846863
1700516166217264400,11.106264404296875,-0.1278357207775116,-0.5274406671524048,-0.41796234250068665
1700516166227274500,11.1162744140625,-0.23201192915439606,-0.4837685227394104,-0.6332888007164001
1700516166237284400,11.126284423828125,-0.03989867866039276,-0.1756698340177536,-0.5161975622177124
1700516166247295500,11.13629541015625,-0.13750939071178436,0.11301257461309433,-0.316019743680954
1700516166257305300,11.146305419921875,-0.08458199352025986,0.11910348385572433,0.553873598575592
1700516166267315500,11.1563154296875,0.1308957040309906,-0.25317633152008057,0.6334264874458313
1700516166277325300,11.1663251953125,-0.019776368513703346,0.7629942893981934,0.46744948625564575
1700516166287335400,11.17633544921875,0.034816302359104156,0.35479509830474854,0.6018072962760925
1700516166297346300,11.18634619140625,0.10179799795150757,-0.4127369821071625,0.5529673099517822
1700516166307356400,11.1963564453125,-0.04351845011115074,0.8395295739173889,-0.12714757025241852
1700516166317366300,11.2063662109375,-0.12711800634860992,-0.44391459226608276,0.40038177371025085
1700516166327376400,11.21637646484375,-0.03008360043168068,0.222977414727211,0.373516321182251
1700516166337386500,11.226386474609376,-0.12599149346351624,-0.17071154713630676,-0.37961098551750183
1700516166347396400,11.236396240234376,-0.2850245535373688,-0.06460029631853104,-0.02184724248945713
1700516166357406500,11.246406494140626,-0.2125580757856369,0.04778909310698509,-0.0787225067615509
1700516166367417300,11.256417236328126,-0.13849769532680511,-0.7517722845077515,-0.23149020969867706
1700516166377427500,11.266427490234374,-0.2860727608203888,0.14412814378738403,-0.42441973090171814
1700516166387437300,11.276437255859374,-0.1325220912694931,-0.45605701208114624,-0.037629399448633194
1700516166397447400,11.286447509765624,-0.24297749996185303,-0.025414014235138893,0.13783936202526093
1700516166407457300,11.296457275390624,-0.03319763392210007,-0.3607688546180725,-0.26065102219581604
1700516166417468400,11.306468505859375,-0.23642398416996002,0.3484514653682709,0.014504906721413136
1700516166427478300,11.316478271484375,-0.009615609422326088,-0.033312950283288956,0.1595611721277237
1700516166437488400,11.32648828125,0.06041354313492775,-0.3722188472747803,0.002039981307461858
1700516166447498200,11.336498291015625,-0.09135494381189346,0.37384018301963806,-0.09067077934741974
1700516166457508400,11.34650830078125,-0.029804235324263573,-0.30786675214767456,-0.05384805053472519
1700516166467518200,11.356518310546875,0.032180305570364,0.12813585996627808,-0.019591011106967926
1700516166477529300,11.366529296875,0.024456074461340904,0.20884855091571808,-0.23935958743095398
1700516166487539200,11.376539306640625,-0.17073099315166473,0.12218955904245377,0.1617201864719391
1700516166497549300,11.38654931640625,-0.20104309916496277,0.03659156709909439,0.01673530414700508
1700516166507559400,11.396559326171875,-0.022397451102733612,-0.2816239595413208,-0.2948249876499176
1700516166517569300,11.4065693359375,-0.17376141250133514,0.5235742926597595,-0.07043182104825974
1700516166527579400,11.416579345703125,-0.15011227130889893,-0.29870253801345825,0.11652182042598724
1700516166537590300,11.42659033203125,0.07390245050191879,-0.28457632660865784,0.07268591970205307
1700516166547600400,11.436600341796876,-0.19050656259059906,0.2381443828344345,-0.1711115539073944
1700516166557610200,11.4466103515625,-0.13942180573940277,-0.39208415150642395,0.21039532124996185
1700516166567620400,11.456620361328126,-0.2531145513057709,0.26240819692611694,0.23316188156604767
1700516166577630200,11.466630126953126,-0.0736854076385498,-0.39083433151245117,-0.2167016863822937
1700516166587640300,11.476640380859376,-0.11323148012161255,0.5314883589744568,-0.04182973876595497
1700516166597651500,11.4866513671875,-0.03755589574575424,-0.12457841634750366,0.19675087928771973
1700516166607661600,11.49666162109375,0.1395387202501297,-0.3059660494327545,0.12862588465213776
1700516166617671200,11.506671142578124,-0.08544166386127472,0.5022988319396973,-0.17652523517608643
1700516166627681300,11.516681396484374,-0.0639190599322319,-0.42040395736694336,0.0027835359796881676
1700516166637691100,11.526691162109374,-0.08057766407728195,0.38011112809181213,0.02755413018167019
1700516166647702500,11.53670263671875,-0.019779829308390617,-0.01149793155491352,-0.36982253193855286
1700516166657712400,11.54671240234375,-0.21006961166858673,0.09705065190792084,0.16386030614376068
1700516166667722500,11.556722412109375,-0.15384255349636078,0.19579213857650757,0.02743082493543625
1700516166677732400,11.566732421875,-0.0261240117251873,-0.3625233471393585,-0.13120755553245544
1700516166687742500,11.576742431640625,-0.15434908866882324,0.18951240181922913,-0.043887827545404434
1700516166697752600,11.586752685546875,-0.13209012150764465,-0.2801770567893982,0.16781562566757202
1700516166707763500,11.596763427734375,0.008319715037941933,-0.059722453355789185,0.27948808670043945
1700516166717773300,11.606773193359375,-0.14872156083583832,0.08742891252040863,-0.10203928500413895
1700516166727783400,11.616783447265625,-0.08752265572547913,-0.14522136747837067,0.06774789094924927
1700516166737793500,11.62679345703125,-0.14317792654037476,0.39674654603004456,0.2810974419116974
1700516166747803400,11.636803466796875,0.04637815058231354,-0.5299104452133179,-0.07119668275117874
1700516166757813500,11.6468134765625,-0.10290028154850006,0.3767664432525635,-0.03399871289730072
1700516166767824400,11.656824462890626,0.04091787338256836,-0.09516273438930511,-0.15719974040985107
1700516166777834500,11.66683447265625,0.08170418441295624,-0.23897182941436768,0.017478859052062035
1700516166787844400,11.67684423828125,-0.07367634773254395,0.42755451798439026,-0.18588145077228546
1700516166797854500,11.6868544921875,-0.07991187274456024,-0.36221200227737427,0.18837124109268188
1700516166807864300,11.6968642578125,-0.13927720487117767,0.42838090658187866,0.35392504930496216
1700516166817875500,11.70687548828125,-0.0307517871260643,-0.17250971496105194,-0.14424718916416168
1700516166827885300,11.71688525390625,-0.13784681260585785,0.22970031201839447,0.06849250942468643
1700516166837895400,11.7268955078125,-0.06227695569396019,0.19263043999671936,0.06714574992656708
1700516166847905300,11.7369052734375,-0.06598754227161407,-0.47543418407440186,0.13106267154216766
1700516166857915400,11.746915283203125,-0.14037814736366272,0.4125681221485138,-0.001969940261915326
1700516166867925500,11.756925537109375,-0.07636987417936325,-0.4222676157951355,0.2816638946533203
1700516166877936400,11.766936279296875,-0.11105728149414062,0.07723300158977509,0.1785833239555359
1700516166887946200,11.7769462890625,-0.02221289463341236,0.16469627618789673,-0.2438608705997467
1700516166897956600,11.78695654296875,-0.13404569029808044,-0.22318488359451294,0.20000845193862915
1700516166907966700,11.796966796875,-0.0482543483376503,0.5166125297546387,0.0759325847029686
1700516166917976600,11.8069765625,0.05410957336425781,-0.7062524557113647,-0.06961502879858017
1700516166927987500,11.816987548828125,-0.16868434846401215,0.3934516906738281,-0.3132026493549347
1700516166937997600,11.82699755859375,-0.01744823157787323,-0.3342384397983551,-0.2736637592315674
1700516166948007700,11.837007568359375,-0.013517140410840511,0.14680995047092438,-0.008569786325097084
1700516166958017500,11.847017578125,0.00595615990459919,0.29810094833374023,-0.18442922830581665
1700516166968027600,11.857027587890625,-0.22680358588695526,0.047804009169340134,0.09801098704338074
1700516166978038500,11.86703857421875,-0.05591093748807907,0.4499370753765106,0.2763924300670624
1700516166988048600,11.877048583984376,-0.10790862143039703,-0.1568434089422226,0.17716732621192932
1700516166998058500,11.88705859375,-0.08888299763202667,0.25261974334716797,0.3412761092185974
1700516167008068600,11.897068603515624,-0.12776674330234528,-0.2505432665348053,0.3916812241077423
1700516167018078500,11.907078369140624,0.044984783977270126,-0.605878472328186,0.18583618104457855
1700516167028089600,11.917089599609374,-0.10027733445167542,0.16519267857074738,-0.26959607005119324
1700516167038099500,11.927099365234374,-0.04228780046105385,-0.636657178401947,0.0763365849852562
1700516167048109600,11.937109619140625,-0.009363674558699131,0.0009741843095980585,0.23308704793453217
1700516167058119400,11.947119384765625,0.10010156780481339,0.1998571902513504,-0.16426856815814972
1700516167068129500,11.957129638671875,-0.03231612965464592,0.019297797232866287,0.1785399168729782
1700516167078139600,11.9671396484375,0.04469316825270653,0.9053083062171936,-0.09289984405040741
1700516167088150500,11.977150634765625,0.07744232565164566,-0.2689209580421448,-0.21576344966888428
1700516167098160400,11.987160400390625,-0.06765973567962646,0.5628300905227661,-0.15774542093276978
1700516167108170500,11.99717041015625,-0.12812069058418274,-0.17371240258216858,-0.09181327372789383
1700516167118180600,12.0071806640625,-0.0424683652818203,-0.14106523990631104,0.031023962423205376
1700516167128190500,12.0171904296875,-0.1680784821510315,0.023195333778858185,-0.4159218370914459
1700516167138201600,12.02720166015625,-0.21234102547168732,-0.36165380477905273,-0.009399627335369587
1700516167148211700,12.037211669921875,-0.15003104507923126,0.1341032087802887,0.086121566593647
1700516167158221800,12.047221923828126,-0.0373750701546669,-0.4197775721549988,-0.14221227169036865
1700516167168231700,12.057231689453126,-0.026129072532057762,0.18805140256881714,0.01944453828036785
1700516167178241800,12.06724169921875,0.0653236135840416,0.1695280522108078,0.1263054758310318
1700516167188252700,12.077252685546876,0.2674916386604309,-0.015596270561218262,-0.015872972086071968
1700516167198262800,12.0872626953125,0.03087615594267845,0.8836003541946411,0.007986553944647312
1700516167208272600,12.097272705078124,-0.0371931754052639,-0.04982215166091919,0.3394553065299988
1700516167218282800,12.10728271484375,0.13518232107162476,0.40618667006492615,0.34697073698043823
1700516167228292600,12.117292724609374,-0.008400674909353256,0.2851393222808838,-0.24682895839214325
