time,seconds_elapsed,z,y,x
1700516898227627500,0.06262744140625,-0.855918325677514,1.984643100274354,-0.05894610996544361
1700516898237638400,0.072638427734375,1.8606927493482828,-1.514512436660379,0.1668799035269767
1700516898247649500,0.0826494140625,0.22545418450534344,-0.5438348553154617,-0.7135683216426522
1700516898257660400,0.092660400390625,-1.0612187799483537,-0.005587444743514061,0.5462456062516198
1700516898267670300,0.102670166015625,-0.1178968961060047,1.2381966644458473,-0.18388426635246724
1700516898277681700,0.112681640625,-1.274244860035181,-0.657660775655508,-0.11028302356880157
1700516898287692500,0.122692626953125,2.671925545603037,-0.22070260606408118,0.3510550425847992
1700516898297703400,0.132703369140625,0.8293985675424337,-0.531345887555182,-0.925199659435451
1700516898307713500,0.142713623046875,-2.8412282192975282,0.6498947447638959,0.6364596552599221
1700516898317724400,0.152724365234375,0.610461217585206,1.3367322958692907,-0.18346918274555354
1700516898327735600,0.162735595703125,1.6111293749809263,-1.9675912815779446,0.1361586751140654
1700516898337746400,0.172746337890625,-0.7328495798915624,-0.0061338265798985955,-0.5584389520661905
1700516898347756300,0.18275634765625,-0.8041367005139589,0.38374643855951723,0.7326453625563532
1700516898357767700,0.192767578125,-0.38198797751963137,0.7065313356779516,-0.4685067887391895
1700516898367778600,0.202778564453125,-0.5792606081575155,-0.9432677425023168,0.5002218139624223
1700516898377789400,0.21278955078125,3.47435719576478,0.19104096970669923,-0.21608298343941568
1700516898387799600,0.222799560546875,-1.7431196783691643,-0.8622891758836805,-0.2600807497937232
1700516898397810400,0.232810546875,-1.7111352250874041,1.5888788185976446,0.3540321221668273
1700516898407821300,0.2428212890625,1.4759271238088607,0.048669338361918925,0.04174761280734092
1700516898417832700,0.252832763671875,1.1846698030501603,-1.5536615208745002,-0.19478855873718856
1700516898427843600,0.262843505859375,-1.4661194310218095,0.014837868973985313,-0.09618917789515108
1700516898437853700,0.272853759765625,-0.20244448031783102,0.8362280482362955,0.4357321349278092
1700516898447864600,0.282864501953125,-0.9235901784121989,0.24434403228387236,-0.4296411611089483
1700516898457875500,0.29287548828125,0.8208458432525396,-1.0175322715003043,0.6533132479704916
1700516898467886300,0.30288623046875,3.095417499899864,0.2520146399769932,-0.7390707924939691
1700516898477896400,0.312896484375,-2.9328496874183414,-0.7178831161018461,0.1043964132156223
1700516898487907300,0.3229072265625,-0.715276513800025,2.24641333752498,-0.059651627886295314
1700516898497918700,0.332918701171875,1.6864800917804241,-1.0699528521545232,0.21787837895620613
1700516898507929600,0.3429296875,0.7565034272015094,-0.8997388357687741,-0.5838208287451416
1700516898517939500,0.352939453125,-1.8126649237602948,0.09316212169155479,0.3858233909640461
1700516898527950600,0.36295068359375,0.08614917418956757,1.0903105805285274,-0.04651508293747902
1700516898537961500,0.37296142578125,-1.362577223482728,-0.42272265042476354,-0.2097209741268307
1700516898547972400,0.382972412109375,2.564148476973176,-0.6258072552770376,0.46090256081316616
1700516898557982500,0.392982421875,1.3698486757904291,-0.09582776070423424,-0.8929653230458497
1700516898567993300,0.402993408203125,-3.424989061483741,-0.13802359220311045,0.5272528095552698
1700516898578004500,0.41300439453125,0.4029442563086748,2.0968515754804016,-0.36191882029604167
1700516898588015600,0.423015625,2.0282395192861555,-1.9552587464883922,0.2406211758358404
1700516898598026500,0.433026611328125,-0.3220674695640802,-0.1311933808568865,-0.6480655565753579
1700516898608036600,0.44303662109375,-1.7500480163276195,0.04102547254525125,0.6199317143071442
1700516898618047500,0.453047607421875,0.42475393705666065,1.0122799769952893,-0.29906156476885076
1700516898628058400,0.463058349609375,-1.0622411087334156,-0.8627535785250365,0.12116773447021842
1700516898638069500,0.473069580078125,3.3488182604730126,0.009499942012131214,0.0938940526952967
1700516898648079400,0.483079345703125,-0.7879144645094871,-0.4980529820233583,-0.5920727434575558
1700516898658090200,0.49309033203125,-2.379948678398132,0.6917343832362443,0.5122422874281183
1700516898668101000,0.50310107421875,1.2322183206886053,1.2484282817333936,-0.31627069291882215
1700516898678112000,0.513112060546875,1.8029770579606295,-1.8777452986970542,0.25674890195727346
1700516898688122000,0.5231220703125,-1.326028823286295,0.12072203652933239,-0.5569614268595352
1700516898698133200,0.53313330078125,-0.9728028298705815,0.23098083897233007,0.7565399598196149
1700516898708144000,0.54314404296875,0.19922960992455482,0.819490556186065,-0.45458040858693416
1700516898718155300,0.5531552734375,-0.5838052658498287,-1.0950153972186147,0.39343879787120967
1700516898728165000,0.5631650390625,3.3189357479065653,0.2818241603724658,-0.06784421362690628
1700516898738176000,0.573176025390625,-1.753948530897498,-0.8301381338633597,-0.2925929532766342
1700516898748187100,0.583187255859375,-1.8786866712003945,1.3692843199059366,0.3746215038722381
1700516898758198000,0.593197998046875,1.4552712892711162,0.42202297772280867,-0.07111614796966313
1700516898768209200,0.603209228515625,1.4370172551780938,-1.7850205455094574,-0.059388191177137194
1700516898778219300,0.61321923828125,-1.5046353318989276,0.18230660523958503,-0.314865283100307
1700516898788230100,0.623230224609375,-0.5853904892146587,0.4154001985821873,0.5380108618697151
1700516898798241000,0.633240966796875,-0.4955407069414854,0.4381692989468574,-0.5299418659761548
1700516898808252200,0.643252197265625,0.2894090625435114,-0.8844482545912266,0.5046893512979149
1700516898818262000,0.653261962890625,3.338021556648612,0.05785027755275368,-0.47205417902246116
1700516898828273200,0.663273193359375,-2.4371494060009717,-0.691413699914515,-0.13678396740555762
1700516898838284000,0.673283935546875,-1.3413976573318243,1.8519196603059767,0.18843845905810594
1700516898848295200,0.683295166015625,1.7597019798576832,-0.31838995009511706,-0.031227533967234194
1700516898858305300,0.69330517578125,1.0246551821827887,-1.382816001652181,-0.26350159108787774
1700516898868316200,0.703316162109375,-1.5644915424466133,0.08272394898124039,-0.0948257075222209
1700516898878327000,0.7133271484375,-0.19445640417337418,0.7857083327673375,0.34619171086475253
1700516898888338200,0.723338134765625,-0.9151987821638584,0.004941840316355228,-0.47490514800678935
1700516898898348000,0.73334814453125,1.1776567094177006,-0.6148950353141873,0.47591377706006166
1700516898908359200,0.743359130859375,2.748472194188833,0.05985884089618921,-0.6207138776607811
1700516898918370000,0.7533701171875,-3.224962748223543,-0.5075577463410794,0.2217948948128149
1700516898928381200,0.763381103515625,-0.41016894686520095,2.078534413023293,-0.03965177303925156
1700516898938392000,0.77339208984375,2.069942233505845,-0.970345792107284,0.1367519282994792
1700516898948402200,0.783402099609375,0.3033195144742727,-0.9340916986823081,-0.4226799072615802
1700516898958413000,0.7934130859375,-1.865675798457861,0.027202845028415322,0.3922518896415829
1700516898968424200,0.803424072265625,0.2829115172177553,1.0433697464596479,0.007952712570130825
1700516898978435000,0.81343505859375,-1.321237497356534,-0.396578155342862,-0.15567092910725622
1700516898988445000,0.82344482421875,2.505586982411146,-0.4980628458302468,0.368283386891894
1700516898998456000,0.8334560546875,1.232045302209258,-0.20817812859900295,-0.6108114557949825
1700516899008467200,0.84346728515625,-3.4113486586660144,-0.07446589678898453,0.5072895603915676
1700516899018478000,0.85347802734375,0.6552426085978746,1.8426964894086122,-0.25110760813467203
1700516899028488200,0.86348828125,1.9611001659929752,-1.6212397039763629,0.286157403803803
1700516899038499000,0.8734990234375,-0.5523018740832806,-0.38545390006452795,-0.5839260426852851
1700516899048510000,0.883510009765625,-1.7199416318774223,0.02763327233493328,0.6301916078411043
1700516899058521000,0.89352099609375,0.5241787724047899,1.0570181133881211,-0.25644823851026594
1700516899068531000,0.903531005859375,-1.0630091704964637,-0.9623521630048751,0.0730958505447954
1700516899078542300,0.913542236328125,3.0663445501506326,0.060490635993704196,0.12235325446035712
1700516899088553200,0.92355322265625,-0.2992138327211141,-0.5169786317676306,-0.529268204498291
1700516899098564000,0.933564208984375,-2.654109902927279,0.5182454368330538,0.4316925772134214
1700516899108575200,0.9435751953125,1.0631272439181805,1.3219018064841628,-0.26886534661073236
1700516899118585000,0.953585205078125,2.084020443218946,-1.7398989627569912,0.15959266912825404
1700516899128596000,0.963595947265625,-1.1351192979395388,-0.07867971509173512,-0.5375854760644957
1700516899138607000,0.973607177734375,-1.3052233511447906,0.1468324832111597,0.6176452108051628
1700516899148618200,0.9836181640625,0.3960819693237543,0.916885054750368,-0.43426089333146806
1700516899158628400,0.99362841796875,-0.7335352240681647,-0.8993923604186623,0.20810272527523338
1700516899168639200,1.00363916015625,3.46363355717659,0.30923955217301846,-0.1003566363055259
1700516899178650000,1.013650146484375,-1.6355319948315619,-0.681946052736789,-0.3512792797947302
1700516899188661000,1.023660888671875,-2.0627520297408104,0.9869607537563889,0.35797563562821594
1700516899198672100,1.033672119140625,1.6921768421173096,0.8362057633392512,-0.14261713053844868
1700516899208682000,1.043681884765625,1.6110487109601497,-1.7611366888359188,0.0885777895759791
1700516899218693000,1.053693115234375,-1.822683628949523,0.08114617827050387,-0.2690161532582715
1700516899228704300,1.063704345703125,-0.6267267082095146,0.4002141737576574,0.4212923984259367
1700516899238715100,1.073715087890625,-0.045991351324319835,0.5532781717695295,-0.36505737405009564
1700516899248725200,1.083725341796875,-0.3856985224753618,-0.7599407081738114,0.3326147286720574
1700516899258736000,1.093736083984375,3.4019881251245736,0.31182138535976406,-0.211289319422096
1700516899268747000,1.1037470703125,-2.4733318954944608,-0.8109597514670341,-0.1583872023286298
1700516899278758100,1.113758056640625,-1.0654448732107877,1.355512399663031,0.1254921735405922
1700516899288768000,1.12376806640625,1.7692741103231906,0.31947650322280824,0.06114785779342055
1700516899298779100,1.133779052734375,1.091414596247673,-1.7044360197097062,-0.06683832451999187
1700516899308790300,1.143790283203125,-2.0024071588933468,0.10949315183274447,-0.09045370298307388
1700516899318801200,1.15380126953125,-0.04214519729018211,0.5780254403393715,0.3064342854939401
1700516899328811300,1.163811279296875,-0.47630116894245145,-0.006698986181989312,-0.16075466211233286
1700516899338822100,1.173822265625,0.2512339379280805,-0.5204436775296927,0.325797194144316
1700516899348833000,1.1838330078125,3.2210417753875253,0.10028875870108604,-0.2462622869953513
1700516899358844200,1.19384423828125,-2.938872600969672,-0.8585209824565797,-0.010596358946710824
1700516899368855300,1.203855224609375,-0.7513491131782531,1.716773523235321,0.15481964604016393
1700516899378865000,1.213864990234375,1.9104899226963519,-0.26418950028680266,0.10236910863909869
1700516899388876300,1.223876220703125,0.8490425946891307,-1.54353044135198,-0.13061970915477722
1700516899398887200,1.23388720703125,-1.9615975941210984,0.1990850138220936,-0.13766652239374816
1700516899408898000,1.24389794921875,-0.22101474075317382,0.7503151670206337,0.21847652751244603
1700516899418908200,1.253908203125,-0.7094564293444157,-0.1137315200548619,-0.30566034197937697
1700516899428919000,1.2639189453125,1.225129823732376,-0.514390953361988,0.2635991331782192
1700516899438930000,1.273929931640625,2.6826345711439847,-0.024606544924899935,-0.4699260444199666
1700516899448941300,1.28394140625,-3.0989585335075853,-0.4362552820190787,0.03640935705192387
1700516899458952200,1.2939521484375,-0.617475480261445,1.9843249742358922,-0.09142375359162688
1700516899468962300,1.30396240234375,1.8641934509456157,-0.7978737676616757,0.16913385646622628
1700516899478973200,1.31397314453125,0.7947925335854291,-1.1645873844861983,-0.40185434218011795
1700516899488984000,1.323984130859375,-1.7464526221841572,0.2918945957489312,0.0163384827952832
1700516899498995000,1.333994873046875,-0.6876514247715473,0.8082472776379436,0.13555416988227514
1700516899509005000,1.344005126953125,-0.6639940703302621,-0.19756781419217587,-0.16829039137940852
1700516899519016000,1.354015869140625,1.7825702297478914,-0.49434755163416266,0.15047164343111216
1700516899529027300,1.36402734375,2.208922834172845,-0.17512853030376135,-0.584676641856879
1700516899539038200,1.3740380859375,-2.7241215967863797,-0.4772952945463359,0.21954408367872236
1700516899549049000,1.384049072265625,-1.1877817975908518,2.3243989328727124,-0.07706091825086624
1700516899559059200,1.39405908203125,1.9326690212786197,-1.5758505563288927,0.16941022572219372
1700516899569070000,1.404070068359375,0.8066600815117358,-1.319543845181167,-0.27697701260223984
1700516899579081000,1.4140810546875,-0.449181106826663,0.3464048421587795,-0.2175433383155614
1700516899589092000,1.424092041015625,-1.7357570406466722,0.9873435425288974,0.6048129825651646
1700516899599102000,1.43410205078125,-0.7461527135789394,0.14641440392956137,-0.37422432124819605
1700516899609113300,1.44411328125,3.1092420271128414,-0.9165868755213916,0.025084976091608403
1700516899619124200,1.454124267578125,-0.4664128121346235,0.20099903074987233,0.2896084210405126
1700516899629135000,1.464135009765625,-1.5702800627201794,-0.46590858893953263,-0.3533725622795522
1700516899639145200,1.474145263671875,0.5189817882835864,2.090783069221675,-0.35007246128823605
1700516899649156000,1.484156005859375,2.633320797398686,-1.3601122946739197,0.8559602651230991
1700516899659167200,1.494167236328125,-2.171210066372156,-1.0116614067055285,-0.3774550833303481
1700516899669178400,1.504178466796875,-0.6743763481348752,1.0385635882869362,-0.5235061703728512
1700516899679189500,1.514189453125,-0.5745277344167232,0.768877974801883,0.4256047451997176
1700516899689199400,1.524199462890625,0.3307692469358444,-0.7573071447998285,-0.02690554258227348
1700516899699210500,1.53421044921875,3.322746830627322,-0.6434989062469453,-0.212015734000504
1700516899709221400,1.544221435546875,-1.6303122143566608,0.2862332089863717,-0.0686889208227396
1700516899719232300,1.554232177734375,-1.9735668488562106,-0.16065671816319227,-0.19350377962365745
1700516899729242400,1.564242431640625,1.4555799168288708,2.113832667028159,-0.30184008957147596
1700516899739253200,1.574253173828125,2.173185165837407,-1.8726916685692965,0.7468967368792742
1700516899749264400,1.584264404296875,-2.878832850548625,-0.7663806780934334,-0.5884130153736099
1700516899759275500,1.594275634765625,-0.2484428459048271,0.849254410808906,-0.09775061852559447
1700516899769286400,1.604286376953125,-0.4873328505665064,0.5158194517951459,0.34680271890256553
1700516899779296500,1.614296630859375,1.2074760936200617,-1.094222858601436,-0.30227325682435185
1700516899789307400,1.624307373046875,1.4464000005513429,-0.05120251010134816,0.32777751777395603
1700516899799318300,1.634318359375,-1.794275280588865,-0.12876220818720757,-0.13556611604839564
1700516899809329200,1.6443291015625,1.1298831508517264,-0.25954656985178587,-0.5076102071806788
1700516899819339300,1.65433935546875,-0.8063304111659526,2.0312500992789864,0.7374393918998539
1700516899829350400,1.664350341796875,0.906491744095087,-2.148559550885856,0.3714447004670277
1700516899839361500,1.674361572265625,0.3543365850061178,-0.3979825422480702,-1.0691606057982892
1700516899849372400,1.684372314453125,-0.8701566943883895,0.2987424158170819,1.2975624611280858
1700516899859383300,1.69438330078125,-0.3617518296986818,0.6439566599518061,-0.29989096479769795
1700516899869393400,1.704393310546875,-0.8507096511185168,-0.4035640687074512,0.04102463229503482
1700516899879404300,1.714404296875,2.293681430786848,-0.05246222783885896,0.8123451414108276
1700516899889415200,1.724415283203125,1.230292321062088,-0.7661934849582612,-1.2131924254402517
1700516899899426600,1.734426513671875,-2.872680173137784,0.9593536387760192,0.7695414802119135
1700516899909436400,1.7444365234375,0.4440302999347448,1.6127365179166198,0.11521934745982289
1700516899919447300,1.754447265625,1.0984481481462716,-2.220611810661852,-0.16935999337229876
1700516899929458400,1.76445849609375,-0.4424532598763704,0.25052578965872524,-0.4657498181812465
1700516899939469300,1.77446923828125,-0.3257628169506788,0.2891710890691727,0.5551562406010926
1700516899949480200,1.784480224609375,-1.218242402306199,0.6728829677719622,-0.5882972435068339
1700516899959490300,1.794490234375,-0.38255554827451704,-0.44680531760603187,0.40115919952280815
1700516899969501200,1.804501220703125,3.436822122618556,-0.07935301124341786,-0.20103980115167797
1700516899979512600,1.8145126953125,-0.6766214967131614,-0.5007272427339107,-0.8112385684084147
1700516899989523500,1.8245234375,-2.609751121240854,1.2722984021425245,0.7014785823330283
1700516899999533300,1.834533203125,1.4917863717198372,0.40304435568228364,-0.29051428383905437
1700516900009544400,1.84454443359375,1.054515482917428,-1.5805603414550422,-0.2802767117347568
1700516900019555300,1.854555419921875,-1.0113315902292728,0.09311682124510406,-0.16797675885297356
1700516900029566200,1.864566162109375,-0.4505523951798677,0.5106598770748824,0.3147138919308781
1700516900039577600,1.87457763671875,-1.058288571715355,0.10969451962374151,-0.4788945099039003
1700516900049587500,1.88458740234375,0.9724316584706306,-0.6721246967505663,0.5596741564169526
1700516900059598300,1.894598388671875,3.030086657333374,-0.06495565257854759,-0.6866703047797084
1700516900069609500,1.904609375,-2.709177125632763,-0.42480267156921325,0.022021496867761014
1700516900079620400,1.914620361328125,-1.039582117679715,1.7071945246376097,0.3536042156109586
1700516900089631200,1.92463134765625,1.83798232036829,-0.7442275907352567,-0.07916899644602089
1700516900099641300,1.934641357421875,0.46798634506165976,-1.1044330677747727,-0.4919973352462053
1700516900109652200,1.94465234375,-1.4314584520071745,0.0658968058861792,0.385261555830203
1700516900119663400,1.954663330078125,-0.24825696794390678,0.8454371175430715,0.18525358194429425
1700516900129674500,1.964674560546875,-1.0601111109673975,-0.30380832090452314,-0.41899497167114164
1700516900139684400,1.974684326171875,2.4396640191704035,-0.4187461480092257,0.6921253553152084
1700516900149695500,1.984695556640625,1.3840665862351655,-0.11291918075866997,-1.12520434538573
1700516900159706400,1.994706298828125,-3.1899346894621847,0.31590894693434235,0.8327188710715622
1700516900169717200,2.00471728515625,0.3936936128824949,1.4631573663458228,-0.1604934904254973
1700516900179728400,2.014728271484375,1.9304817403674124,-1.6298881437256931,0.020514416773058472
1700516900189738200,2.02473828125,-0.3494651795774698,-0.16991832137480378,-0.6152843999579548
1700516900199749400,2.034749267578125,-1.2162772397130728,0.3979004169225693,0.648595498733595
1700516900209760500,2.044760498046875,-0.4618710770517587,0.6626107992783189,-0.36247634458094835
1700516900219771400,2.054771484375,-0.20579963596463202,-0.7811318186320364,0.1809568345984444
1700516900229781500,2.064781494140625,3.355766472175717,-0.16213037091232835,-0.09175788091681897
1700516900239792400,2.07479248046875,-1.25982996571362,-0.1633892118670046,-0.583908653159067
1700516900249803300,2.08480322265625,-2.3344348814576863,1.2490157262325285,0.771621428291127
1700516900259814100,2.094814208984375,1.5416946042269468,0.031642946367710825,-0.28316213097795845
1700516900269825500,2.104825439453125,1.2212509364724158,-1.4744669881284236,-0.22196710957456378
1700516900279835400,2.11483544921875,-1.2682558487534523,0.04261749097704887,-0.016115305031277238
1700516900289846500,2.124846435546875,-0.5790478421896695,0.8926384291790426,0.47902679451406
1700516900299857400,2.134857421875,-1.0018407083064318,-0.057126931714266534,-0.5305999280260876
1700516900309868300,2.144868408203125,1.859476359295845,-0.8561573951303958,0.6635062868133187
1700516900319879200,2.154879150390625,1.9791893649131058,0.026208865555003284,-1.011894557874277
1700516900329889300,2.16488916015625,-2.8601538690418002,0.062084700252115724,0.573263011710532
1700516900339900200,2.174900146484375,-0.369750427237153,1.5149971514374017,0.040578532495349644
1700516900349911600,2.18491162109375,1.9068787464618682,-1.4808359386384486,-0.018682853964343667
1700516900359922400,2.19492236328125,0.21004209583997724,-0.3698705464854836,-0.6612785277612507
1700516900369933300,2.204933349609375,-1.4299977318048476,0.24610651191174981,0.6582366758473217
1700516900379943400,2.214943359375,-0.44268999124169345,0.8539470986697822,-0.16273845634069292
1700516900389954300,2.224954345703125,-0.4706739767104387,-0.8614502408415079,0.12656323683820664
1700516900399965200,2.234965087890625,3.2601059577971694,-0.18951397933512926,0.037157106679305434
1700516900409976600,2.2449765625,-0.651280719229579,-0.20388539984114468,-0.7123067772742361
1700516900419986400,2.254986328125,-2.6094594448179005,1.0117913897607476,0.8028492910519242
1700516900429997600,2.26499755859375,1.1141858155041933,0.5825881451450288,-0.33021256290115414
1700516900440008400,2.275008544921875,1.788568593379855,-1.6781386721536515,-0.013547135043703019
1700516900450019300,2.285019287109375,-1.196022387191653,0.04215812983699143,-0.23571860808394848
1700516900460030200,2.2950302734375,-0.855789730861783,0.8203234998788684,0.6240341081246733
1700516900470040300,2.305040283203125,-0.8613029413253068,0.35701771384887393,-0.5837494805419817
1700516900480051200,2.31505126953125,1.2076672322779893,-1.0044739063542336,0.6559646392621099
1700516900490062600,2.3250625,2.504781511247158,0.2059372908696532,-0.7873121147021651
1700516900500073500,2.335073486328125,-2.6697587229579685,-0.33072241211943326,0.3150617555204779
1700516900510084400,2.34508447265625,-1.049416698473692,1.743374968304485,0.12039682316295802
1700516900520094500,2.355094482421875,1.9744021306365727,-0.9424923011504113,-0.0017898790914565323
1700516900530105300,2.365105224609375,0.9081342506051063,-0.8061545431423932,-0.5280069523908197
1700516900540116200,2.3751162109375,-1.97668235052824,0.030401787200197577,0.44321828943211583
1700516900550127400,2.38512744140625,-0.18843115253448486,0.975121189815551,0.062109834693372244
1700516900560137200,2.39513720703125,-0.7474006678134203,-0.3969003730345517,-0.36964386159013957
1700516900570148400,2.4051484375,2.572192082697153,-0.5115935046631842,0.49765207307226955
1700516900580159500,2.415159423828125,0.8145856138139963,0.06953245897479354,-0.9901626185376197
1700516900590170400,2.42517041015625,-3.0805712284237146,-0.1614644543495029,0.7976103674851357
1700516900600181200,2.43518115234375,0.25244857441484925,1.7150987218908964,-0.3911990926530212
1700516900610191400,2.44519140625,2.2915759829401967,-1.7062701032690704,0.1977281193204224
1700516900620202200,2.4552021484375,-0.14229542430341244,-0.12837503550052642,-0.6910590412579476
1700516900630213400,2.46521337890625,-1.9139760112464428,-0.04425765939950943,0.8128884545072913
1700516900640224500,2.475224609375,-0.030645898154377935,1.0551595529746263,-0.49486404978893694
1700516900650235400,2.4852353515625,-0.47387598762214184,-0.8378902823600918,0.13196363457702098
1700516900660246000,2.49524609375,3.2812884465575216,0.03617189503423869,0.14165058706123382
1700516900670257000,2.5052568359375,-0.6566817014902829,-0.36664785811193285,-0.7947134039346129
1700516900680267800,2.515267822265625,-3.0110920340061185,0.4684440257012844,0.8478323421165347
1700516900690278700,2.525278564453125,1.280733053010702,1.3361711548551916,-0.4520799700733274
1700516900700289800,2.535289794921875,1.9621049591213464,-1.8811368408314884,0.16938067083414643
1700516900710299600,2.545299560546875,-0.896277224072814,0.208074522094056,-0.48796749520823357
1700516900720310800,2.555310791015625,-1.5228215614527463,-0.050808250086754554,0.7834840808466076
1700516900730322000,2.565322021484375,0.03833703717887401,0.9058288232069462,-0.6168395935107022
1700516900740332800,2.575332763671875,-0.21211071880757806,-0.970246642581746,0.44902014411129054
1700516900750343700,2.58534375,3.5970898414641614,0.4212817309014499,-0.22957415051218122
1700516900760353800,2.595353759765625,-1.830799715387821,-0.7600657958582043,-0.35414245067350564
1700516900770364700,2.60536474609375,-2.2883277947992084,1.0403776519715786,0.6030099882638081
1700516900780375800,2.615375732421875,1.6923171273708342,0.7709640603609382,-0.33166447874251753
1700516900790386700,2.62538671875,1.7266472669959068,-1.7261138907715676,0.030338878031820057
1700516900800397800,2.635397705078125,-1.3852543347150086,0.18267894568331539,-0.28090149256959557
1700516900810408000,2.645407958984375,-1.1409370443075895,0.1461323721177876,0.6449732165832072
1700516900820418800,2.655418701171875,-0.11947627425193785,0.5554606303751468,-0.6146623225368559
1700516900830429700,2.6654296875,0.13830781597197056,-0.7694414539035409,0.4840164560275152
1700516900840440800,2.67544091796875,3.6906817328751087,0.3086835257254541,-0.3934356195334345
1700516900850450700,2.68545068359375,-2.699545373934507,-0.7497833251662552,-0.20960114713944494
1700516900860461800,2.6954619140625,-1.6949778710126875,1.3655164918050169,0.5276861960038542
1700516900870472700,2.70547265625,1.9658838931381701,0.34190862671807404,-0.32036026378739624
1700516900880483800,2.71548388671875,1.3349866212457417,-1.6209478814229368,-0.06780384508389979
1700516900890494700,2.72549462890625,-1.73598500418365,0.1850608723837882,-0.07634721702355891
1700516900900504800,2.7355048828125,-0.7076075866073369,0.4235777328841388,0.41595564050786193
1700516900910515700,2.745515625,-0.3414870403051376,0.19593692505471408,-0.5379892710924148
1700516900920526800,2.75552685546875,0.6802081230282783,-0.6685107440371066,0.5385669979151338
1700516900930537700,2.765537841796875,3.3953339279323815,0.24411796844303607,-0.5732468277607112
1700516900940548900,2.775548828125,-3.321474910995364,-0.6576310381043702,0.07245141516141593
1700516900950559000,2.78555908203125,-1.002304234164953,1.686622568991035,0.28519093339182433
1700516900960569900,2.79556982421875,2.0608307062894107,-0.2911732957370579,-0.19862141489833593
1700516900970580700,2.805580810546875,1.1025760417312382,-1.3053051842093466,-0.25530820162966844
1700516900980591900,2.815591796875,-2.154108124923706,0.10531126303821801,0.19702771596610544
1700516900990602800,2.825602783203125,-0.26444763976633545,0.7481002674501389,0.17930066488925367
1700516901000612600,2.835612548828125,-0.5940314763098955,-0.1245498511891812,-0.49786743285600094
1700516901010623700,2.845623779296875,1.5244085383832453,-0.5483383772797882,0.6297407953336834
1700516901020635000,2.855634765625,2.4653432348281146,0.21827691328711807,-0.8457559742338955
1700516901030645800,2.865645751953125,-3.592463935229182,-0.5397911328826099,0.48657954798117276
1700516901040657000,2.875656982421875,-0.26933190467655654,1.9210317749768495,-0.0688084190165624
1700516901050666800,2.885666748046875,2.1414397820085287,-0.9420432422086596,0.016134046264365313
1700516901060678000,2.895677978515625,0.7347977913498878,-0.7790668489262461,-0.5025226017180829
1700516901070688800,2.905688720703125,-2.4419354712337253,-0.01626512529812753,0.5347418501364067
1700516901080699600,2.91569970703125,0.14385434418320656,0.9620843058489262,-0.08867237252425401
1700516901090710800,2.925710693359375,-0.7296095750570297,-0.46065819413065906,-0.30020006727948784
1700516901100721000,2.935720947265625,2.3203876514047383,-0.31962431419566273,0.5310475621957331
1700516901110731800,2.945731689453125,1.4572095638573168,0.03556589196510613,-0.9480957471806556
1700516901120743000,2.955742919921875,-3.780443836864829,-0.32083748937770723,0.7398036368131637
1700516901130753800,2.96575390625,0.444457000914216,1.9267966221138835,-0.3376929817844182
1700516901140764700,2.9757646484375,2.266335158699751,-1.474240778157115,0.1889634693128988
1700516901150774800,2.98577490234375,0.07160977670550346,-0.33205293007083236,-0.6397629345890135
1700516901160785700,2.99578564453125,-2.358863220271468,-0.08946728576160967,0.7589413218729197
1700516901170796800,3.005796875,0.3549064938485622,1.0103240206219255,-0.34302590377759185
1700516901180808000,3.015807861328125,-0.7541174088478088,-0.6614376638457179,-0.06948832757212221
1700516901190818800,3.02581884765625,3.1004917344242333,-0.054631753897666925,0.37612664773818105
1700516901200828700,3.03582861328125,0.33560032035410403,-0.23056677827872335,-0.9368664240926503
1700516901210839800,3.04583984375,-3.6767835559040307,0.06212145206592977,0.8826312682971358
1700516901220850700,3.0558505859375,1.3025520861089228,1.7547407041884957,-0.47341366734001783
1700516901230861800,3.06586181640625,2.0144202527701855,-1.8110015205927192,0.18301197702996433
1700516901240873000,3.075873046875,-0.6597112784445286,-0.02756217986010015,-0.5964121609013527
1700516901250882800,3.0858828125,-1.9048171377569436,-0.01638049530610442,0.7845574822317808
1700516901260893700,3.095893798828125,0.3052460986226797,0.851234405644983,-0.4936992803258821
1700516901270904800,3.10590478515625,-0.5986988835990429,-0.8033628665972501,0.17046744315754622
1700516901280915700,3.115915771484375,3.674807287395,0.1377039317946881,0.05437266457006335
1700516901290926600,3.125926513671875,-1.241584699448943,-0.4618236577134579,-0.7038243417415767
1700516901300936700,3.135936767578125,-2.914689176827669,0.6649997402414679,0.8784703492254018
1700516901310947800,3.14594775390625,1.8381950863361358,1.0981397397842259,-0.49655868834499267
1700516901320959000,3.155958984375,1.7347995937913656,-1.8732691761963067,0.12467439088430254
1700516901330969900,3.165969970703125,-1.4247078087031841,0.14053623261116444,-0.39141938434019685
1700516901340980700,3.175980712890625,-1.2354910587489605,0.3427721116796136,0.7215145314067601
1700516901350990800,3.185990966796875,0.04667524193525314,0.5103502266038209,-0.6340243909370153
1700516901361001700,3.196001708984375,0.17701660907268524,-0.8981928484357893,0.5191810371827333
1700516901371012600,3.2060126953125,3.586272094851732,0.33416546524539587,-0.4303367056250572
1700516901381024000,3.21602392578125,-2.79542040784657,-0.5819646794844419,-0.109870752973482
1700516901391035000,3.226034912109375,-1.557423503756523,1.51325615298897,0.4557309303289279
1700516901401044700,3.236044677734375,2.1079688895612954,-0.06954108067266643,-0.26424513946417716
1700516901411055900,3.246055908203125,1.289155428919196,-1.3845853494122624,-0.18408384404517708
1700516901421066800,3.256066650390625,-2.133922830507159,0.08294606729932129,0.0707945513324812
1700516901431077600,3.26607763671875,-0.49904900732338425,0.8639107857361435,0.3729332219917327
1700516901441088800,3.2760888671875,-0.42670156399309633,-0.055329892229661344,-0.6182119778424501
1700516901451098600,3.2860986328125,1.5809148539811373,-0.701098643104732,0.6975087288539856
1700516901461109800,3.29610986328125,2.380816693404317,0.20293752453178165,-0.9419347403328865
1700516901471121000,3.306120849609375,-3.725321084579825,-0.36671047501936554,0.5784661698441952
1700516901481131800,3.3161318359375,-0.14554478148818015,1.8478790066130457,-0.1223638854522258
1700516901491142700,3.326142578125,2.3310715425044295,-1.2075381260056048,0.016452099237591028
1700516901501152800,3.33615283203125,0.3645195408463478,-0.6555437835015356,-0.5394219342440366
1700516901511163600,3.34616357421875,-2.368829903012514,0.008681830562278628,0.5711028745345771
1700516901521174800,3.3561748046875,0.15966507677733896,1.0530936334207652,-0.11519249598551541
1700516901531186000,3.36618603515625,-0.6661041943520307,-0.6877787774782628,-0.2572014680303633
1700516901541196800,3.37619677734375,3.0751410200685263,-0.20311478079482911,0.4234109980151057
1700516901551207000,3.38620703125,0.07892273006737231,-0.13746186666712165,-0.9272487009197473
1700516901561217800,3.3962177734375,-3.4098639730662104,0.3648151627920568,0.9029057023018598
1700516901571228700,3.406228759765625,1.1174790118306874,1.3612968282833695,-0.4614018521048128
1700516901581239800,3.41623974609375,2.2673054650366304,-1.7568597421690821,0.1320844844777137
1700516901591251000,3.4262509765625,-0.9167857590943574,-0.04092025860510766,-0.5020546188801527
1700516901601261800,3.43626171875,-1.7798095328629016,0.28613924709260463,0.785193149786815
1700516901611272000,3.44627197265625,0.12697510557472705,0.8076246156949549,-0.5673718713127076
1700516901621282800,3.45628271484375,-0.024804770910739897,-1.0402540255919097,0.3463815343484282
1700516901631293700,3.466293701171875,3.617840953069925,0.21947284507341683,-0.24567268707174805
1700516901641304800,3.476304931640625,-2.2949188636273146,-0.46434272786229847,-0.32036936040930447
1700516901651315700,3.486315673828125,-1.9733926613330839,1.2664169428884982,0.5618277907868847
1700516901661325300,3.4963251953125,1.8672639444321393,0.1733777411136776,-0.3420356871638447
1700516901671336200,3.506336181640625,1.7217630020856856,-1.524332842798531,-0.11606303174234926
1700516901681347000,3.51634716796875,-2.0281109244704245,0.08100538156032562,-0.03834025204926729
1700516901691358200,3.526358154296875,-0.7681950340390205,0.7529102250151336,0.4919834893839434
1700516901701369300,3.536369384765625,-0.37466508728563785,0.18828319543115793,-0.6557945433922112
1700516901711379200,3.546379150390625,1.3364900115460157,-0.890871784832701,0.6738176182735711
1700516901721390300,3.556390380859375,2.549119250145554,0.3362349649958312,-0.8719570948738604
1700516901731401200,3.566401123046875,-3.534482870903611,-0.5094342077374459,0.5231441686600447
1700516901741412000,3.576412109375,-0.50258185762465,1.898960228422284,-0.11107797333877532
1700516901751423200,3.58642333984375,2.239188208577037,-1.1086921134587377,0.031281675307266416
1700516901761433300,3.596433349609375,0.9173457310646772,-0.7024206124234944,-0.5542179368376732
1700516901771444200,3.6064443359375,-2.3955431378930805,-0.06071984163969755,0.47419144677948205
1700516901781455400,3.616455322265625,-0.09504325926303862,1.043365581741184,0.0005845949549227953
1700516901791466200,3.62646630859375,-0.5332827008366584,-0.4386828014269471,-0.3637290480557829
1700516901801477000,3.63647705078125,2.54489374140501,-0.39742819630093873,0.48352454432472586
1700516901811487200,3.6464873046875,0.9318483036696911,0.055882996067777274,-1.004702819739282
1700516901821498000,3.656498046875,-3.4461049147486684,-0.17174546373672783,0.8423057607147842
1700516901831509200,3.66650927734375,0.4867869071215391,1.8737739108480511,-0.5264700616797432
1700516901841520400,3.676520263671875,2.1922610377073286,-1.7959025895297527,0.37530722111407666
1700516901851531300,3.68653125,0.039890696361660954,-0.12007708968929946,-0.7954020437858998
1700516901861541400,3.696541259765625,-2.0664275033831596,-0.1216382015261799,0.8610058580748736
1700516901871552300,3.70655224609375,-0.1435042155712843,1.0491161080919205,-0.37831619367171077
1700516901881563100,3.716563232421875,-0.38645138666927814,-0.7729810262065381,0.05844857223946601
1700516901891574300,3.72657421875,3.1264637955486774,0.048051571789756414,0.2561740977440029
1700516901901585400,3.73658544921875,-0.30702538325488565,-0.41707098133862014,-0.7514680633828044
1700516901911595300,3.74659521484375,-3.2967326839268205,0.5385083995956927,0.8572741972658783
1700516901921606400,3.7566064453125,1.201427461105585,1.5246002615630625,-0.34045780685525384
1700516901931617300,3.7666171875,1.8780138865053653,-2.130190365980565,0.24641948685105888
1700516901941628200,3.776628173828125,-0.2930254994750023,0.25138547522798177,-0.6631605421155691
1700516901951639300,3.786639404296875,-1.7981424774110317,0.08712196474447846,0.8531271605890244
1700516901961649200,3.796649169921875,-0.40019349629580975,0.8985929536692797,-0.48589616882689296
1700516901971660000,3.806659912109375,0.07660685434043407,-0.7447978649038821,0.26967962213568386
1700516901981671400,3.81667138671875,3.483237836834788,0.08899185026958584,-0.12596300592273474
1700516901991682300,3.826682373046875,-1.4309130930840968,-0.5786904070541262,-0.48481736061424013
1700516902001693200,3.836693115234375,-2.615941208052635,1.0840570730917156,0.6912037104256451
1700516902011704300,3.846704345703125,1.6947639360010622,0.8571072432011365,-0.4005536348450929
1700516902021714200,3.856714111328125,1.4206523958325386,-1.9684557894527912,0.08167312475405633
1700516902031725000,3.86672509765625,-0.8891536558032035,0.2318316836480051,-0.3942451092854142
1700516902041736200,3.876736083984375,-1.1965975567311047,0.2180130747191608,0.6869958834722638
1700516902051747300,3.886747314453125,-0.5324561868846416,0.6227331085287034,-0.5881054837943985
1700516902061758200,3.89675830078125,0.3699509182453155,-0.727692781650275,0.5118501097727567
1700516902071768300,3.906768310546875,3.716300742778182,-0.034218130617961286,-0.5020737619720399
1700516902081779200,3.916779296875,-2.416393618220091,-0.6051233636885881,-0.08124130920805037
1700516902091790000,3.9267900390625,-1.871419895067811,1.4520780461877583,0.4404626340484246
1700516902101801200,3.93680126953125,1.9091829317510127,0.16074622307755052,-0.1833122020855546
1700516902111812400,3.946812255859375,1.206007774633169,-1.5586477848544715,-0.20911369241606442
1700516902121822500,3.956822509765625,-1.5867559812247751,0.18141973940245806,-0.04800027999393642
1700516902131833300,3.966833251953125,-0.6870932063668966,0.46954811448566613,0.43104068917594845
1700516902141844200,3.97684423828125,-0.47549569777846334,0.24197511119544504,-0.5847527027677745
1700516902151855000,3.986855224609375,1.0512491745978594,-0.6930583983816206,0.591222337173298
1700516902161866200,3.9968662109375,2.9972447104394435,0.2026724438548088,-0.7596710243869572
1700516902171876000,4.0068759765625,-3.290450827178359,-0.6012761867411435,0.22876082483530044
1700516902181887200,4.01688720703125,-0.861765298140049,1.8748589296057818,0.14538549927324057
1700516902191898400,4.0268984375,1.9360551565855741,-0.49970739816688,-0.04205678835436701
1700516902201909200,4.0369091796875,1.0250812986403703,-1.1123915524985641,-0.5008902147432789
1700516902211920400,4.04692041015625,-2.108961992251873,0.15620426879897711,0.2891513249227777
1700516902221930200,4.05693017578125,-0.2371148116827011,0.7421222159538418,0.1683515104494989
1700516902231941000,4.066941162109375,-0.6608475889980793,-0.045376799622550604,-0.5001604391640052
1700516902241952300,4.0769521484375,1.7236352256983518,-0.5250098164014518,0.5710824893336742
1700516902251963100,4.086963134765625,2.255513904955983,0.17247772353403268,-0.9895304581139236
1700516902261974300,4.096974365234375,-3.5134465126156806,-0.5035559633538127,0.6024085517719387
1700516902271984400,4.106984375,-0.18759294814467428,1.9848174339279532,-0.1864695336053148
1700516902281995300,4.116995361328125,1.9433710325568914,-1.0624597929853945,0.0507457427771762
1700516902292006100,4.127006103515625,0.652623366010189,-0.8947957533434033,-0.6409424997624009
1700516902302017300,4.137017333984375,-1.9937591575354336,0.059831222236901516,0.5583935054892674
1700516902312028200,4.147028076171875,-0.03326514074206352,0.9962348511233925,-0.022470190483331678
1700516902322038300,4.157038330078125,-1.0863812782555817,-0.31601036148220296,-0.2778560604590922
1700516902332049200,4.167049072265625,2.259075981351733,-0.4384992615535855,0.5541205408778042
1700516902342060300,4.177060302734375,1.805879793664813,-0.1539174730360508,-0.9632567106291651
1700516902352071200,4.1870712890625,-3.3609646253407,-0.22232231622040272,0.8227088606454431
1700516902362082300,4.197082275390625,-0.028567922836542126,2.0873278142012652,-0.320495690202713
1700516902372092200,4.207092041015625,1.6790180853366852,-1.5186055511929093,0.1722234199794009
1700516902382103300,4.217103271484375,0.24807635067999362,-0.6246324393440038,-0.5161670231238007
1700516902392114200,4.2271142578125,-1.2452081506431103,0.05381101209931075,0.6677132369838654
1700516902402125300,4.237125244140625,-0.24966625021994113,0.9558253185193986,-0.29051380891501905
1700516902412136200,4.24713623046875,-1.4628829333186149,-0.3129744278524071,0.018066548696905372
1700516902422147300,4.257147216796875,2.8930566062122582,-0.22963746153935788,0.3810334532737732
1700516902432157200,4.2671572265625,1.736807426482439,-0.42906646649353203,-1.1224099654268473
1700516902442168300,4.277168212890625,-3.6405794391006228,0.21398104272410273,0.9997363564383238
1700516902452179200,4.28717919921875,0.3059077774018049,2.003345901048183,-0.3820544668845832
1700516902462190000,4.297190185546875,1.4231342757761478,-1.8816355841338634,0.06411196829602121
1700516902472201500,4.307201416015625,0.040703766310214995,-0.36097383106350894,-0.5470851623483002
1700516902482211300,4.31721142578125,-0.7488187179177999,0.2481370678912848,0.7230494858890771
1700516902492222200,4.32722216796875,-0.6898895590871572,0.878889451420307,-0.4063488040551543
1700516902502233300,4.3372333984375,-1.489695536920428,-0.5050467864334584,0.19184486996810882
1700516902512244200,4.347244140625,3.908099325919151,-0.2528086398988962,0.2075054900344461
1700516902522255000,4.357255126953125,0.688631083458662,-0.44479127436988053,-1.0183617080617695
1700516902532265200,4.36726513671875,-3.373937504160404,0.5686970555018633,1.0464102101340889
1700516902542276000,4.377276123046875,0.5766127239972353,1.4394406829327344,-0.12295604265909642
1700516902552287200,4.387287353515625,1.5460089602947233,-2.026877291022241,-0.19895236388575285
1700516902562298400,4.39729833984375,-0.4793570493817329,-0.13611308240666986,-0.30702341049350795
1700516902572309200,4.407309326171875,-0.5444891545057297,0.41986733405888077,0.7666206243291497
1700516902582319400,4.4173193359375,-1.1334095714122057,0.7156073531895876,-0.5570321174755692
1700516902592330200,4.427330322265625,-1.0548568437010049,-0.838821571860835,0.5783796606045216
1700516902602341000,4.437341064453125,4.635960011482238,-0.16202479164600372,-0.33344869527816773
1700516902612352300,4.447352294921875,-0.8835574432313442,-0.2408737258248031,-0.8320087500408291
1700516902622362000,4.457362060546875,-2.9902783785581586,1.126868552270904,1.0402646931163966
1700516902632373200,4.467373291015625,1.2388847928404807,0.3311391762267798,-0.24386600297596303
1700516902642384400,4.47738427734375,1.624852779906988,-1.7825141156464814,-0.4360428813774138
1700516902652395300,4.487395263671875,-1.0925368782758713,0.19400953718870878,-0.008905081391520797
1700516902662407000,4.497406982421875,-0.39202421836555,0.6787833509221672,0.31722521716468033
1700516902672417000,4.5074169921875,-1.683255284515023,0.3415701154787093,-0.5307070051297545
1700516902682428000,4.517427978515625,1.215745324793458,-0.9618849838845431,0.7457716783720999
1700516902692438800,4.527438720703125,3.683996556022763,0.3004410364285111,-1.1349022211227566
1700516902702450000,4.537449951171875,-2.8533213926732537,-0.16710501751974224,0.1177712969649583
1700516902712460800,4.547460693359375,-1.3650228630691765,1.6098028025522828,0.45233149714898313
1700516902722472000,4.557471923828125,1.941432173448801,-0.6799908270157873,-0.2078396904248744
1700516902732482000,4.56748193359375,0.4273258333712816,-0.8211028136882931,-0.6415981871921569
1700516902742493000,4.577492919921875,-1.4920949992775916,0.04289791535362601,0.6035819064002483
1700516902752503800,4.58750390625,-0.21579963645339012,1.2162135268270968,-0.010468640913814305
1700516902762515000,4.597514892578125,-1.5988935782641172,-0.3970367127653211,-0.23240363831706343
1700516902772524800,4.60752490234375,3.089353085294366,-0.4419390267439186,0.6099044604852796
1700516902782535700,4.61753564453125,0.8426941024452448,0.11122267903909086,-1.173767958350852
1700516902792547000,4.627547119140625,-2.9586498991072174,0.4614097431503236,0.9120026895362884
1700516902802558000,4.637557861328125,0.08108253844976425,1.2291668241634963,-0.1039542589386925
1700516902812568800,4.64756884765625,2.262542780679464,-1.6683901622079311,-0.1240414998082444
1700516902822579000,4.657578857421875,-0.6877239054858684,-0.2072598447103053,-0.47025209803655743
1700516902832589800,4.66758984375,-1.017683589604497,0.20065774303153155,0.5680942673031241
1700516902842600700,4.6776005859375,-0.46994449339210986,0.7817534576617181,-0.4128207034830004
1700516902852611800,4.68761181640625,-0.3886217164456844,-1.1608875070549547,0.4228548985023051
1700516902862623000,4.697623046875,3.786054077962041,-0.008103300021961331,-0.36797647636719044
1700516902872633000,4.707633056640625,-1.501171455180645,-0.3395701738331467,-0.4529340296193957
1700516902882644000,4.71764404296875,-2.118725261375308,1.1069564487725496,0.733332541102916
1700516902892654800,4.72765478515625,1.4069342516034842,-0.057046267693489784,-0.11802534479126334
1700516902902665700,4.737665771484375,1.7988930035173891,-1.3269454997397958,-0.4472761134555563
1700516902912676900,4.7476767578125,-1.9101497309565543,-0.06304273162931204,0.21288415086548773
1700516902922686700,4.757686767578125,-0.36124563374221325,0.8394463526956737,0.2946846283262595
1700516902932697900,4.76769775390625,-1.1104892990738153,0.2643555775687098,-0.5448631754498928
1700516902942709000,4.777708984375,1.6221511197328566,-0.893493219377473,0.7361039785776287
1700516902952720000,4.787719970703125,2.2133055793017147,0.3021123306415975,-1.102279981394112
1700516902962731000,4.79773095703125,-3.064125120535493,-0.2219509986899793,0.5371658258803188
1700516902972740900,4.807740966796875,-0.42766719415485854,1.8223631648235021,-0.1449497382044792
1700516902982751700,4.817751708984375,2.264436047080159,-1.152980971714109,0.03244955004286021
1700516902992763000,4.827762939453125,0.1709533635109663,-0.5741427536871284,-0.6803162595778703
1700516903002773800,4.837773681640625,-2.20641406622231,0.22575287519097326,0.6937707844346761
1700516903012785000,4.847784912109375,0.2127764892399311,1.042023300286755,-0.2280584121869877
1700516903022795000,4.857794921875,-0.9945780238270759,-0.5477814740493894,-0.08433690060321242
1700516903032806000,4.867805908203125,3.363250690451264,-0.23546850578039882,0.26449663000721485
1700516903042816800,4.877816650390625,-0.2977063507676124,-0.06340791167989372,-0.8743561919048428
1700516903052828000,4.887827880859375,-3.1413346169441936,0.3929655178036541,0.9001526772666723
1700516903062838800,4.8978388671875,0.9591507366150617,1.2976295350149274,-0.4615776470631361
1700516903072849000,4.907848876953125,2.6812860791444777,-1.8388427365899085,0.05135587403215468
1700516903082859800,4.91785986328125,-1.5403618943184614,0.07765811695903539,-0.4604436015319079
1700516903092871000,4.927870849609375,-1.591183734539151,0.3735036422908306,0.7650743447352201
1700516903102881800,4.9378818359375,0.14646014276742933,0.7731821748018264,-0.5726250791331753
1700516903112893000,4.947892822265625,0.15516075109541416,-1.1297844397176056,0.4135918339859694
1700516903122902800,4.95790283203125,3.5121687477648256,0.2252243943374604,-0.39653172238525003
1700516903132914000,4.967913818359375,-2.382113162955642,-0.5035682383134961,-0.12293273484874516
1700516903142924800,4.9779248046875,-1.8954180257707833,1.2873501330628991,0.456055339977704
1700516903152936000,4.98793603515625,1.9555226581215857,-0.004266352207586169,-0.17727880367282778
1700516903162946800,4.99794677734375,2.187700597923994,-1.4367121347516774,-0.30548871173951775
1700516903172957000,5.00795703125,-2.8084686899900433,0.08450126085206866,0.20037220408841966
1700516903182967800,5.0179677734375,-0.5244371310800313,0.847016641819477,0.3734677672598511
1700516903192979000,5.02797900390625,-0.33529812253713603,0.23697401497252285,-0.536131368266046
1700516903202989800,5.03798974609375,1.340111124652624,-0.959523734645918,0.6405316539391875
1700516903213000700,5.048000732421875,2.377231236132979,0.36646482969522476,-0.8754977631554007
1700516903223010800,5.0580107421875,-3.436716908678412,-0.5243707878455519,0.4880313542246818
1700516903233022000,5.06802197265625,-0.5466209058374166,1.8317963252097367,-0.1824056816998869
1700516903243032800,5.07803271484375,2.5040584576696157,-0.9934162865713239,0.036803690131753684
1700516903253044000,5.0880439453125,0.9785925191879272,-0.7095652234811335,-0.6164892457030713
1700516903263053800,5.0980537109375,-3.0064117672353983,0.026415055651590226,0.589743204531446
1700516903273065000,5.10806494140625,0.3133785516738891,1.0442904415011405,-0.11724413128569722
1700516903283075800,5.118075927734375,-0.6165770701169967,-0.3425683327358216,-0.30211963716521856
1700516903293086700,5.128086669921875,2.508271106928587,-0.4635359415240585,0.4815746523659676
1700516903303097900,5.138097900390625,0.9490525364488362,0.12476152117848395,-0.8783411698877811
1700516903313108000,5.14810791015625,-3.5013965938597917,-0.2578711109202355,0.7624315020762383
1700516903323118800,5.158118896484375,0.3975327526539564,1.8812401550754905,-0.3749520144682377
1700516903333130000,5.1681298828125,2.670610371351242,-1.5975094304293393,0.15074454208835958
1700516903343140900,5.178140869140625,-0.24857027167677878,-0.2765913742855191,-0.6336617681697011
1700516903353151700,5.18815185546875,-2.531312375298142,0.04427154179438948,0.7034950367219746
1700516903363161900,5.198161865234375,0.4959212306916713,1.0907303403105586,-0.35149526063296943
1700516903373172700,5.2081728515625,-0.8059358588904142,-0.6347836848717182,-0.061593519201688464
1700516903383184000,5.218183837890625,3.2369121292144056,-0.0692897362601012,0.15567987959869206
1700516903393195000,5.228195068359375,-0.5152542921930551,-0.33577728435620663,-0.6608053572915494
1700516903403206000,5.238205810546875,-3.0477941634595394,0.2539811908096075,0.7901951227925718
1700516903413216000,5.248216064453125,1.1483499509125947,1.6298916508570314,-0.4910925684262067
1700516903423227000,5.258226806640625,2.4164795429378745,-1.8393962788194418,0.15854644801095127
1700516903433237800,5.26823779296875,-1.2472037083745002,0.03287921016439795,-0.5596785403311252
1700516903443249000,5.278248779296875,-1.7377046675831078,0.05377031476274132,0.7919941350385546
1700516903453260000,5.288260009765625,0.5935346327036619,0.8834428038757294,-0.5007252334399148
1700516903463270000,5.298269775390625,-0.4978220958769321,-0.9194678377851844,0.2690667509343475
1700516903473281000,5.308281005859375,3.4614076978206634,0.32379042089916765,-0.18733068047929555
1700516903483292000,5.3182919921875,-1.754088231629133,-0.6631100540373474,-0.33588549397103484
1700516903493302800,5.328302734375,-2.1444775422692297,0.7113830134928226,0.6222364110529423
1700516903503313700,5.338313720703125,1.468086347180605,1.0205877135481685,-0.35549371915198863
1700516903513323800,5.34832373046875,2.2289140673220156,-1.756632363153994,-0.014184994555823505
1700516903523335000,5.3583349609375,-2.075268396964669,0.12066563016697764,-0.3185307468052953
1700516903533346000,5.368345947265625,-1.0435954449743032,0.37886378108449276,0.598015504444763
1700516903543357000,5.37835693359375,0.38494624280333517,0.7152905423253775,-0.6495895512722433
1700516903553366800,5.38836669921875,-0.08141337783932685,-0.7837992112103849,0.44281252164281903
1700516903563378000,5.3983779296875,3.1754566667765376,0.45185960532091557,-0.36054650902952995
1700516903573388800,5.408388916015625,-2.4439216766148806,-0.7489760273713618,-0.06670191172398626
1700516903583399700,5.418399658203125,-1.4967220745563505,1.279306527338922,0.38350287559460844
1700516903593411000,5.4284111328125,1.545966874718666,0.7834574120353907,-0.2570912856541574
1700516903603421000,5.4384208984375,1.6338076552569865,-1.9743685206279158,0.14847710861302912
1700516903613431800,5.448431884765625,-2.008042534431815,0.17188012296706437,-0.26616825301386415
1700516903623443000,5.45844287109375,-0.47962066875398157,0.2894605004698038,0.595696925304085
1700516903633453800,5.468453857421875,-0.17173194666802882,0.3912747151724994,-0.5960674391169101
1700516903643464700,5.478464599609375,0.20133155063986777,-0.77719462531358,0.467878281577304
1700516903653474800,5.488474853515625,3.430663015466928,-0.01986219994202256,-0.40226683197114615
1700516903663485400,5.4984853515625,-1.9012761041492223,-1.051086239121109,-0.1421399780133739
1700516903673496600,5.50849658203125,-1.5603011050194502,0.979020096950233,0.42708727537505325
1700516903683507500,5.518507568359375,1.5342372739583252,0.764820296908915,-0.6468564730465411
1700516903693517600,5.528517578125,1.501231076413393,-2.0158762967973947,-0.11641308728903531
1700516903703528400,5.538528564453125,-1.1924421906173228,0.030832360637187955,0.15361870928518473
1700516903713539300,5.548539306640625,-0.1839285804182291,0.532405041219294,0.5913395338121801
1700516903723550200,5.55855029296875,-1.1373691226929425,-0.6050290364686399,-0.5785411713091656
1700516903733561600,5.5685615234375,-1.2045423782557247,-0.6915889834161847,1.408941207511723
1700516903743571500,5.578571533203125,4.698743507653474,-0.631180984204635,-0.7927549633432179
1700516903753582600,5.58858251953125,-3.2120535822898146,-0.44099991926290094,-0.9738769619081169
1700516903763593500,5.598593505859375,-1.1184446419924496,0.7390330908320843,1.0388634480163454
1700516903773604400,5.608604248046875,2.1475737547188998,0.5435647331371903,-0.8157943320166319
1700516903783615200,5.618615234375,0.9231266525536775,-1.4532364224426448,0.13430234319027512
1700516903793625300,5.628625244140625,-1.2913006242543459,-0.17364033757261932,-0.06964541782997548
1700516903803636200,5.63863623046875,-0.4940203655064106,0.1241845980733633,0.30449283256996423
1700516903813647600,5.648647705078125,0.40369887406826016,-0.2336105298887938,-0.18696283354759216
1700516903823658500,5.658658447265625,-2.3959499651283025,-0.040131446314975616,0.28981778947487474
1700516903833668400,5.66866845703125,4.399868113106489,0.9227182909484952,1.0780002572707832
1700516903843679500,5.678679443359375,0.5698492212116718,-1.7448805505618452,-2.359854131004959
1700516903853690400,5.6886904296875,-6.209037595966458,1.373479725769162,1.5472798570133746
1700516903863701200,5.698701171875,3.329499812018871,1.5393692300193011,-0.5306836973194032
1700516903873712400,5.70871240234375,2.415681086036563,-2.2514286814689637,-0.39011239339485765
1700516903883722200,5.71872216796875,-1.6771692425996063,0.38468152745254336,0.020963183453865348
1700516903893733400,5.7287333984375,-1.8829408215135335,0.4447964620016515,0.18139990219082683
1700516903903744500,5.73874462890625,0.3472650391846895,-0.9595292145386337,-0.0767629947502166
1700516903913755400,5.74875537109375,-3.0165011995732782,2.523425713701546,-0.34519225149862465
1700516903923766300,5.758766357421875,7.181471592524647,-1.6971993464544415,1.3176947101831435
1700516903933776400,5.7687763671875,-0.5405991613298654,-2.927134232380986,-2.995710925000906
1700516903943787300,5.778787353515625,-9.657436759132146,5.60976997256875,3.6144641701132056
1700516903953798400,5.78879833984375,6.355963602679967,-4.980489488223195,-0.3326454891365021
1700516903963809500,5.7988095703125,2.347611173895001,-3.022421237272024,-2.2621650334082544
1700516903973820400,5.8088203125,-3.983953316065669,0.16048866811990736,1.749713085284829
1700516903983830500,5.81883056640625,-0.3869938229829073,2.7899305782586334,-0.7966402803439646
1700516903993841400,5.82884130859375,4.877877255010604,-0.5103552681051194,1.192079056393355
1700516904003852300,5.838852294921875,2.5380174258947372,-6.908731925231218,-3.036237288917601
1700516904013863400,5.848863525390625,-8.002956902724504,5.582649910452962,1.2585121611133216
1700516904023873300,5.858873291015625,3.079393416815996,-2.9804893904715777,1.946243665383756
1700516904033884400,5.868884521484375,1.6121978809952735,-4.587883086055517,-4.295912940852344
1700516904043895600,5.8788955078125,-6.266396144479513,1.1356341886591166,1.623219041225314
1700516904053906400,5.888906494140625,5.432517801174521,0.7323932874914258,1.6216791183069348
1700516904063917300,5.898917236328125,4.706607665157318,-5.103380539354681,-3.3478213583901524
1700516904073927400,5.908927490234375,-10.241798489820956,0.7153927605908363,1.365089498564601
1700516904083938300,5.918938232421875,4.0208302175641055,-2.4576789838105437,2.5869042063996193
1700516904093949400,5.928949462890625,4.04721085948944,-3.427780153506994,-3.791669287495315
1700516904103960600,5.938960693359375,-8.74986189597547,-1.015076037454605,2.2146778905682263
1700516904113970400,5.948970458984375,5.729515126889944,-4.304005646415055,1.5657077863685787
1700516904123981600,5.958981689453125,4.012809992715716,-0.10520334568433463,-3.293175283706188
1700516904133992400,5.968992431640625,-7.652159013238549,-5.399289485311508,3.4791847620517014
1700516904144003300,5.97900341796875,4.803267711967229,-5.707138459908962,-1.211454495731741
1700516904154014500,5.989014404296875,1.2341092490017413,2.437092415116727,-0.7515975349813699
1700516904164024300,5.9990244140625,-1.841228754943609,-4.466180952447653,1.7678060835972427
1700516904174035200,6.00903515625,4.094700924938917,-5.737575683748722,-1.4660557181358336
1700516904184046600,6.019046630859375,-2.3760201067775486,-1.3286778764903544,0.13933788967207072
1700516904194057500,6.029057373046875,-3.309510916957259,-7.853454323521256,1.124616462495178
1700516904204068400,6.039068359375,4.161403055858612,0.44958048140779133,-2.0613851253017783
1700516904214078500,6.049078369140625,0.19995675515532493,-1.5955317006155847,1.2252473856974393
1700516904224089300,6.05908935546875,1.0538222399562596,-5.1615504042506215,-1.4914759905964134
1700516904234100200,6.069100341796875,-0.9029407736152409,0.10423143191225825,-0.7013784829594194
1700516904244111400,6.079111328125,-2.7516157529115675,-7.112699085071682,1.5674698276050387
1700516904254121200,6.089121337890625,2.020668207249045,-0.48563503367267546,-2.1594712593920526
1700516904264132600,6.099132568359375,0.7987754657417535,-3.158872319461405,1.8308187123492359
1700516904274143500,6.1091435546875,1.7538918322741985,-5.424262598526478,-1.6890604636624456
1700516904284154400,6.119154296875,-3.0394068588644263,-3.9385800966396927,0.848647238695994
1700516904294165200,6.129165283203125,-0.43077743512988087,-5.756168740537762,1.022054936556518
1700516904304175400,6.13917529296875,4.523656405338644,0.1466145296115428,-1.6044092729456723
1700516904314186200,6.149186279296875,0.9670160631626844,-2.8525615142166614,1.3553022640436887
1700516904324197600,6.15919775390625,-0.5195242245972156,-5.336681930229068,-0.59175816108305
1700516904334208500,6.16920849609375,2.2011329109489917,-4.2474604601114985,-0.3185184718456119
1700516904344218400,6.17921826171875,-6.6301470390409225,-5.439150955578684,0.2588535460863262
1700516904354229500,6.1892294921875,5.522421943983435,-1.0954393217191098,-0.5661154415108263
1700516904364240400,6.199240478515625,-1.959733553814888,-5.176557419246435,0.5899888498555869
1700516904374251300,6.209251220703125,0.3963853361845016,-7.238048635271191,-0.5049255346739664
1700516904384262400,6.219262451171875,2.2202309946507213,-5.370873538166284,-0.036957638584449885
1700516904394272300,6.229272216796875,-3.963387497898936,-5.654108295989036,-0.658901496431604
1700516904404283600,6.23928369140625,4.053320282280445,-3.870403801514208,0.4541363546138629
1700516904414294500,6.24929443359375,-0.5248293452680111,-6.750086254629492,-0.6407870900049806
1700516904424305400,6.259305419921875,1.8808330355793237,-5.774558383709192,0.34395832578949626
1700516904434316300,6.26931640625,-0.16563187622725964,-5.374397036117315,1.0102411646440626
1700516904444326400,6.279326416015625,5.2840527483254665,1.2101054922755807,-0.6806612005580216
1700516904454337300,6.289337158203125,4.7014071739047765,-1.9845809948235749,1.2845289381623268
1700516904464348400,6.299348388671875,-4.425573632249236,-3.3492145663142203,-1.346428052714467
1700516904474359600,6.309359619140625,1.0308318249911068,-6.044741936779022,-0.08365651712361723
1700516904484369400,6.319369384765625,-6.816775526067614,-4.049476466333866,-0.887469502108544
1700516904494380500,6.329380615234375,2.098103329107165,-3.3231697322145104,0.14003259393796325
1700516904504391400,6.339391357421875,0.9998971730232238,-7.135840891206264,0.05115001272913068
1700516904514402300,6.34940234375,2.009196965163946,-7.567554145881533,-0.45989382216203956
1700516904524413400,6.359413330078125,2.1200281606674194,-5.079388253870606,1.0553409008909016
1700516904534423300,6.36942333984375,0.9701771575421094,-3.2553076176047324,-1.265356035658717
1700516904544434400,6.379434326171875,1.6122943271070718,-5.297016859316826,0.8983755115263163
1700516904554445600,6.389445556640625,-0.9205196849256754,-2.137503611603379,-1.1699568025648592
1700516904564456400,6.39945654296875,5.839039915969967,-3.9874622009694574,0.20319117049928753
1700516904574467300,6.40946728515625,-3.4364363381713625,-5.439208238723873,0.40063656388819213
1700516904584477400,6.4194775390625,1.1026339093983173,-2.8821678401902315,-0.4642642923312261
1700516904594488300,6.42948828125,0.32176936340034007,-6.319874636688828,-0.03999992888979614
1700516904604499500,6.43949951171875,-3.619553017684817,-4.405848648820817,-0.4479252980792895
1700516904614510300,6.44951025390625,5.663339065670967,-4.621463284096121,1.1378604133412242
1700516904624520200,6.459520263671875,-2.9753046813100577,-3.460235146909952,-1.5249812237046658
1700516904634531600,6.469531494140625,3.1441303851425646,-6.090969434946775,0.3862151302279904
1700516904644542500,6.47954248046875,-2.300321014931798,-3.6051138657048343,-0.2424695801815018
1700516904654553300,6.48955322265625,1.4311492399275303,-6.265306595677137,0.46999805021025237
1700516904664567800,6.49956787109375,1.3685048599660397,-5.607580353569984,0.3034962227480486
1700516904674577700,6.50957763671875,4.435306506234407,-1.2617175330258905,-0.07141794392783195
1700516904684588500,6.519588623046875,2.236554352942109,-4.247281888674199,0.6290013020779938
1700516904694599700,6.529599609375,-0.8448352061271667,-0.33693960613384843,-0.5559497290663421
1700516904704610600,6.539610595703125,1.66869542876482,-6.071598379522562,1.179153669977188
1700516904714620700,6.54962060546875,-6.4747115626573555,-4.643712817566096,-0.5899286441009491
1700516904724631600,6.559631591796875,4.86313385938704,-3.1466710095360875,0.13730704143159092
1700516904734642400,6.569642333984375,0.39395372512340543,-3.342797685009241,-0.43640122982840984
1700516904744653800,6.57965380859375,0.5475438659012317,-6.754573629176616,-0.029757388349436222
1700516904754664700,6.589664794921875,0.43383799174427984,-4.439554226806759,0.07311134037487209
1700516904764674600,6.599674560546875,2.7859493996679783,-1.00558310970515,-0.5700933321658521
1700516904774685700,6.609685791015625,1.5461556752890349,-4.639707965838909,0.7946576551593839
1700516904784696600,6.619696533203125,-6.17276041392684,-4.675138175660371,-0.10991356920190155
1700516904794707500,6.62970751953125,0.3943360024392605,-3.2757565313935277,1.8212033272638917
1700516904804717600,6.639717529296875,0.786032888546586,0.6628485535569488,0.2564922968477011
1700516904814728700,6.649728759765625,4.442466899383068,-5.1553398591727015,0.08920600447691976
1700516904824739600,6.659739501953125,-6.047689096146821,-4.151472028952837,-1.4579630125731229
1700516904834750700,6.669750732421875,0.9924737450242042,-3.1154832595899697,0.8750613444995134
1700516904844761600,6.67976171875,-0.48536768797338004,-2.0918070054419338,-0.45512839785851533
1700516904854771700,6.689771728515625,4.438225608551502,-3.467283019594848,-2.293097055027634
1700516904864782600,6.699782470703125,-2.4243185660004616,-3.7233529993772505,-1.4346455576106905
1700516904874793500,6.70979345703125,-0.7983931884258985,-4.4753333961963655,-0.5416718320626766
1700516904884804600,6.7198046875,0.9691472299724817,-2.641604933880269,0.31775731474738567
1700516904894815700,6.729815673828125,5.57034455563128,0.21627572953253985,0.1015121082172729
1700516904904825600,6.73982568359375,0.5560100809514522,-5.486541067785025,0.466525624859333
1700516904914836700,6.749836669921875,-3.392921606093645,-4.9591573618590825,0.4433357783319428
1700516904924847600,6.75984765625,2.869494528838992,-2.609468504907191,0.684512103832513
1700516904934858500,6.7698583984375,3.1769717475146053,1.1686856135852635,0.39271559816319496
1700516904944868600,6.77986865234375,1.7878689206779002,-4.484919555187225,0.028445392435416578
1700516904954879500,6.78987939453125,-6.48576253350377,-3.3509701778098937,0.01796107902843505
1700516904964890600,6.799890625,1.093718197014928,-3.860275498470664,-0.12261358589697628
1700516904974901800,6.80990185546875,1.7899071485072373,1.5139102329835294,-0.512059222478792
1700516904984912600,6.81991259765625,1.6874860539525747,-4.370723851686716,-0.7381606919117272
1700516904994922800,6.8299228515625,-7.456072377514839,-4.553171838158369,-1.488318549478799
1700516905004933600,6.83993359375,1.7712047861248255,-3.616119536104798,0.15230042976085095
1700516905014944500,6.849944580078125,-0.18553776918053627,0.7154264436647295,0.3374113883640617
1700516905024955400,6.859955322265625,3.1735552170693873,-5.361620556652546,0.15369780240338296
1700516905034965500,6.869965576171875,-3.3485803600639104,-2.0456373749412595,-1.0729289453558624
1700516905044976600,6.8799765625,-0.03177811705470085,-2.7806290814280508,1.9597604418218135
1700516905054987800,6.88998779296875,3.7316777601301667,0.4637853862404823,0.3769285021729767
1700516905064998700,6.89999853515625,1.6385200707316399,-5.1085681711256505,0.7528923970974981
1700516905075009500,6.910009521484375,-0.8969342266768217,-1.5950775271072983,-0.6667492142572998
1700516905085019600,6.92001953125,-1.0264128395050764,-2.403127893933654,2.1789953134208915
1700516905095030500,6.930030517578125,4.960567228657007,2.7114012314230203,-0.07531117024039849
1700516905105041400,6.94004150390625,5.158869786864519,-3.6370258382722733,0.48478159518111497
1700516905115052800,6.950052734375,-3.7511715651512145,-6.3101148746967315,0.45083625362254676
1700516905125063700,6.960063720703125,-0.9837263749450444,-3.1980238878935574,0.570676538881287
1700516905135073500,6.970073486328125,2.246869410729408,1.901160953336954,-0.31193682843297715
1700516905145084700,6.980084716796875,1.786673573413491,-2.91143251311928,-0.5753314154824242
1700516905155095600,6.990095458984375,-3.232909907835722,-4.70162461604774,-0.7529666313774883
1700516905165106400,7.0001064453125,-0.6134679981857538,-3.543737021461129,0.6357816829331219
1700516905175116500,7.010116455078125,4.358115714526177,-0.1628502826847136,0.6699393155355006
1700516905185127700,7.020127685546875,-0.7998153301835059,-3.3677889184027907,1.0595929323121904
1700516905195138800,7.030138916015625,-3.053227878946066,-5.103601488628983,0.02289605121258646
1700516905205149700,7.040149658203125,0.7408265501201152,0.6835568489342928,1.8534319645650683
1700516905215160600,7.05016064453125,3.993545320275426,-3.1874396577760575,1.8580862201116979
1700516905225170700,7.060170654296875,0.917810425966978,-1.7432742844089866,-2.976048193153739
1700516905235181600,7.070181640625,-4.3769104313671585,-4.549523837044835,1.0271749099187553
1700516905245192400,7.0801923828125,2.3310101677060127,1.3899473148368298,-0.3213536952715367
1700516905255203800,7.090203857421875,3.0621845078617334,-3.453499116653204,-0.5149185209000483
1700516905265213700,7.100213623046875,-3.374830653607845,-3.1994962985336777,-0.6526913166798651
1700516905275224600,7.110224609375,-1.6506185048043727,-1.706147645933181,1.3963292709589004
1700516905285235700,7.120235595703125,0.726585843321681,-1.2660986707195638,0.528331069778651
1700516905295246600,7.13024658203125,1.4217618183791636,-2.02056591591835,0.03746620916109532
1700516905305257500,7.140257568359375,-4.053434264048934,-5.189969274005294,0.8359273117240518
1700516905315267600,7.150267578125,-0.10262801530361175,1.299770930957794,-0.09018350773956627
1700516905325278500,7.160278564453125,4.4648137557476755,-3.3272710300534962,1.5691041508086025
1700516905335289600,7.17028955078125,-2.161011912962794,-2.4480992545604705,-1.700343343568593
1700516905345300700,7.18030078125,-2.868441220393777,-3.1752930006474256,0.9665078213796019
1700516905355311600,7.1903115234375,3.6468209638386964,2.248309088143706,-0.35807091269623487
1700516905365321700,7.20032177734375,4.7586371276021,-4.7556093042135235,0.5078732785636558
1700516905375332600,7.21033251953125,-3.1479742010891436,-2.9661025532007215,-1.013649511782825
1700516905385343500,7.220343505859375,0.021229835033416748,0.38826238161399956,0.37060393879394976
1700516905395354600,7.230354736328125,5.8204930364102125,0.7157926466286182,-0.1864028981098905
1700516905405364500,7.240364501953125,-1.0446078368872402,-5.66892826398015,1.158178832618147
1700516905415375600,7.250375732421875,-2.476647303652763,-6.00209171257615,-0.6032418973235413
1700516905425386800,7.26038671875,-1.4574959795832634,1.9583166727542876,-0.6010684257419779
1700516905435397600,7.270397705078125,2.3521412185400723,-1.6988519359670577,0.27092896460965277
1700516905445408500,7.280408447265625,-3.0600246994793414,-6.016178690117597,-0.3615138562243432
1700516905455418600,7.290418701171875,-1.8402450046032666,-2.257459486065805,-0.37054928599726406
1700516905465429500,7.300429443359375,2.1908605232596394,-0.17542349466234444,0.6795911601737141
1700516905475440400,7.3104404296875,2.1898066302925345,-3.3070179310977457,-0.10624971293210983
1700516905485451800,7.32045166015625,-2.3602964679449796,-4.3198450205817815,0.389242624823004
1700516905495461600,7.330461669921875,3.4685867956697938,3.3614240595459934,-0.447859977758117
1700516905505472800,7.34047265625,5.094909063607454,-4.36344246250689,1.816467238652706
1700516905515483600,7.350483642578125,-4.004816071352362,-3.28208368858844,-0.3004897709410637
1700516905525494500,7.36049462890625,-3.5693595384955406,1.0958014330297707,0.09013210634589194
1700516905535505400,7.37050537109375,3.4488235260576006,-1.3351654849439858,0.5720142902910709
1700516905545515500,7.380515625,2.258200952082872,-4.971347565868497,0.27500377630051226
1700516905555526700,7.390526611328125,-2.366168574848771,-3.6914094626277683,-0.8053571822196245
1700516905565537800,7.400537841796875,1.3940648331582546,2.418420886263996,-1.097803347436711
1700516905575548700,7.410548583984375,5.232854476007819,-4.578586849921941,0.8659000598572194
1700516905585558500,7.42055859375,-3.744359547048807,-3.7414082960277795,-0.2886671946676448
1700516905595569700,7.430569580078125,-4.392486770683527,-0.0005813070192933083,0.5794341746261343
1700516905605580500,7.44058056640625,1.5395143375784157,-2.614125390802324,2.100851604901999
1700516905615591400,7.45059130859375,-0.7469470788270235,-1.5705745156221091,-1.6804693070583046
1700516905625602800,7.460602783203125,-3.3302187739431854,-4.1188305730670685,0.33650790018569676
1700516905635612700,7.47061279296875,0.9062538436859846,0.3205605721324682,-0.977686144932732
1700516905645623800,7.480623779296875,3.657092182484269,-3.970472487723827,-0.6034934243991971
1700516905655634700,7.490634765625,-2.9655192003548145,-2.6329963877499103,-0.5435679845402017
1700516905665642200,7.500642333984375,2.1164462105274198,-0.7356374570444226,-0.08538914960250257
1700516905675652400,7.51065234375,3.8259786765933033,-4.219087475325167,1.3476903277352452
1700516905685663500,7.52066357421875,-0.4592804760366678,-1.016993269252777,1.3250731299966574
1700516905695674400,7.53067431640625,-2.135563583451509,-4.174329172927141,0.804543966140598
1700516905705685500,7.540685546875,3.7096898002058265,3.1036595508053897,-1.0368103148788212
1700516905715696400,7.5506962890625,2.716097280284762,-2.8288553521975874,1.0887509299963711
1700516905725706200,7.560706298828125,-0.7052975560992956,-5.725218891000748,1.2384990083932876
1700516905735717400,7.57071728515625,1.4722294383347034,-1.8542226765513419,-0.6144095898848027
1700516905745728300,7.580728271484375,5.185286084625124,-0.05769815573096275,-0.6320378932949156
1700516905755739400,7.590739501953125,-3.9761265679627655,-1.8082430156648157,0.4120127846335992
1700516905765750500,7.60075048828125,-4.378862734478711,-4.551707610824704,0.47694520246703176
1700516905775760400,7.610760498046875,3.723271750834584,0.44944896398261186,-0.8952974192552268
1700516905785771300,7.620771240234375,-2.773616572317481,-1.9497336994566021,0.03076656539198011
1700516905795782400,7.630782470703125,-0.7371452312588691,-5.493003541797399,-1.1807985876400022
1700516905805793300,7.640793212890625,-3.0285224767565726,0.7564864760667085,-0.06956084481906145
1700516905815803400,7.650803466796875,7.701310874420404,-2.8277918146193026,0.7460358092010021
1700516905825814500,7.660814453125,-1.9099626839518546,-4.148103429302573,-0.8564355544846505
1700516905835825400,7.670825439453125,0.32393969317674637,-0.01959945735260844,0.4344411087365821
1700516905845836300,7.680836181640625,6.1985349066525695,-3.1694308306157586,1.7821604799032211
1700516905855847400,7.690847412109375,-0.13380758194327352,-1.4976329057909548,0.11854392530526965
1700516905865857300,7.700857177734375,-2.7391818032741546,-2.911941631685197,2.080904357025027
1700516905875868400,7.710868408203125,2.0279396595567465,1.953990918509662,0.3971938760884106
1700516905885879300,7.72087939453125,0.065678048568964,-3.207923935139179,1.0373048934627325
1700516905895890400,7.730890380859375,-5.0024219185680145,-4.364211401052772,-0.07253861852083354
1700516905905900500,7.740900634765625,-2.415184242430329,1.5611368251912294,-0.9862273979805409
1700516905915911400,7.750911376953125,3.5033664326280354,-2.651168004256487,-1.4760900592856108
1700516905925922300,7.76092236328125,-2.289919447904825,-2.598668001690507,0.44363958358410743
1700516905935933400,7.770933349609375,-1.6808634209424256,-0.08417056759297847,-1.1160453257657588
1700516905945944300,7.7809443359375,3.9011259797751903,0.9162840931825339,0.04618117480799556
1700516905955954400,7.790954345703125,0.3366729180216789,-0.6117430740892886,1.1216197648972273
1700516905965965300,7.80096533203125,-3.4483196681886907,-1.9396734932132065,1.1107130248270929
1700516905975976400,7.8109765625,3.30645094486475,5.478655867493153,0.46195349463820456
1700516905985987300,7.8209873046875,5.819866428944469,-2.271953875364363,2.539584821341932
1700516905995997400,7.83099755859375,-3.138146634557843,-2.208458723792434,0.10619885952770709
1700516906006008300,7.84100830078125,-1.3162176233679055,4.970839031824469,1.5073093734137712
1700516906016019500,7.85101953125,2.976911531984806,1.0135495585396885,0.6926813817627727
1700516906026030300,7.8610302734375,0.37255905491709707,0.7989901314057409,-1.1197114470578728
1700516906036041200,7.871041259765625,2.9954338616251945,1.1200851026758551,-0.053670580715313554
1700516906046051300,7.88105126953125,1.5140297677099703,2.5975913123697043,-0.6024980932189151
1700516906056062500,7.8910625,1.2042097853004932,2.5533582028895614,0.15249218947328627
1700516906066073300,7.9010732421875,0.8675333601474762,4.645509930115938,-1.306951490111649
1700516906076084500,7.91108447265625,0.37360184196829793,-1.2212072434611618,1.31675012280941
1700516906086095400,7.921095458984375,-0.04339782769978046,4.639674648091197,-0.4112958320032805
1700516906096105200,7.931105224609375,-0.13666004876494406,3.3218788156211376,1.2178620246864855
1700516906106116400,7.941116455078125,-1.6370505827009676,1.7997348611690103,-0.37341497762668874
1700516906116127200,7.951127197265625,0.750985540562868,2.4409289245396852,1.38852926473245
1700516906126138400,7.961138427734375,0.8196651090353727,5.292696073508262,-0.1655452939223498
1700516906136148500,7.9711484375,0.5069891526728868,1.333422586799413,0.37011648407056924
1700516906146159400,7.981159423828125,-0.07555880659222602,4.639356668183207,0.18490180936455725
1700516906156170500,7.99117041015625,0.467581271392107,2.5751696372032162,0.5549321495216339
1700516906166181400,8.001181396484375,-1.9914462044179437,5.630652017077804,-0.8765721143886447
1700516906176192300,8.011192138671875,-0.36316052745282645,1.4912874822869897,-0.216733264041692
1700516906186202400,8.021202392578125,6.681549309498071,6.408371250787377,0.44170287990048523
1700516906196213500,8.031213623046876,-1.1649223155289887,-0.9553353430453687,-3.895736395691335
1700516906206224400,8.041224365234376,-33.076580994713304,10.440296278339623,-1.7738915409907698
1700516906216235500,8.051235595703124,14.44072317482233,5.225051108780503,1.0677854449875652
1700516906226245400,8.061245361328124,6.045912734124064,1.9322575178682804,-2.1557667057856915
1700516906236256300,8.07125634765625,4.042368680155277,2.6832719922646877,1.1490491852231324
1700516906246267400,8.081267333984375,-7.590746220898628,5.434466012632846,-0.9062443452052772
1700516906256278300,8.0912783203125,-2.720646614152193,4.6570168280363085,0.12955010716188697
1700516906266289400,8.101289306640625,1.1657044058173893,3.0055589497983455,0.2844762823164463
1700516906276299500,8.111299560546875,2.8091449818164107,3.3969694201797247,-0.07742489272505045
1700516906286310400,8.121310302734376,-6.371335359334945,2.7670781104594466,-0.022100297725014387
1700516906296321300,8.1313212890625,-2.2738772446423767,5.58153405816555,-1.0394637519970535
1700516906306332400,8.14133251953125,3.320836613091826,2.3886337968960403,0.2204807069417089
1700516906316342300,8.15134228515625,-1.551377209329605,4.898481359361112,-0.609812763613835
1700516906326353400,8.161353515625,0.7801444150298833,3.3023595838978883,-0.8159281144641339
1700516906336364300,8.1713642578125,0.24285130950808523,3.1476702497065063,0.39907223718091844
1700516906346375400,8.18137548828125,-0.8127332639455794,4.225820290711522,-1.2673495475634933
1700516906356386300,8.19138623046875,-1.0859984164178371,3.198873198199272,0.16990465817563236
1700516906366396400,8.201396484375,-1.0089707063168287,6.4292375132054085,-1.5179513250678778
1700516906376407300,8.2114072265625,3.113110392978787,3.463353278930485,-0.026197540443390607
1700516906386418400,8.22141845703125,-1.6755279051333665,4.905875853526592,-0.20706792060108853
1700516906396429300,8.23142919921875,0.33517654198408126,4.96283634263277,-1.1794289797872304
1700516906406440200,8.241440185546875,-0.6163380006641149,3.0913337377175685,0.9151171682950109
1700516906416450300,8.2514501953125,-1.9744769494384526,6.430059350982308,-1.3231336863666772
1700516906426461400,8.26146142578125,-0.12699731740653514,4.143245175616443,1.362534261123836
1700516906436472300,8.271472412109375,-3.6926106551110744,4.616012909735739,-0.8239655827082694
1700516906446483500,8.2814833984375,-0.3826215992480516,4.715389229767024,-1.0022031849432735
1700516906456493300,8.291493408203126,-2.726301278913021,2.3856886833548545,-0.07652220826428383
1700516906466504400,8.30150439453125,0.034794250005483626,6.334798065054416,-1.0086733308054505
1700516906476515300,8.311515380859374,0.19301848032474517,2.93509015982151,-0.8916820052370429
1700516906486526500,8.3215263671875,-2.0972078415721653,4.114774867935479,-0.48356491286773234
1700516906496537300,8.331537353515625,4.0926691268503665,4.373719234110415,-0.3895136968493461
1700516906506547500,8.34154736328125,-0.9944114350885153,3.1155700610905885,1.352275463568419
1700516906516558300,8.351558349609375,-4.909654787543416,5.2083577481329435,-0.8539248868379742
1700516906526569500,8.361569580078125,3.4393308905690905,4.761124268242717,0.23101148983892053
1700516906536580400,8.371580322265626,-4.8776224034667015,0.9281907310102134,-0.372481057777442
1700516906546590200,8.381590087890626,-0.06642448302209376,7.167414425599574,-1.2175965786833316
1700516906556601300,8.391601318359376,3.576925005313754,3.336099940936267,0.9560682604297995
1700516906566612500,8.401612548828124,-4.715763616037369,1.8398536671981214,-0.02816288569960743
1700516906576623400,8.411623291015625,1.106851234832406,8.569970608249307,0.3711793640617281
1700516906586634500,8.421634521484375,1.3662228865087032,1.4227341705426573,0.8849119265802204
1700516906596644400,8.431644287109375,-5.805999816155433,2.0489343706600365,-1.998277511742711
1700516906606655200,8.4416552734375,3.8725235701471563,8.597564717617631,1.0766668167099356
1700516906616666400,8.451666259765625,0.6141507197529077,1.0341019327029586,-0.2583420163676143
1700516906626677200,8.46167724609375,-3.8095027580887075,4.382060069215298,-1.133293251556158
1700516906636687400,8.471687255859376,6.394137558251619,7.674447417414188,-0.026700740725174546
1700516906646698500,8.481698486328124,-0.6724304747641087,1.8285440454155206,-0.02772677757097408
1700516906656709400,8.49170947265625,-6.717437199959159,3.0074598149836063,-1.3182187340572475
1700516906666720000,8.501719970703125,2.9524229874163863,8.89192175795734,0.17616492414679377
1700516906676731000,8.51173095703125,-0.7783867577075958,1.093364780467376,0.16064312802925704
1700516906686741000,8.521740966796875,-2.4717823279649016,3.2931185850828886,-1.2010176381956785
1700516906696751900,8.531751953125,4.808462358000874,8.512444301953911,0.09139600706817581
1700516906706762800,8.5417626953125,-1.9823954674780369,2.2620789625599977,0.27689549006493763
1700516906716774000,8.55177392578125,-2.690903217795491,2.9423800245687364,-0.6853364988926798
1700516906726783700,8.56178369140625,2.9346079292625187,7.557752882835269,-0.8442041416820139
1700516906736795000,8.571794921875,0.09969429993927478,4.2721731688246125,-0.00731492612324655
1700516906746806000,8.581805908203124,-1.1274848575383425,1.4247259288817644,-0.5164169062316417
1700516906756817000,8.59181689453125,2.7014579295575616,7.898238637143373,-0.19250475864894687
1700516906766827800,8.601827880859375,-0.5701502499848604,5.034869313186407,0.5177108184996992
1700516906776838000,8.611837890625,-2.016610456290841,2.1582542848177253,-0.2656697654398158
1700516906786848800,8.621848876953125,-1.0613210712790488,5.741007411763071,-0.3157687712786719
1700516906796860000,8.63185986328125,0.24944588546752927,6.897266528365016,-0.2651478239249438
1700516906806871000,8.64187109375,-1.306861766001582,2.274578670910001,-0.4125310728866607
1700516906816881000,8.651880859375,-2.407761398953199,2.8916499542847274,-1.339965140310675
1700516906826891800,8.661891845703124,1.3357523449212312,8.898293631076813,-0.4614503674216568
1700516906836903000,8.67190283203125,-0.5730956557869911,1.7691889162577688,0.3463449286650866
1700516906846913800,8.681913818359375,-0.7077309207260608,3.2837054445713756,-0.48866870228014886
1700516906856924700,8.691924560546875,-0.5551566789925098,7.3822764889419075,0.692192136941105
1700516906866934800,8.701934814453125,-0.8258972814232111,3.7549557598650454,-0.172236608254537
1700516906876946000,8.71194580078125,-1.8816525352686642,1.3336156251534819,-0.7330633687727153
1700516906886957000,8.72195703125,-2.3258698822081088,6.0920905479311935,-0.29233532525375483
1700516906896968000,8.731968017578126,2.0928280190527437,4.952470431441069,0.35119529130570587
1700516906906977800,8.741977783203126,-1.4436819737643003,1.1248522440124302,-0.672321461431682
1700516906916989000,8.751989013671874,-1.8517191692978143,3.0897394542634484,-0.4480323021177202
1700516906926999800,8.761999755859375,1.1985147885292768,6.5149453733682625,-0.8280275714501738
1700516906937010700,8.7720107421875,0.020599135914444924,2.7424121634975074,0.18077219874653963
1700516906947022000,8.78202197265625,-3.2389965342730282,-0.3534664511080831,0.03754873634539544
1700516906957032000,8.792031982421875,1.9413263749867677,8.399903379923105,-1.0229029316879807
1700516906967042800,8.802042724609375,2.2604420090079307,3.7908471574574705,0.9768138190776109
1700516906977054000,8.812053955078126,-3.8532670810133216,-0.19485417131930588,-1.5497311956882476
1700516906987064800,8.82206494140625,4.204626696035266,6.384183150470257,0.26626327435355635
1700516906997075000,8.832074951171874,1.7772130866289138,6.154733758848905,0.5769616470327601
1700516907007085800,8.8420859375,-1.2388216644763945,0.4897640232361853,0.09487849715538323
1700516907017096700,8.8520966796875,-1.083911673271656,2.7218577435076234,0.18368403107263145
1700516907027107800,8.86210791015625,1.793677314695716,7.2994222646445035,0.8450053019970655
1700516907037119000,8.872118896484375,-2.8480624492317435,0.02277121925652027,0.053764834870025514
1700516907047128800,8.88212890625,-1.8578157326072453,0.2910200048714876,-1.0872202132977544
1700516907057140000,8.892139892578125,0.7856208006143569,6.723037504184246,0.7491369900867343
1700516907067150800,8.90215087890625,0.6740601217925548,2.6963129678845403,-0.2721575565565377
1700516907077161700,8.91216162109375,-1.8500456831276415,-2.7332307859152554,-0.6313685426659882
1700516907087171800,8.922171875,-0.770068426695466,4.629325103512406,0.08982859335467219
1700516907097183000,8.932182861328124,3.1976129690051076,5.460283759978413,0.3404655517702922
1700516907107193900,8.94219384765625,-1.805952274379134,-2.4311592256754637,-0.735801196238771
1700516907117205000,8.952205078125,1.3416992706269024,3.2205244735151526,0.3077905954737216
1700516907127215900,8.9622158203125,2.3454788380414247,5.35016158952713,0.8525964877784251
1700516907137226000,8.97222607421875,-0.036731355547904965,1.1939558831159025,0.03261975551061332
1700516907147236900,8.98223681640625,-1.9517144980102776,-1.1109029213760047,0.5409435543207451
1700516907157247700,8.992247802734376,-0.12596388270556927,5.731646293699741,-0.15290676162354647
1700516907167259000,9.0022587890625,1.5717384448349474,2.634741770112514,0.6823410434037447
1700516907177269000,9.01226904296875,-3.786645029592514,-1.3784049072116613,-1.0219283875674008
1700516907187280000,9.02227978515625,-0.540303393253684,3.6717403010398146,-0.12067111005969344
1700516907197291000,9.032291015625,-1.1075316183120012,5.187521296331286,0.01984247232824564
1700516907207302000,9.042302001953125,-0.012315291693806648,-0.816815710953623,-0.29115196068808435
1700516907217312800,9.052312744140625,-1.915799719542265,-0.1867917147643864,-0.3720596905602142
1700516907227323000,9.062322998046875,-0.39320378353893753,6.217642342704534,0.10906867934297769
1700516907237333800,9.072333740234376,0.923129575163126,1.2214245394736527,-0.5746889528604224
1700516907247345000,9.082344970703126,-1.8830086260527372,-1.9204941609688102,-0.8928384817957877
1700516907257356000,9.09235595703125,1.2771879277497529,3.675583824725449,-0.1872987144384533
1700516907267366000,9.102365966796874,-0.05979658931493759,5.224798595324159,-0.034291597712971265
1700516907277376800,9.112376708984375,1.2888146526575088,0.895587926634401,0.3116628703298047
1700516907287388000,9.122387939453125,-0.386526205471158,-0.6343072995316237,0.0014488471014425157
1700516907297398800,9.132398681640625,-0.17165303621292113,4.713533957289159,-0.5167373338250443
1700516907307409700,9.14240966796875,1.7284189528435467,5.324749500373006,0.6736696611702442
1700516907317419800,9.152419677734375,-2.0561533621281383,-1.502420578458905,0.34236824358645823
1700516907327431000,9.162430908203126,-1.2913906406253575,0.9030576779931783,-0.4687999995321035
1700516907337442000,9.172442138671874,0.5236603014886378,5.123417365211248,0.16621723836716262
1700516907347453000,9.182452880859374,-0.09396540089845656,2.7086890498548746,-0.37826515760421753
1700516907357462800,9.192462890625,0.9727239194154739,0.08047901959866285,0.2135894130580127
1700516907367474000,9.202473876953125,-1.4715467167675493,3.0070322372213005,-0.3116070850219577
1700516907377484800,9.21248486328125,2.342480825269222,6.355691215479373,-0.706437227653712
1700516907387495700,9.22249560546875,0.25538521238863465,0.6320950303096324,0.18652341921702026
1700516907397505800,9.232505859375,-2.2711229774981736,0.5298050878539681,-0.09031787470895797
1700516907407517000,9.242516845703125,1.5001204848229883,3.408794005747139,-0.11473697077035903
1700516907417527800,9.25252783203125,-1.628124348923564,4.232645460556447,0.15209584709946064
1700516907427539000,9.2625390625,2.8175094900578257,1.2937792893275617,0.1980313400506973
1700516907437548800,9.272548828125,-2.347693591481447,-0.8305793748248368,-0.11757036756537854
1700516907447560000,9.282559814453125,-0.36415479918718335,4.665952121903002,0.5385626505335792
1700516907457570800,9.29257080078125,1.9315917474359272,5.28126867056489,-0.09815883400030434
1700516907467582000,9.30258203125,-4.136517620927095,-0.8179546518556773,-0.03576671176683158
1700516907477592800,9.3125927734375,-0.4495990399777889,1.1893050616353749,0.21809256969615815
1700516907487603000,9.32260302734375,-0.42070553844869135,4.337031717704236,-0.14631631384994834
1700516907497613800,9.33261376953125,-1.1844359942942857,4.098804853126406,-0.22271496879979966
1700516907507625000,9.342625,0.7714338698297739,1.19350587432608,0.22590813881792127
1700516907517635800,9.3526357421875,-1.0976982065618037,2.1570808571241793,-0.23272929007485507
1700516907527646000,9.36264599609375,0.8151081763833761,6.5255006696522235,-0.3927850101375952
1700516907537656800,9.37265673828125,-0.4352864369869232,2.7868901876494285,0.5968038636326789
1700516907547668000,9.38266796875,-2.78380069720149,0.21690241006352007,0.033058914112858474
1700516907557678800,9.392678955078125,-0.9653829090029,2.667322435721755,-0.9969172804296016
1700516907567689000,9.40268896484375,-0.03763444186747074,5.204655386483669,0.7284710725463927
1700516907577699800,9.412699951171875,0.48237142876684663,2.6686671283289787,-0.5178182243969291
1700516907587711000,9.4227109375,0.019175825113058088,1.2836606308951972,-0.3665518138589337
1700516907597721900,9.432721923828124,0.39541561436951156,3.1291657479837536,-0.22981135680153963
1700516907607731700,9.442731689453124,0.00964519570171833,5.539449651151895,-0.07176138707064092
1700516907617742800,9.452742919921874,0.9202858761698007,3.674671093794703,-0.259083591982536
1700516907627754000,9.46275390625,-0.3772714703917503,2.027573164331913,0.42891302949748933
1700516907637764900,9.472764892578125,1.1479524760276079,3.7865523828729986,-0.3661931731469929
1700516907647776000,9.48277587890625,-0.15629706164896487,5.063849908477068,0.32821386336460706
1700516907657785900,9.492785888671875,-1.6795266193807123,3.623469606606662,0.11912271157391369
1700516907667800300,9.50280029296875,-1.4326362636148928,0.9617597500696777,0.4034826009690761
1700516907677811700,9.512811767578125,-0.7400450443536043,1.9870041303172707,-0.6753530842125416
1700516907687822600,9.522822509765625,0.28559447269141675,5.2545753094285725,0.31921496620979156
1700516907697832700,9.532832763671875,0.5593699127733707,4.421228881043196,0.1000913729654625
1700516907707843600,9.542843505859375,-0.14576222363114355,0.9090374099899082,-0.22290504801180214
1700516907717854500,9.5528544921875,0.5315408256053924,3.305409619118273,-0.5448265697665512
1700516907727865300,9.562865234375,0.9780553435713052,4.863278820815682,0.8604840261578559
1700516907737875500,9.57287548828125,-1.3462521116256714,4.873005849581957,0.06531462208405137
1700516907747886300,9.58288623046875,1.0834311962783336,2.425111762204766,0.6786125974651426
1700516907757897700,9.592897705078125,-0.3682873689472675,2.6552342307820913,0.21035408439859746
1700516907767908600,9.60290869140625,-0.9599024317651986,4.577089889362454,0.611405293502286
1700516907777918500,9.61291845703125,-0.2244447152018547,5.554010091423988,0.3030791298471391
1700516907787929600,9.6229296875,-1.1580465845406054,2.8692531212985513,0.20204645744357258
1700516907797940500,9.6329404296875,-0.4621387880772352,2.356782760735601,0.1229242227487266
1700516907807951400,9.642951416015626,-0.04783551788628101,4.2528100044459105,-0.2160135714650154
1700516907817961500,9.65296142578125,-0.7210778935551643,4.28460974881053,0.39902511010356245
1700516907827972600,9.66297265625,-1.5651842008858918,3.724558283513784,-0.4643644647700712
1700516907837983500,9.6729833984375,0.24640695616304872,2.7206869461625813,0.39193179084174334
1700516907847994600,9.68299462890625,0.7671750433415174,3.179100576236844,-0.19932521578613668
1700516907858005500,9.693005615234375,0.8340396713465452,3.3183576557576653,-0.19594777524229137
1700516907868015600,9.703015625,-2.099931713578105,5.189735465249419,-0.053800563770532606
1700516907878026500,9.713026611328125,-0.38079964451789855,3.3381565812051295,-0.34193894879110154
1700516907888037400,9.723037353515625,1.0651952823638915,2.783005162909627,-0.1445399883598089
1700516907898048500,9.733048583984376,-0.49550329754054545,3.3863200158715245,0.17684114290792494
1700516907908058600,9.74305859375,-1.5550053366988896,2.711303031745553,-0.04429967191033065
1700516907918069500,9.753069580078124,-2.6334078911602496,2.789782109698653,-0.4249151555003598
1700516907928080600,9.76308056640625,-1.1215478687047957,1.3475558877006173,0.2470682696159929
1700516907938091500,9.773091552734375,0.5315595303058624,0.8008968418098986,0.07575049323942512
1700516907948101600,9.7831015625,0.08043313463032245,-0.46656624913066624,-0.018484189587086437
1700516907958112500,9.793112548828125,-0.21733692902326582,1.163975609263405,-0.5289027687193826
1700516907968123400,9.803123291015625,0.4056657902270555,1.652171287204325,-0.24064974434319883
1700516907978134500,9.813134521484375,0.4945628018200397,-1.9636764462217688,0.3936604777978733
1700516907988144600,9.82314453125,1.084842232120037,-0.7177669423762708,-0.7715909600876272
1700516907998155500,9.833155517578126,0.036872225323319435,-0.3032044367272407,-0.10419698165338485
1700516908008166700,9.843166748046874,-0.8839011421024798,-0.4092665911979973,-0.20653511063233015
1700516908018177500,9.853177490234375,-0.3801841429680586,-0.1737044157847762,-0.17688428792990743
1700516908028187400,9.8631875,0.660195262569189,-2.2352105371177196,0.5985046031359583
1700516908038198500,9.873198486328125,-0.8935995292961597,-1.1420929363444448,-0.3714906585006043
1700516908048209400,9.88320947265625,-0.24510931756794452,0.07408610369116067,0.14857402964886277
1700516908058220500,9.893220458984375,0.6407178241610527,-0.8715249140016734,0.5381714957915246
1700516908068230700,9.903230712890625,0.933430019903183,-1.916972562713921,0.24784053263012318
1700516908078241500,9.913241455078126,-0.278001533344388,-0.7970181006804108,0.14763547015711664
1700516908088252700,9.923252685546874,-0.5627642313867807,-0.7496059227727353,-0.18687654350362717
1700516908098262500,9.933262451171874,0.5699035817474126,-0.9705825234726071,0.3723752227827906
1700516908108273400,9.9432734375,-0.6900473799973725,-0.30342575132772326,-0.1400073864314705
1700516908118284500,9.953284423828125,1.763290359738469,-1.7251086592517793,-0.15100363141596315
1700516908128295400,9.96329541015625,-0.18033435531854627,-0.8526863580189645,0.2503669093025848
1700516908138305500,9.973305419921875,0.00841477712392807,-0.19686046964041887,-0.6984386301152408
1700516908148316700,9.983316650390625,2.6125036348193884,0.9598615152329206,-0.25036643437854944
1700516908158327600,9.99332763671875,-0.850800836533308,-1.0964186150800437,0.6886861015815288
1700516908168338400,10.00333837890625,-1.7003098796904086,-0.9515165154095738,0.019791618923842905
1700516908178348500,10.0133486328125,0.5467237816900015,1.1127320364993065,-0.795756994703412
1700516908188359400,10.023359375,2.4226006561666726,0.14629413855075835,0.3549035712391138
1700516908198370600,10.03337060546875,1.0919096862882376,-0.001358867263048887,-0.15639646690282968
1700516908208381700,10.043381591796875,-1.1926859362453222,1.5322921312399207,0.5814797820443287
1700516908218391300,10.053391357421875,0.3612538170486688,0.047664472168311475,0.7972453335650265
1700516908228402700,10.063402587890625,-0.21495324875712393,0.0836225783213973,-0.9104898738205432
1700516908238413600,10.07341357421875,-0.21094810476899145,2.0649562617868185,0.37593306139484045
1700516908248424400,10.083424560546876,0.7169166822224855,0.7669325398225337,-0.08071315714810043
1700516908258434600,10.0934345703125,0.2491314126908779,-0.9109761960327625,-0.6397292515151203
1700516908268445400,10.103445556640626,-1.6082044274449347,1.30823626922518,0.7627762969259172
1700516908278456600,10.11345654296875,-0.4658364735513925,0.9650344608914107,0.0680023998633027
1700516908288467700,10.1234677734375,-0.18263737156391144,1.167769156327471,-0.6447245755843818
1700516908298477600,10.1334775390625,-0.022706921848654745,0.6857622500240802,0.04825001697130501
1700516908308488700,10.14348876953125,1.3113386191546916,0.11422887511774897,-0.2636659148041159
1700516908318499600,10.15349951171875,-2.1668922031730413,-0.010515914121642708,-0.06515322097726166
1700516908328510500,10.163510498046875,-0.6299287191212177,1.9887363609373567,0.043866614255309105
1700516908338520600,10.1735205078125,1.1892682367563248,0.32572562674544747,0.2123700638635084
1700516908348531500,10.183531494140626,0.5213000020980835,-1.6429152369506657,-0.24858755160514265
1700516908358542300,10.193542236328126,-1.2270113996952772,0.46209451054409145,-0.14785057421252132
1700516908368552400,10.203552490234374,-0.20576690273880957,0.11129128729589283,0.41401345693152397
1700516908378563600,10.2135634765625,-0.16383213332891464,0.5655608763679861,-0.13582871250733733
1700516908388574700,10.22357470703125,-0.35053485463559625,-0.9855517637412995,0.28360465058106926
1700516908398585600,10.233585693359375,2.2794500763386485,-0.8178936423834413,0.06738748283535241
1700516908408595500,10.243595458984375,-0.843739812105894,-0.6826685948576777,-0.32496326407082377
1700516908418606600,10.253606689453125,-1.120671085870266,1.1408972237538546,-0.1347180478516966
1700516908428617500,10.263617431640625,0.9831699101060628,0.16286781834140418,0.39715858557932077
1700516908438628400,10.27362841796875,1.0116139143019913,-2.3635506474353374,-0.08829327354617417
1700516908448638500,10.283638427734376,-0.3933405616611242,0.4661858715109527,-0.4704147777849808
1700516908458649600,10.293649658203124,-1.117414714422822,-0.1274641312006861,0.4323709879316389
1700516908468660500,10.303660400390624,0.24610183573663233,1.0243298957511782,-0.34155477177910504
1700516908478671600,10.313671630859375,0.105296357730031,-0.842831465089321,0.2096279255485162
1700516908488681500,10.323681396484375,1.5847773746281861,-0.2532777917806059,-0.03902377733401954
1700516908498692600,10.333692626953125,-0.5667793122470378,-0.01945917209908366,-0.15368322588875888
1700516908508703500,10.343703369140625,-1.2581892127692698,1.4103241863027214,-0.3797384084945544
1700516908518713600,10.353713623046875,0.9139771314144134,1.0793919308248907,0.22708397766426205
1700516908528724500,10.363724365234376,1.1902701072752475,-1.5156497701272367,0.27885179349817335
1700516908538735600,10.373735595703126,-1.1679735197931527,0.7719438651785254,-0.5346832152843475
1700516908548746500,10.38374658203125,-0.5877139637261629,0.5641807471211999,0.5127029272098094
1700516908558756600,10.393756591796874,-0.23089374521076678,1.197854278793931,-0.30390820108242333
1700516908568767500,10.403767578125,0.07754442745149136,-0.3232750187229365,0.18784516934007406
1700516908578778600,10.413778564453125,1.7209657142281531,0.0708471948351711,0.06115008628312498
1700516908588789500,10.42378955078125,-1.6501193231105804,0.17565503839589655,-0.36315205188542604
1700516908598799400,10.43379931640625,-0.9596458266556263,1.7866702124126255,-0.16571246718280017
1700516908608810500,10.443810546875,1.3680717292457818,0.48414632948487996,0.25480726637020706
1700516908618821600,10.453821533203126,0.9418623326838016,-1.6453021320872008,-0.08946326717361808
1700516908628831700,10.463831787109376,-1.5495482403367757,0.9984909594871103,-0.48424021831341085
1700516908638842600,10.473842529296874,-0.624040245604515,0.40585846325494346,0.5336860940057784
1700516908648853500,10.483853515625,0.011180734705924986,0.7721027090020477,-0.5186506566330791
1700516908658864400,10.493864501953125,0.4695043484091758,-1.14500180952847,0.5330285434124991
1700516908668875000,10.503875,1.7459148620456457,-0.31658743071779605,-0.1554918096806854
1700516908678886000,10.513885986328125,-1.845600394156575,-0.019208923665061592,-0.18450948557872324
1700516908688897000,10.52389697265625,-0.6429062741160393,1.6798057285830377,0.04615914563927799
1700516908698907100,10.5339072265625,1.743562161439657,-0.7222625732950866,0.2874825879929587
1700516908708918000,10.54391796875,0.6398077235788107,-1.5738807175606488,-0.06272822232004255
1700516908718929200,10.55392919921875,-1.7411837418705225,0.6102121381949633,-0.05149042366463691
1700516908728940000,10.56393994140625,0.0550859274059534,0.4044941160991788,0.2107054916521534
1700516908738950000,10.573949951171874,-0.34738369712829587,0.4345649908445775,-0.19197470689285545
1700516908748961000,10.5839609375,0.989132033380866,-1.236292876651138,0.5875898989550769
1700516908758972000,10.593971923828125,1.0896072545647622,0.10378463799282908,-0.4009281307132914
1700516908768982000,10.60398193359375,-2.478329557651281,0.13033449900522828,0.026557167536020276
1700516908778993200,10.6139931640625,0.3270072640538215,1.896912355981767,-0.21776015940401702
1700516908789004000,10.624004150390626,1.9706483310610055,-1.329276573035866,0.2761922189000994
1700516908799015200,10.63401513671875,-0.25349486859738823,-0.2766664853483438,-0.3560851822391152
1700516908809025000,10.64402490234375,-2.052584855991602,0.631364670208469,0.18027385730296372
1700516908819036000,10.654035888671874,0.5600988115698099,1.0062536293778568,-0.07267868457864969
1700516908829047000,10.664047119140625,-0.22618483686745167,-0.016027663280442354,-0.13253160719070584
1700516908839057000,10.674056884765625,1.573914035308361,-0.821061531829834,0.42553920568283643
1700516908849068000,10.684068115234375,-0.24726912595033645,0.4999001442600041,-0.5652151682028547
1700516908859079200,10.6940791015625,-1.909111620080471,0.7111933361396193,0.13494922625906763
1700516908869090000,10.704090087890625,0.7485141820132732,1.6425298908948898,-0.23505612558722494
1700516908879100200,10.71410009765625,1.6826041271299124,-1.6721192657336592,0.21253398572094737
1700516908889111000,10.724111083984376,-0.7585100908488035,0.3910188407152891,-0.5029399503473192
1700516908899122000,10.734121826171876,-1.6069436137288808,0.4238888446599245,0.4195250234272331
1700516908909132000,10.744132080078124,0.44489656137526035,1.149939046734944,-0.2968393221421167
1700516908919143000,10.754142822265624,-0.2107715791583061,-0.4636876249544322,0.12577950258199125
1700516908929153800,10.76415380859375,1.848424219405651,-0.7405508749838918,0.20320019405595957
1700516908939165200,10.774165283203125,-0.8639525790512561,0.19170308687724172,-0.5671210383567958
1700516908949175000,10.784175048828125,-1.450833014562726,0.9401292252808808,0.26581129280235616
1700516908959186200,10.794186279296875,1.091964631345868,0.7660925088018179,-0.11066004018764942
1700516908969197000,10.804197021484375,1.3580337348341942,-2.061001386681199,0.18395451857708395
1700516908979207000,10.81420703125,-1.2733610629379748,0.6671715313225984,-0.43947782426215704
1700516908989218000,10.824218017578126,-0.8238894487321377,0.04820500878579914,0.4468859450941905
1700516908999229000,10.83422900390625,0.26747604767680166,1.016303241162002,-0.31123872663360086
1700516909009240000,10.844239990234374,0.08294365614652634,-1.2423805260017513,0.4027999159345403
1700516909019250200,10.854250244140625,1.810654168459773,-0.1682511188149452,-0.13432261879332363
1700516909029261000,10.864260986328125,-1.7469576490968466,-0.08388064473569393,-0.20195768318157642
1700516909039272200,10.874272216796875,-0.6381091029673814,1.3824074208512902,0.0016551102632656692
1700516909049282000,10.884281982421875,1.290970369386673,-0.02742299058511853,0.048561494073271746
1700516909059293000,10.89429296875,1.073935638180375,-1.3193997605353593,0.08518558985441922
1700516909069304000,10.904303955078126,-2.173699545100331,0.8489443219464272,-0.2030261891959235
1700516909079314000,10.91431396484375,-0.09794716401100158,0.3149159903742373,0.3017902956129983
1700516909089325000,10.924324951171876,0.32042671661973,0.9233147224716841,-0.31711846885457634
1700516909099336200,10.934336181640624,0.31033786880373954,-1.0842373250294477,0.4945643361900001
1700516909109347000,10.94434716796875,1.4023872558236121,0.3401032577965408,-0.24108061004113404
1700516909119357200,10.954357177734375,-2.2137293576717374,-0.16733137362152337,-0.07204977555796503
1700516909129368000,10.9643681640625,0.05877952122688293,1.8626012133181093,-0.2026487707182765
1700516909139379000,10.97437890625,1.3797317719012498,-0.4932552263528108,0.23839338025115428
1700516909149389000,10.98438916015625,0.7089753678292036,-0.8987872341323644,-0.024900230641849336
1700516909159400000,10.99439990234375,-2.172933821424842,0.7806409663751721,-0.17469298843070863
1700516909169410800,11.004410888671876,0.49993514250814913,0.543860939604789,0.2807469230623916
1700516909179421000,11.0144208984375,-0.3662842124313116,0.7569520477518439,-0.22775712768547235
1700516909189432000,11.02443212890625,0.7767886748611926,-1.0312043115653098,0.35134584222491827
1700516909199443200,11.034443115234374,0.8194879989027977,0.09832710323929786,-0.19342958187628537
1700516909209454000,11.0444541015625,-1.5151444509536027,-0.14241656646504997,-0.1300882691591978
1700516909219464000,11.0544638671875,0.0899076499402523,1.558011971168965,-0.11627514012306928
1700516909229475000,11.06447509765625,1.2887532778590918,-0.8134748760931193,0.18774514303170142
1700516909239486000,11.07448583984375,0.03544599191248417,-0.7794216537132859,0.02807849535178393
1700516909249496000,11.08449609375,-1.7480828537344932,0.2702022577702999,-0.20908483164776115
1700516909259507000,11.0945068359375,0.9458756599783897,0.3374620225727558,0.1032946259861812
1700516909269518000,11.10451806640625,-0.5120283158838749,0.46304581991955635,-0.2104466945854947
1700516909279528200,11.114528076171876,0.5508510907530785,-0.902293415622413,0.3420377329904586
1700516909289539000,11.1245390625,0.43050387888550756,0.30965090945288537,-0.26663868353720754
1700516909299550000,11.134550048828125,-1.5700684657961128,-0.36829628290608524,-0.0605838307024911
1700516909309561000,11.14456103515625,0.49539399194717404,1.5813123288661242,-0.2777834336142987
1700516909319571000,11.154571044921875,1.2153355749487875,-0.7684691748052835,0.3012980185840279
1700516909329582000,11.16458203125,-0.13791969343721866,-0.5226645684495568,-0.16182583500780165
