time,seconds_elapsed,z,y,x
1700516898182579500,0.017579345703125,0.042927492409944534,-0.2717606723308563,0.17643974721431732
1700516898192590600,0.027590576171875,-0.037748176604509354,0.010853180661797523,-0.26130056381225586
1700516898202600400,0.037600341796875,-0.035226695239543915,0.10783884674310684,-0.18432855606079102
1700516898212611300,0.047611328125,0.029641248285770416,-0.0664309561252594,0.14131638407707214
1700516898222622500,0.05762255859375,0.044070787727832794,-0.042809247970581055,0.04180736839771271
1700516898232633600,0.067633544921875,-0.029636455699801445,0.05520093813538551,-0.22881373763084412
1700516898242643700,0.077643798828125,-0.012860670685768127,-0.04723142832517624,-0.012256399728357792
1700516898252654600,0.087654541015625,0.030775489285588264,0.00031132352887652814,-0.02213406376540661
1700516898262665500,0.09766552734375,0.036457609385252,0.19266319274902344,0.15938566625118256
1700516898272676400,0.10767626953125,-0.0034325483720749617,-0.3232062757015228,0.09554489701986313
1700516898282686500,0.1176865234375,-0.030538467690348625,0.23982937633991241,-0.27569150924682617
1700516898292697300,0.127697265625,0.015691611915826797,-0.01264096051454544,0.010423879139125347
1700516898302708500,0.13770849609375,0.04301005229353905,0.014317953027784824,0.20450973510742188
1700516898312719600,0.1477197265625,0.01624315232038498,-0.07690224051475525,-0.07077004015445709
1700516898322730500,0.15773046875,-0.04891081899404526,0.14251241087913513,-0.15536321699619293
1700516898332740600,0.16774072265625,0.024501614272594452,-0.14700941741466522,0.07760105282068253
1700516898342751500,0.17775146484375,0.011178884655237198,0.18678240478038788,0.026401514187455177
1700516898352762400,0.187762451171875,0.03380856290459633,-0.019097527489066124,0.276119202375412
1700516898362773500,0.1977734375,-0.030083067715168,-0.18186061084270477,-0.09442850202322006
1700516898372783400,0.207783447265625,-0.055203866213560104,0.15579812228679657,-0.21699969470500946
1700516898382794500,0.21779443359375,0.0006402239087037742,-0.11479102820158005,0.13872751593589783
1700516898392805600,0.2278056640625,0.02280597947537899,-0.007352188695222139,0.16616606712341309
1700516898402816500,0.23781640625,-0.04062172770500183,-0.08946197479963303,-0.15694274008274078
1700516898412826600,0.24782666015625,-0.07397729158401489,0.10754110664129257,-0.0757291167974472
1700516898422837500,0.25783740234375,-0.00011584750609472394,-0.17321652173995972,0.09176720678806305
1700516898432848400,0.267848388671875,-0.01666046865284443,0.22801372408866882,0.025061145424842834
1700516898442859500,0.277859619140625,0.014913169667124748,-0.2561492323875427,0.27228957414627075
1700516898452869400,0.287869384765625,-0.05836663767695427,0.06036720424890518,-0.24459296464920044
1700516898462880500,0.297880615234375,-0.02857918106019497,0.08241817355155945,-0.1186765804886818
1700516898472891600,0.3078916015625,0.02413090318441391,-0.016876984387636185,0.1839788854122162
1700516898482902500,0.317902587890625,0.03923715278506279,-0.049857039004564285,0.12395976483821869
1700516898492912600,0.32791259765625,-0.031748607754707336,0.06029289960861206,-0.21306993067264557
1700516898502923500,0.337923583984375,-0.012945093214511871,0.0011683288030326366,0.013276390731334686
1700516898512934400,0.347934326171875,0.008712531067430973,-0.03949334844946861,0.05982977896928787
1700516898522945300,0.3579453125,0.012229235842823982,0.18882638216018677,0.11223626136779785
1700516898532956700,0.367956787109375,0.016533702611923218,-0.3211684226989746,0.182514950633049
1700516898542966500,0.377966552734375,-0.048238903284072876,0.22014620900154114,-0.3611203730106354
1700516898552977700,0.387977783203125,-0.006256298162043095,-0.04653261601924896,0.017474863678216934
1700516898562988500,0.397988525390625,0.0333411805331707,0.059373579919338226,0.1887829601764679
1700516898572999400,0.40799951171875,0.02714559994637966,-0.08371353894472122,-0.007905327714979649
1700516898583009500,0.418009521484375,-0.030705181881785393,0.153769850730896,-0.2362772524356842
1700516898593020400,0.4280205078125,0.028656678274273872,-0.0852682888507843,0.08479664474725723
1700516898603031300,0.43803125,0.027936026453971863,0.08643954992294312,0.023257385939359665
1700516898613042700,0.448042724609375,0.04177753999829292,0.1011069118976593,0.15908685326576233
1700516898623052500,0.458052490234375,0.01636219583451748,-0.23181937634944916,-0.004954811185598373
1700516898633063700,0.468063720703125,-0.030051376670598984,0.21936537325382233,-0.30399638414382935
1700516898643074600,0.478074462890625,0.008171909488737583,-0.11537399888038635,0.10017932951450348
1700516898653085400,0.48808544921875,0.04465934634208679,0.08984919637441635,0.170244961977005
1700516898663096000,0.498095947265625,0.022458437830209732,-0.1087014451622963,-0.10571897029876709
1700516898673106200,0.508106201171875,-0.05164401978254318,0.16062216460704803,-0.19910670816898346
1700516898683117000,0.518116943359375,0.03713298588991165,-0.15296797454357147,0.1378505378961563
1700516898693128200,0.528128173828125,0.007649663835763931,0.15021640062332153,-0.003171025775372982
1700516898703139000,0.53813916015625,0.04735073819756508,-0.014633004553616047,0.2091476321220398
1700516898713149200,0.548149169921875,-0.008131695911288261,-0.1436477154493332,-0.1082625538110733
1700516898723160000,0.55816015625,-0.04355653375387192,0.1538904905319214,-0.27173298597335815
1700516898733171200,0.568171142578125,0.01034478284418583,-0.12106277793645859,0.10736826807260513
1700516898743182000,0.57818212890625,0.031143272295594215,0.016717461869120598,0.14547863602638245
1700516898753192200,0.588192138671875,-0.006873618811368942,-0.07170454412698746,-0.16420331597328186
1700516898763203000,0.598203125,-0.050997402518987656,0.12759897112846375,-0.15135037899017334
1700516898773214200,0.608214111328125,0.038606781512498856,-0.1392606943845749,0.1015884131193161
1700516898783225000,0.61822509765625,0.0005331648280844092,0.21424119174480438,-0.011803662404417992
1700516898793235000,0.62823486328125,0.051950547844171524,-0.1060100570321083,0.2469586580991745
1700516898803246000,0.63824609375,-0.018340125679969788,-0.048837579786777496,-0.22111347317695618
1700516898813257200,0.64825732421875,-0.03201545774936676,0.15376612544059753,-0.2534511685371399
1700516898823268000,0.65826806640625,0.03452602028846741,-0.10176338255405426,0.13411545753479004
1700516898833278200,0.6682783203125,0.046178679913282394,0.030068419873714447,0.12345802038908005
1700516898843289000,0.6782890625,0.0029920614324510098,-0.03387168049812317,-0.20403754711151123
1700516898853300000,0.688300048828125,-0.04495256021618843,0.09411238133907318,-0.06222635507583618
1700516898863311000,0.69831103515625,0.034457042813301086,-0.09883177280426025,0.09403834491968155
1700516898873322000,0.708322021484375,0.009974070824682713,0.24435462057590485,0.04521488398313522
1700516898883332000,0.71833203125,0.03948668763041496,-0.20480427145957947,0.25786322355270386
1700516898893343200,0.72834326171875,-0.034749992191791534,0.09903710335493088,-0.26560717821121216
1700516898903354000,0.73835400390625,-0.025412149727344513,0.07204729318618774,-0.07547744363546371
1700516898913365200,0.748365234375,0.03520086407661438,-0.05209462717175484,0.20941980183124542
1700516898923375000,0.758375,0.03954820707440376,0.002831739140674472,0.0849849283695221
1700516898933386000,0.768385986328125,-0.03640594333410263,0.020083962008357048,-0.197457954287529
1700516898943397000,0.778397216796875,-0.011357050389051437,0.01113121397793293,0.04253707453608513
1700516898953408000,0.788407958984375,0.02062884531915188,-0.027820711955428123,0.09182099997997284
1700516898963418000,0.798418212890625,0.00920202024281025,0.18379566073417664,0.06004602462053299
1700516898973429200,0.80842919921875,0.011568238958716393,-0.3068728446960449,0.17409563064575195
1700516898983440100,0.818440185546875,-0.04241723194718361,0.22128471732139587,-0.3402739465236664
1700516898993451000,0.828450927734375,-0.02375619485974312,-0.10287711024284363,0.027842549607157707
1700516899003462100,0.838462158203125,0.033420808613300323,0.037348438054323196,0.1819053590297699
1700516899013472000,0.848471923828125,0.021100224927067757,-0.06995298713445663,-0.016233565285801888
1700516899023483100,0.858483154296875,-0.06028038263320923,0.09014027565717697,-0.23330968618392944
1700516899033494300,0.868494384765625,0.018262892961502075,-0.09613372385501862,0.09196454286575317
1700516899043505200,0.878505126953125,0.021278390660881996,0.03707785904407501,0.027481159195303917
1700516899053515300,0.888515380859375,0.016814665868878365,0.0768100917339325,0.13252076506614685
1700516899063526100,0.898526123046875,-0.005690376274287701,-0.26079538464546204,0.01601252146065235
1700516899073537000,0.908537109375,-0.039746612310409546,0.19466190040111542,-0.3142884373664856
1700516899083548200,0.918548095703125,-0.017773937433958054,-0.1453939527273178,0.07545161247253418
1700516899093558000,0.92855810546875,0.024700285866856575,0.055807072669267654,0.17063619196414948
1700516899103569200,0.938569091796875,0.00034115093876607716,-0.1438051015138626,-0.08667337894439697
1700516899113580300,0.948580322265625,-0.0692182183265686,0.14372174441814423,-0.2191171646118164
1700516899123591200,0.958591064453125,0.024112526327371597,-0.17063724994659424,0.13953791558742523
1700516899133602000,0.96860205078125,0.0018213358707726002,0.10363957285881042,0.006133792456239462
1700516899143612200,0.978612060546875,0.01780536212027073,0.011502991430461407,0.18683326244354248
1700516899153623000,0.988623046875,-0.013184511102735996,-0.19751760363578796,-0.06903419643640518
1700516899163634200,0.99863427734375,-0.03353052958846092,0.21636798977851868,-0.26073145866394043
1700516899173645000,1.00864501953125,0.0019475696608424187,-0.15834996104240417,0.15816088020801544
1700516899183655000,1.018655029296875,0.027951739728450775,0.07397755235433578,0.15257009863853455
1700516899193666300,1.028666259765625,-0.009794307872653008,-0.11792077869176865,-0.14344877004623413
1700516899203677200,1.03867724609375,-0.053169745951890945,0.14424319565296173,-0.13967081904411316
1700516899213688000,1.04868798828125,0.03280108794569969,-0.1910807341337204,0.151397243142128
1700516899223698200,1.0586982421875,-0.00039175100391730666,0.18379619717597961,-0.0010404969798400998
1700516899233709000,1.068708984375,0.01715634949505329,-0.09699126332998276,0.20659232139587402
1700516899243720000,1.078719970703125,-0.030499054118990898,-0.09302661567926407,-0.14234063029289246
1700516899253731000,1.08873095703125,-0.03130918741226196,0.12548096477985382,-0.19292977452278137
1700516899263742200,1.0987421875,0.004791825544089079,-0.12722240388393402,0.15815341472625732
1700516899273752300,1.10875244140625,0.02418736182153225,0.03900971636176109,0.11386771500110626
1700516899283763200,1.11876318359375,-0.02912406250834465,-0.11332789063453674,-0.2004137933254242
1700516899293774000,1.128774169921875,-0.041666753590106964,0.08893280476331711,-0.09314832091331482
1700516899303785000,1.138784912109375,0.014599449001252651,-0.18689025938510895,0.11092811822891235
1700516899313795000,1.148795166015625,-0.004037618637084961,0.192377969622612,-0.021530326455831528
1700516899323806000,1.158805908203125,0.013496367260813713,-0.20009048283100128,0.21795204281806946
1700516899333817000,1.168817138671875,-0.05591360107064247,-0.0302636306732893,-0.2515912353992462
1700516899343828200,1.178828125,-0.0365351065993309,0.07956539839506149,-0.16944122314453125
1700516899353838000,1.188838134765625,0.0025068335235118866,-0.1289324164390564,0.13064083456993103
1700516899363849200,1.19884912109375,0.021256286650896072,-0.053609699010849,0.037407293915748596
1700516899373860000,1.208860107421875,-0.058587413281202316,-0.08499984443187714,-0.26778483390808105
1700516899383871000,1.21887109375,-0.0459565743803978,0.07207978516817093,-0.07335144281387329
1700516899393882000,1.228882080078125,0.0018303906545042992,-0.16413168609142303,0.09239091724157333
1700516899403892000,1.23889208984375,-0.002730805426836014,0.18739944696426392,-0.0142329977825284
1700516899413903400,1.2489033203125,0.02165229804813862,-0.24519404768943787,0.1852007508277893
1700516899423914200,1.258914306640625,-0.05384139344096184,0.06311292201280594,-0.29745298624038696
1700516899433925000,1.268925048828125,-0.029389847069978714,0.06364049762487411,-0.13946521282196045
1700516899443935200,1.278935302734375,0.024991104379296303,-0.06945550441741943,0.1273217350244522
1700516899453946000,1.288946044921875,0.029079854488372803,-0.07644017785787582,0.03882782161235809
1700516899463957000,1.29895703125,-0.050503119826316833,-0.023727433755993843,-0.2928622364997864
1700516899473968000,1.308968017578125,-0.022040054202079773,0.07221454381942749,-0.10325155407190323
1700516899483979300,1.318979248046875,-0.0002205097407568246,-0.1446402668952942,0.03051423281431198
1700516899493989000,1.328989013671875,0.000041811628761934116,0.17852899432182312,-0.0009648632840253413
1700516899504000300,1.339000244140625,0.010660633444786072,-0.3112950325012207,0.14227911829948425
1700516899514011100,1.34901123046875,-0.08526083827018738,0.055450741201639175,-0.38343900442123413
1700516899524022000,1.35902197265625,-0.02509789541363716,0.14428633451461792,-0.3009156286716461
1700516899534032100,1.3690322265625,-0.01515871286392212,-0.16065971553325653,0.0178756695240736
1700516899544043000,1.37904296875,0.022398782894015312,-0.15123026072978973,-0.02172180637717247
1700516899554054100,1.38905419921875,-0.027171699330210686,0.014073207974433899,-0.38951048254966736
1700516899564065300,1.399065185546875,-0.035957999527454376,0.14141598343849182,-0.3944714069366455
1700516899574075100,1.4090751953125,-0.011578625068068504,-0.16400384902954102,-0.2414427101612091
1700516899584086300,1.419086181640625,-0.023736754432320595,-0.017342770472168922,-0.12883521616458893
1700516899594097200,1.42909716796875,-0.01375336293131113,0.1390518993139267,0.24226190149784088
1700516899604108000,1.43910791015625,-0.019992349669337273,-0.12240740656852722,0.2769421339035034
1700516899614119200,1.449119140625,0.005495699122548103,-0.02220144309103489,-0.09305990487337112
1700516899624129000,1.45912890625,-0.026885677129030228,0.10862740874290466,-0.3807966113090515
1700516899634140000,1.469139892578125,-0.012296080589294434,-0.027004985138773918,-0.18465746939182281
1700516899644151300,1.4791513671875,0.004007791168987751,-0.16551253199577332,0.054555654525756836
1700516899654162200,1.489162109375,-0.0356685146689415,0.10487794876098633,0.04267875477671623
1700516899664172300,1.49917236328125,0.00273693073540926,0.050334542989730835,0.045278798788785934
1700516899674183400,1.509183349609375,-0.002290851203724742,-0.08920098096132278,0.03387833759188652
1700516899684194300,1.5191943359375,-0.010205499827861786,0.06678595393896103,0.17421548068523407
1700516899694205200,1.529205078125,0.0025904567446559668,-0.019834158942103386,0.004650411661714315
1700516899704216600,1.539216552734375,-0.0032567796297371387,0.01497921533882618,-0.23701387643814087
1700516899714226400,1.549226318359375,-0.04586789011955261,0.031793348491191864,-0.25329163670539856
1700516899724237600,1.559237548828125,-0.009215602651238441,0.014855378307402134,0.03205060958862305
1700516899734248400,1.56924853515625,0.015590943396091461,-0.10863246768712997,0.1934480220079422
1700516899744259300,1.57925927734375,-0.028962675482034683,0.14006443321704865,0.06649087369441986
1700516899754269400,1.58926953125,0.01284629013389349,-0.037566814571619034,-0.03092808835208416
1700516899764280300,1.5992802734375,-0.0021486382465809584,-0.0015539544401690364,-0.04102998971939087
1700516899774291200,1.609291259765625,0.03892103210091591,0.06921928375959396,0.2953890264034271
1700516899784302600,1.619302490234375,-0.03455611318349838,-0.18804074823856354,-0.05523289367556572
1700516899794313500,1.6293134765625,-0.0007360977469943464,0.32491204142570496,-0.15758056938648224
1700516899804323300,1.6393232421875,0.03230733796954155,-0.11673833429813385,0.20497524738311768
1700516899814334500,1.64933447265625,0.005961219780147076,-0.24481773376464844,0.14400218427181244
1700516899824345300,1.659345458984375,-0.021472003310918808,0.31207239627838135,-0.1722836196422577
1700516899834356200,1.669356201171875,0.03877083212137222,-0.09747009724378586,0.04171202704310417
1700516899844366300,1.679366455078125,0.017524132505059242,-0.04712862893939018,0.02876320481300354
1700516899854377200,1.689377197265625,0.008732238784432411,0.3080805838108063,0.2024465799331665
1700516899864388400,1.699388427734375,0.052325520664453506,-0.49695730209350586,0.18406571447849274
1700516899874399500,1.7093994140625,-0.040651287883520126,0.3472844660282135,-0.2790990173816681
1700516899884410400,1.719410400390625,-0.013259879313409328,0.07753873616456985,-0.018085792660713196
1700516899894420500,1.72942041015625,0.036857083439826965,-0.19223308563232422,0.21500098705291748
1700516899904431400,1.739431396484375,0.012164254672825336,-0.012627378106117249,-0.03230840340256691
1700516899914442200,1.749442138671875,-0.06581363081932068,0.16628991067409515,-0.0722811222076416
1700516899924453400,1.759453369140625,0.0478530079126358,-0.13451892137527466,0.0396382212638855
1700516899934463200,1.769463134765625,-0.024684308096766472,0.17978520691394806,-0.02135508880019188
1700516899944474400,1.779474365234375,0.02588406205177307,-0.022365760058164597,0.30121469497680664
1700516899954485500,1.789485595703125,0.006774283014237881,-0.3111903667449951,-0.00041678472189232707
1700516899964496400,1.799496337890625,-0.06299787759780884,0.42376458644866943,-0.28807520866394043
1700516899974507300,1.80950732421875,0.012673983350396156,-0.17789329588413239,0.11084715276956558
1700516899984517400,1.819517333984375,0.04765034466981888,-0.055872585624456406,0.15829376876354218
1700516899994528300,1.8295283203125,-0.013341638259589672,-0.012897955253720284,-0.14837269484996796
1700516900004539100,1.8395390625,-0.04079803079366684,0.11692129075527191,-0.056656621396541595
1700516900014550500,1.849550537109375,0.023452328518033028,-0.11505574733018875,0.06375767290592194
1700516900024560400,1.859560302734375,0.012852681800723076,0.21443186700344086,0.04819575697183609
1700516900034571500,1.869571533203125,0.039628103375434875,-0.21925485134124756,0.26716378331184387
1700516900044582400,1.87958251953125,-0.029271069914102554,0.007405451964586973,-0.21592697501182556
1700516900054593300,1.88959326171875,-0.06211264058947563,0.23665834963321686,-0.1664789915084839
1700516900064604200,1.899604248046875,0.05428321287035942,-0.14965873956680298,0.1826489120721817
1700516900074614300,1.9096142578125,0.021257618442177773,-0.035956669598817825,0.08279634267091751
1700516900084625400,1.91962548828125,-0.03629142791032791,0.059060655534267426,-0.21082541346549988
1700516900094636500,1.929636474609375,-0.013169331476092339,0.04706444591283798,-0.030242057517170906
1700516900104647400,1.9396474609375,0.03551778197288513,-0.05999063327908516,0.03322985768318176
1700516900114657300,1.9496572265625,0.013437777757644653,0.2315504103899002,0.12335842102766037
1700516900124668400,1.95966845703125,0.03765736520290375,-0.38048022985458374,0.12378665804862976
1700516900134679300,1.96967919921875,-0.04553765803575516,0.2872339189052582,-0.32859012484550476
1700516900144690200,1.979690185546875,-0.03224528953433037,0.009476326406002045,-0.03817028924822807
1700516900154701600,1.98970166015625,0.06633694469928741,-0.09505806863307953,0.22047032415866852
1700516900164711400,1.99971142578125,-0.014108894392848015,-0.0861295610666275,-0.04975557327270508
1700516900174722600,2.00972265625,-0.06791140884160995,0.15336692333221436,-0.18722768127918243
1700516900184733400,2.0197333984375,0.021147362887859344,-0.11287248879671097,0.04107366502285004
1700516900194744300,2.029744384765625,0.019032547250390053,0.10904792696237564,0.035776641219854355
1700516900204755200,2.039755126953125,0.02653041109442711,-0.003406449221074581,0.24693548679351807
1700516900214765300,2.049765380859375,-0.006164951715618372,-0.22672289609909058,-0.07065259665250778
1700516900224776200,2.059776123046875,-0.06594226509332657,0.3512110114097595,-0.26204973459243774
1700516900234787600,2.06978759765625,0.04254932329058647,-0.13258440792560577,0.12350568920373917
1700516900244798500,2.079798583984375,0.0467001274228096,-0.04019135981798172,0.17552681267261505
1700516900254808300,2.089808349609375,-0.02960236743092537,-0.008202802389860153,-0.156532883644104
1700516900264819500,2.0998193359375,-0.04831000789999962,0.13263341784477234,-0.0695180892944336
1700516900274830300,2.109830322265625,0.03356754779815674,-0.10119372606277466,0.06497447192668915
1700516900284841200,2.11984130859375,0.027833228930830956,0.23723599314689636,0.09211847186088562
1700516900294852400,2.129852294921875,0.030954720452427864,-0.295091837644577,0.19173960387706757
1700516900304862200,2.1398623046875,-0.03200613707304001,0.1868971884250641,-0.2642175257205963
1700516900314873300,2.149873291015625,-0.04060814529657364,0.0711471438407898,-0.08457666635513306
1700516900324884500,2.159884521484375,0.06925017386674881,-0.04711025580763817,0.2055712640285492
1700516900334895400,2.169895263671875,0.020205935463309288,-0.10214554518461227,0.05319690704345703
1700516900344906200,2.17990625,-0.05101072043180466,0.15495069324970245,-0.21838799118995667
1700516900354916400,2.189916259765625,0.01792706921696663,-0.069290392100811,0.011441472917795181
1700516900364927200,2.19992724609375,0.02582334168255329,0.060618605464696884,0.046190399676561356
1700516900374938400,2.2099384765625,0.0060267336666584015,0.03857908397912979,0.2273585945367813
1700516900384949500,2.219949462890625,0.00953757856041193,-0.24554425477981567,-0.01817926950752735
1700516900394959400,2.22995947265625,-0.06386233866214752,0.2895665764808655,-0.2728640139102936
1700516900404970500,2.239970458984375,0.02376525104045868,-0.07545693963766098,0.08612743020057678
1700516900414981400,2.2499814453125,0.05078408494591713,-0.01944054290652275,0.21579168736934662
1700516900424992300,2.2599921875,-0.01985466480255127,-0.07333466410636902,-0.11629624664783478
1700516900435003400,2.27000341796875,-0.047146473079919815,0.1737334430217743,-0.11413349956274033
1700516900445013200,2.28001318359375,0.026030534878373146,-0.14354731142520905,0.07935634255409241
1700516900455024400,2.2900244140625,0.020674917846918106,0.20880913734436035,0.038669098168611526
1700516900465035500,2.300035400390625,0.02762576937675476,-0.21019451320171356,0.2180985063314438
1700516900475046400,2.31004638671875,-0.023067235946655273,0.07781942933797836,-0.2429031878709793
1700516900485057300,2.320057373046875,-0.05320809409022331,0.08158513903617859,-0.13902713358402252
1700516900495067400,2.3300673828125,0.059181831777095795,-0.03788559511303902,0.16546618938446045
1700516900505078300,2.340078369140625,0.026635339483618736,-0.10005655884742737,0.11232440918684006
1700516900515089200,2.350089111328125,-0.03966991603374481,0.08366666734218597,-0.23833347856998444
1700516900525100500,2.3601005859375,-0.01769617199897766,0.016463927924633026,-0.014371216297149658
1700516900535111400,2.370111328125,0.03789358586072922,-0.06155390664935112,0.07401058077812195
1700516900545121500,2.38012158203125,0.0019568908028304577,0.16346749663352966,0.11097418516874313
1700516900555132400,2.39013232421875,0.04199325665831566,-0.2800835967063904,0.09901472926139832
1700516900565143300,2.400143310546875,-0.05740869790315628,0.23912310600280762,-0.3067508935928345
1700516900575154400,2.410154541015625,-0.016499347984790802,-0.04964931309223175,-0.011019893921911716
1700516900585164300,2.420164306640625,0.04254879057407379,-0.006383596919476986,0.21483027935028076
1700516900595175200,2.430175048828125,0.017376061528921127,-0.1287292093038559,0.007184143178164959
1700516900605186600,2.4401865234375,-0.06988773494958878,0.18273945152759552,-0.23369212448596954
1700516900615197400,2.450197509765625,0.021987058222293854,-0.11510821431875229,0.06197815015912056
1700516900625208300,2.460208251953125,0.0326618067920208,0.03937616944313049,0.05450825020670891
1700516900635218400,2.470218505859375,0.007754059974104166,0.08523047715425491,0.17916949093341827
1700516900645229300,2.480229248046875,0.03359550982713699,-0.28818145394325256,0.00006604639202123508
1700516900655240200,2.490240234375,-0.06870103627443314,0.33141493797302246,-0.3194107413291931
1700516900665251800,2.500251953125,0.012835371308028698,-0.16679857671260834,0.0964740738272667
1700516900675262700,2.5102626953125,0.030181869864463806,0.038786012679338455,0.2065608948469162
1700516900685272600,2.5202724609375,0.000841825210954994,-0.14053846895694733,-0.08315933495759964
1700516900695284000,2.530283935546875,-0.07403108477592468,0.2093239277601242,-0.20048703253269196
1700516900705294800,2.540294921875,0.03398193418979645,-0.18010452389717102,0.10072287917137146
1700516900715305700,2.5503056640625,0.004735100548714399,0.13160543143749237,0.0390952043235302
1700516900725316900,2.56031689453125,0.02184830792248249,-0.004708202555775642,0.21522922813892365
1700516900735326700,2.57032666015625,-0.0035952674224972725,-0.19654688239097595,-0.10745055973529816
1700516900745337600,2.580337646484375,-0.058221228420734406,0.3027460277080536,-0.28847813606262207
1700516900755348700,2.5903486328125,0.02286883071064949,-0.21178895235061646,0.14241494238376617
1700516900765359900,2.60035986328125,0.036183036863803864,0.06756599247455597,0.16945481300354004
1700516900775370800,2.610370849609375,-0.014230068773031235,-0.13585875928401947,-0.13083790242671967
1700516900785380900,2.620380859375,-0.06358084082603455,0.20343062281608582,-0.15954464673995972
1700516900795391700,2.630391845703125,0.03192970156669617,-0.20859235525131226,0.12744984030723572
1700516900805403000,2.64040283203125,-0.009443302638828754,0.18225768208503723,0.03742566704750061
1700516900815413800,2.650413818359375,0.03381841629743576,-0.066639743745327,0.2492324560880661
1700516900825424600,2.660424560546875,-0.025645708665251732,-0.12277625501155853,-0.17318056523799896
1700516900835434800,2.670434814453125,-0.057368483394384384,0.28082579374313354,-0.2521669864654541
1700516900845446000,2.68044580078125,0.035900477319955826,-0.2170548141002655,0.18383587896823883
1700516900855456800,2.690456787109375,0.0370648093521595,0.07047043740749359,0.13554798066616058
1700516900865468000,2.700468017578125,-0.02491333894431591,-0.10435010492801666,-0.17802166938781738
1700516900875477800,2.710477783203125,-0.04442206025123596,0.17771486937999725,-0.11863237619400024
1700516900885488600,2.720488525390625,0.031984832137823105,-0.19390742480754852,0.12767274677753448
1700516900895499800,2.730499755859375,0.003055444685742259,0.23807461559772491,0.03892156481742859
1700516900905511000,2.740510986328125,0.03797268122434616,-0.17766134440898895,0.24430321156978607
1700516900915521800,2.750521728515625,-0.03744084760546684,0.013166667893528938,-0.25345543026924133
1700516900925532000,2.760531982421875,-0.047505732625722885,0.1749078929424286,-0.18732061982154846
1700516900935542800,2.770542724609375,0.048296425491571426,-0.15640611946582794,0.19006820023059845
1700516900945553700,2.7805537109375,0.03511883690953255,0.0036586506757885218,0.09904669225215912
1700516900955564800,2.790564697265625,-0.03676600381731987,-0.02700738236308098,-0.22954131662845612
1700516900965575700,2.80057568359375,-0.03189002349972725,0.11114862561225891,-0.06178294122219086
1700516900975585800,2.810585693359375,0.027639085426926613,-0.14280429482460022,0.12253949791193008
1700516900985597000,2.820596923828125,0.016559269279241562,0.2741508483886719,0.07100067287683487
1700516900995607800,2.83060791015625,0.03193023428320885,-0.28358030319213867,0.19941963255405426
1700516901005618700,2.84061865234375,-0.041180726140737534,0.16233724355697632,-0.3122585713863373
1700516901015629800,2.8506298828125,-0.03817082196474075,0.04424628987908363,-0.09587912261486053
1700516901025639700,2.8606396484375,0.05333646014332771,-0.05062136426568031,0.19616125524044037
1700516901035650800,2.87065087890625,0.02552213706076145,-0.06912261247634888,0.07029599696397781
1700516901045661700,2.88066162109375,-0.050693538039922714,0.06896521896123886,-0.26349449157714844
1700516901055672800,2.8906728515625,-0.013032977469265461,0.021624602377414703,-0.0037984666414558887
1700516901065684000,2.90068408203125,0.026683010160923004,-0.09328334033489227,0.10580179840326309
1700516901075693800,2.91069384765625,0.019215771928429604,0.2424757480621338,0.10543747991323471
1700516901085704700,2.92070458984375,0.025320271030068398,-0.3534238338470459,0.13617435097694397
1700516901095715800,2.9307158203125,-0.053107161074876785,0.2702338695526123,-0.3546193242073059
1700516901105726700,2.940726806640625,-0.018314559012651443,-0.05511464923620224,-0.016592292115092278
1700516901115737600,2.950737548828125,0.05023866891860962,0.002436792477965355,0.20692682266235352
1700516901125747700,2.960747802734375,0.01769457384943962,-0.11311963200569153,0.005398760084062815
1700516901135758800,2.9707587890625,-0.060998108237981796,0.13674160838127136,-0.2750307619571686
1700516901145769700,2.980769775390625,0.006767358630895615,-0.06441494077444077,0.05011509731411934
1700516901155780900,2.99078076171875,0.03212091699242592,-0.014760836958885193,0.08426295220851898
1700516901165791700,3.000791748046875,0.014532070606946945,0.1892271786928177,0.1479836106300354
1700516901175801900,3.0108017578125,0.028321918100118637,-0.38394924998283386,0.06734681874513626
1700516901185812700,3.020812744140625,-0.05565367639064789,0.363349974155426,-0.36984995007514954
1700516901195823600,3.03082373046875,-0.0011659319279715419,-0.15408676862716675,0.07503536343574524
1700516901205834800,3.040834716796875,0.055448610335588455,0.058093663305044174,0.21462787687778473
1700516901215846000,3.050845947265625,0.01125185564160347,-0.11698121577501297,-0.05663957819342613
1700516901225855700,3.060855712890625,-0.06966376304626465,0.193217933177948,-0.23426656424999237
1700516901235867000,3.070866943359375,0.036002740263938904,-0.13477618992328644,0.09745624661445618
1700516901245877800,3.080877685546875,0.02713228575885296,0.07379486411809921,0.04989751800894737
1700516901255888600,3.090888671875,0.028537634760141373,0.1024579331278801,0.20139355957508087
1700516901265899800,3.100899658203125,0.01008059736341238,-0.30857062339782715,-0.05506831035017967
1700516901275910000,3.110909912109375,-0.06590045243501663,0.3614436984062195,-0.36167192459106445
1700516901285920800,3.120920654296875,0.01954813487827778,-0.2173866480588913,0.12928634881973267
1700516901295932000,3.130931884765625,0.04296930506825447,0.05687446892261505,0.17388604581356049
1700516901305942800,3.14094287109375,-0.014615694060921669,-0.11482458561658859,-0.1571965515613556
1700516901315953700,3.15095361328125,-0.07111252844333649,0.1907273381948471,-0.179208904504776
1700516901325963800,3.1609638671875,0.039439283311367035,-0.18703247606754303,0.12444578856229782
1700516901335974700,3.170974609375,0.0044440170750021935,0.1943303346633911,0.050798200070858
1700516901345985800,3.18098583984375,0.0349649079144001,-0.10195938497781754,0.23124679923057556
1700516901355997000,3.190996826171875,-0.02514876239001751,-0.09120500832796097,-0.2066895216703415
1700516901366007800,3.2010078125,-0.058046791702508926,0.2451018989086151,-0.2341371327638626
1700516901376018000,3.211017822265625,0.05023627355694771,-0.1810089349746704,0.18664151430130005
1700516901386028800,3.22102880859375,0.039985764771699905,0.010377805680036545,0.12374111264944077
1700516901396039700,3.231039794921875,-0.039019569754600525,-0.051425907760858536,-0.23269955813884735
1700516901406050600,3.241050537109375,-0.0475480780005455,0.14687971770763397,-0.08045462518930435
1700516901416062000,3.25106201171875,0.03151744604110718,-0.15859843790531158,0.13324886560440063
1700516901426071800,3.26107177734375,0.023988157510757446,0.278095543384552,0.08105197548866272
1700516901436083000,3.2710830078125,0.027226561680436134,-0.32159188389778137,0.19096143543720245
1700516901446093800,3.28109375,-0.04200657084584236,0.19026075303554535,-0.329837828874588
1700516901456104700,3.291104736328125,-0.034268759191036224,0.04898485168814659,-0.0743464007973671
1700516901466115800,3.30111572265625,0.0637827068567276,-0.056714411824941635,0.22131188213825226
1700516901476125700,3.311125732421875,0.014723019674420357,-0.08456175774335861,0.0342881977558136
1700516901486136600,3.321136474609375,-0.05277319997549057,0.09259118884801865,-0.27546724677085876
1700516901496148000,3.33114794921875,-0.000014381069377122913,-0.021883994340896606,0.02045147866010666
1700516901506158800,3.341158935546875,0.03780996426939964,-0.0383969247341156,0.09734386205673218
1700516901516169700,3.351169677734375,0.014090518467128277,0.18922318518161774,0.16415192186832428
1700516901526179800,3.361179931640625,0.018162759020924568,-0.3589416444301605,0.04464603215456009
1700516901536190700,3.371190673828125,-0.057618554681539536,0.34538084268569946,-0.35289227962493896
1700516901546201600,3.38120166015625,-0.001207743538543582,-0.14721767604351044,0.0656149610877037
1700516901556213000,3.391212890625,0.049247439950704575,0.024281105026602745,0.21743431687355042
1700516901566224000,3.401223876953125,-0.014566958881914616,-0.14343012869358063,-0.087288036942482
1700516901576234800,3.41123486328125,-0.07209336757659912,0.20083217322826385,-0.2282283753156662
1700516901586244900,3.421244873046875,0.028330175206065178,-0.18354532122612,0.10825803130865097
1700516901596255700,3.431255859375,0.012598616071045399,0.13669739663600922,0.06842486560344696
1700516901606266600,3.4412666015625,0.016830911859869957,-0.05704597383737564,0.23683197796344757
1700516901616277800,3.45127783203125,-0.014180000871419907,-0.14271214604377747,-0.1525309532880783
1700516901626289000,3.461288818359375,-0.0581839457154274,0.2497914582490921,-0.2500956058502197
1700516901636299000,3.471299072265625,0.042694468051195145,-0.15583087503910065,0.15855342149734497
1700516901646310000,3.481309814453125,0.0340607650578022,-0.009165801107883453,0.1558694839477539
1700516901656320800,3.49132080078125,-0.029931001365184784,-0.06533826142549515,-0.2136419713497162
1700516901666331400,3.501331298828125,-0.049010153859853745,0.17995858192443848,-0.12194614857435226
1700516901676342300,3.51134228515625,0.02534264139831066,-0.1648145169019699,0.12008646130561829
1700516901686352100,3.52135205078125,0.02617407962679863,0.2658258080482483,0.07090479880571365
1700516901696363300,3.53136328125,0.022712502628564835,-0.28100743889808655,0.19050922989845276
1700516901706374100,3.5413740234375,-0.03392334654927254,0.15746472775936127,-0.31221330165863037
1700516901716385000,3.551385009765625,-0.039143938571214676,0.06506475061178207,-0.11562620103359222
1700516901726396400,3.561396484375,0.06428178399801254,-0.05414232984185219,0.19199873507022858
1700516901736406300,3.57140625,0.023903734982013702,-0.08514551818370819,0.06078824773430824
1700516901746417400,3.58141748046875,-0.042813509702682495,0.061464160680770874,-0.28408393263816833
1700516901756428300,3.59142822265625,-0.0012037487467750907,0.0640394389629364,-0.027410851791501045
1700516901766439200,3.601439208984375,0.0482570119202137,-0.07129575312137604,0.1026211827993393
1700516901776450000,3.611449951171875,0.02731524407863617,0.24724441766738892,0.13279452919960022
1700516901786460200,3.621460205078125,0.04300845414400101,-0.34408095479011536,0.08429064601659775
1700516901796471300,3.63147119140625,-0.046064961701631546,0.2991933524608612,-0.35340121388435364
1700516901806482400,3.641482421875,0.0034586472902446985,-0.05835465341806412,-0.003323625074699521
1700516901816493300,3.651493408203125,0.0635928213596344,0.023539148271083832,0.2192804217338562
1700516901826504200,3.661504150390625,0.03152969479560852,-0.11366850882768631,-0.023564981296658516
1700516901836514300,3.671514404296875,-0.07523056864738464,0.13472984731197357,-0.27585768699645996
1700516901846525200,3.681525146484375,0.028434038162231445,-0.05685263127088547,0.023267239332199097
1700516901856536000,3.6915361328125,0.0393599234521389,0.005517004523426294,0.0711924210190773
1700516901866547500,3.70154736328125,0.0071037160232663155,0.1289507895708084,0.17335979640483856
1700516901876558300,3.711558349609375,0.012021508999168873,-0.34899768233299255,-0.008530370891094208
1700516901886568200,3.721568115234375,-0.08357638865709305,0.31987759470939636,-0.3722499907016754
1700516901896579300,3.731579345703125,-0.0041308291256427765,-0.15591903030872345,0.07359086722135544
1700516901906590200,3.741590087890625,0.030582942068576813,-0.005569468718022108,0.23739230632781982
1700516901916601000,3.75160107421875,-0.020732708275318146,-0.1543368399143219,-0.05174841359257698
1700516901926612200,3.7616123046875,-0.07754699140787125,0.19922229647636414,-0.2158990055322647
1700516901936622000,3.7716220703125,0.03333079069852829,-0.12502849102020264,0.07533976435661316
1700516901946633200,3.78163330078125,-0.016934774816036224,0.06052592769265175,0.06528206914663315
1700516901956644400,3.791644287109375,0.011087538674473763,0.022062424570322037,0.2462177574634552
1700516901966655200,3.8016552734375,-0.016087356954813004,-0.2670080065727234,-0.053937532007694244
1700516901976666000,3.811666015625,-0.05933789163827896,0.3587304651737213,-0.3066544830799103
1700516901986676200,3.82167626953125,0.006440588738769293,-0.23499466478824615,0.1388702690601349
1700516901996687000,3.83168701171875,0.02099476382136345,0.032706547528505325,0.20914016664028168
1700516902006698200,3.8416982421875,-0.0319020077586174,-0.14823368191719055,-0.11501286923885345
1700516902016709400,3.85170947265625,-0.05416949465870857,0.21071329712867737,-0.15164437890052795
1700516902026720300,3.86172021484375,0.020171580836176872,-0.18802423775196075,0.10422440618276596
1700516902036731100,3.871731201171875,-0.026730680838227272,0.1586836576461792,0.0255208071321249
1700516902046741200,3.8817412109375,-0.0017678063595667481,-0.15854543447494507,0.229718416929245
1700516902056752000,3.891752197265625,-0.030292125418782234,-0.11987553536891937,-0.13134390115737915
1700516902066763300,3.90176318359375,-0.03622857853770256,0.35143232345581055,-0.26287850737571716
1700516902076774400,3.9117744140625,0.030179474502801895,-0.2284182608127594,0.18447743356227875
1700516902086785300,3.921785400390625,0.024324247613549232,0.024777518585324287,0.15679946541786194
1700516902096795400,3.93179541015625,-0.03443547338247299,-0.09383434802293777,-0.17547301948070526
1700516902106806300,3.94180615234375,-0.03503335267305374,0.17603760957717896,-0.09792257100343704
1700516902116817200,3.951817138671875,0.01960752345621586,-0.17705146968364716,0.1150919646024704
1700516902126828300,3.961828369140625,0.0010692591313272715,0.23062469065189362,0.02785639837384224
1700516902136839200,3.971839111328125,0.0342479832470417,-0.22283174097537994,0.22953732311725616
1700516902146849300,3.981849365234375,-0.040295492857694626,0.06174858659505844,-0.2773280143737793
1700516902156860400,3.9918603515625,-0.03617238625884056,0.15389315783977509,-0.16200461983680725
1700516902166871300,4.001871337890625,0.05078781396150589,-0.10925831645727158,0.18063129484653473
1700516902176882200,4.011882080078125,0.014181865379214287,-0.04417518526315689,0.10795682668685913
1700516902186893300,4.021893310546875,-0.044199153780937195,-0.006088252644985914,-0.23837076127529144
1700516902196903200,4.031903076171875,-0.03338618576526642,0.10919253528118134,-0.042034536600112915
1700516902206914300,4.041914306640625,0.022056566551327705,-0.13654932379722595,0.10828572511672974
1700516902216925200,4.05192529296875,0.010975153185427189,0.2587575316429138,0.06920064240694046
1700516902226936300,4.061936279296875,0.022830480709671974,-0.3346850574016571,0.1836225539445877
1700516902236947200,4.071947265625,-0.053592387586832047,0.2057688683271408,-0.33803263306617737
1700516902246957300,4.081957275390625,-0.041614290326833725,0.05199156329035759,-0.10103660076856613
1700516902256968200,4.09196826171875,0.04548785462975502,-0.06410734355449677,0.18182305991649628
1700516902266979300,4.101979248046875,0.005889047868549824,-0.08109991252422333,0.07315490394830704
1700516902276990200,4.111990234375,-0.044920336455106735,0.09698300808668137,-0.24377751350402832
1700516902287001000,4.1220009765625,0.0032405343372374773,0.047747015953063965,-0.00863370206207037
1700516902297011200,4.13201123046875,0.02479802444577217,-0.0853484496474266,0.06094244495034218
1700516902307022300,4.142022216796875,0.012954414822161198,0.23574674129486084,0.11408369243144989
1700516902317033200,4.152033203125,0.03283357992768288,-0.37191951274871826,0.18894702196121216
1700516902327044400,4.16204443359375,-0.04633021354675293,0.28286978602409363,-0.3281767964363098
1700516902337055200,4.17205517578125,-0.02292928472161293,-0.006952181924134493,-0.09170648455619812
1700516902347065000,4.182065185546875,0.026432672515511513,-0.039264846593141556,0.18361137807369232
1700516902357076200,4.192076171875,0.0237633865326643,-0.0553751066327095,0.06901022791862488
1700516902367087400,4.20208740234375,-0.054604388773441315,0.10767506062984467,-0.19928807020187378
1700516902377098200,4.21209814453125,0.007815578952431679,-0.038961779326200485,0.003070891136303544
1700516902387109400,4.222109375,0.021410750225186348,-0.0006878945278003812,-0.002495914464816451
1700516902397119200,4.232119140625,0.003561445279046893,0.1834435909986496,0.15508386492729187
1700516902407130400,4.24213037109375,0.03437848016619682,-0.4534393846988678,0.15326039493083954
1700516902417141200,4.252141357421875,-0.04294693470001221,0.39302530884742737,-0.3969023525714874
1700516902427152100,4.262152099609375,-0.029584256932139397,-0.051844023168087006,-0.08670134097337723
1700516902437163300,4.272163330078125,0.022242188453674316,-0.07266248762607574,0.18677280843257904
1700516902447173400,4.28217333984375,0.024525050073862076,-0.05155507102608681,0.02251063473522663
1700516902457184300,4.292184326171875,-0.05782841145992279,0.13698315620422363,-0.16057822108268738
1700516902467195400,4.3021953125,0.02546115219593048,-0.09108463674783707,0.010914699174463749
1700516902477206300,4.312206298828125,0.0005597964627668262,0.10414797067642212,-0.01534673199057579
1700516902487217200,4.322217041015625,0.012591691687703133,0.06331079453229904,0.2639394998550415
1700516902497228000,4.33222802734375,0.018998991698026657,-0.3962794244289398,0.12521624565124512
1700516902507238100,4.342238037109375,-0.02460654266178608,0.4567262530326843,-0.39739128947257996
1700516902517249300,4.352249267578125,-0.03874313458800316,-0.1412157118320465,-0.021754298359155655
1700516902527260400,4.362260498046875,0.014387194998562336,-0.07382575422525406,0.19579586386680603
1700516902537271300,4.372271240234375,-0.0073018549010157585,-0.10732006281614304,-0.02647155523300171
1700516902547282200,4.3822822265625,-0.018086591735482216,0.22783209383487701,-0.14873728156089783
1700516902557292300,4.392292236328125,0.009825732558965683,-0.19715647399425507,0.050212837755680084
1700516902567303200,4.40230322265625,0.00307621737010777,0.21559913456439972,0.013820740394294262
1700516902577314000,4.41231396484375,0.01931990124285221,-0.12458773702383041,0.324605792760849
1700516902587325400,4.422325439453125,-0.0041374871507287025,-0.27579668164253235,-0.037457361817359924
1700516902597335300,4.432335205078125,-0.02418389916419983,0.4380052983760834,-0.3914428651332855
1700516902607346200,4.44234619140625,-0.010232130996882915,-0.16220249235630035,0.05899061635136604
1700516902617357300,4.452357421875,0.034742265939712524,-0.12530305981636047,0.15652808547019958
1700516902627368200,4.4623681640625,-0.036122582852840424,-0.025545839220285416,-0.1465636044740677
1700516902637379000,4.472379150390625,-0.023448068648576736,0.15205398201942444,-0.13261157274246216
1700516902647390200,4.48239013671875,0.002886067610234022,-0.12133601307868958,0.04716138541698456
1700516902657400000,4.492400146484375,0.02520602010190487,0.31058743596076965,0.09562478959560394
1700516902667411700,4.50241162109375,0.028543228283524513,-0.3461635410785675,0.3196815848350525
1700516902677422800,4.5124228515625,-0.02630377560853958,0.15157301723957062,-0.23189128935337067
1700516902687434000,4.52243408203125,-0.06155257672071457,0.19144852459430695,-0.16103336215019226
1700516902697443800,4.53244384765625,0.05542917177081108,-0.08040296286344528,0.21089892089366913
1700516902707455000,4.542455078125,0.016154468059539795,-0.07479647547006607,0.10509153455495834
1700516902717465900,4.5524658203125,-0.04809056222438812,0.105247862637043,-0.17010168731212616
1700516902727476700,4.562476806640625,-0.016332367435097694,-0.02022138237953186,0.018752116709947586
1700516902737488000,4.57248779296875,0.0212983638048172,0.025737587362527847,0.05199022963643074
1700516902747499000,4.5824990234375,0.01877528615295887,0.13916881382465363,0.17977242171764374
1700516902757508900,4.5925087890625,0.011204984039068222,-0.3369426131248474,0.11068657040596008
1700516902767520000,4.60252001953125,-0.04737390577793121,0.2846280038356781,-0.3220752477645874
1700516902777531000,4.61253076171875,-0.03261706605553627,-0.025169268250465393,0.006755374372005463
1700516902787541800,4.622541748046875,0.0530264675617218,-0.03454359620809555,0.22954770922660828
1700516902797551900,4.6325517578125,-0.014454573392868042,-0.09880220890045166,-0.025533322244882584
1700516902807562800,4.642562744140625,-0.05462409555912018,0.16650083661079407,-0.16884121298789978
1700516902817574000,4.652573974609375,0.008281632326543331,-0.1566559225320816,0.08050362765789032
1700516902827585000,4.6625849609375,0.016532903537154198,0.17505916953086853,0.046543534845113754
1700516902837596000,4.672595947265625,0.022952187806367874,-0.11435534060001373,0.2484782487154007
1700516902847606000,4.68260595703125,-0.0030897995457053185,-0.09966480731964111,-0.11617374420166016
1700516902857617000,4.692616943359375,-0.05595807358622551,0.23278158903121948,-0.2698591649532318
1700516902867627800,4.702627685546875,0.039014775305986404,-0.0515018068253994,0.1209045797586441
1700516902877639000,4.712638916015625,0.0415293350815773,-0.07034127414226532,0.16448934376239777
1700516902887649800,4.72264990234375,-0.026457706466317177,0.012122176587581635,-0.18529528379440308
1700516902897660000,4.732659912109375,-0.027469174936413765,0.11411032825708389,-0.08690933138132095
1700516902907671000,4.742671142578125,0.027171699330210686,-0.07278632372617722,0.10617277771234512
1700516902917682000,4.752681884765625,0.02533571608364582,0.25093501806259155,0.06471987068653107
1700516902927692800,4.76269287109375,0.04253414273262024,-0.29183849692344666,0.20490413904190063
1700516902937704000,4.772703857421875,-0.023786023259162903,0.20530228316783905,-0.29883089661598206
1700516902947713800,4.7827138671875,-0.024596422910690308,0.0173219982534647,-0.08209726959466934
1700516902957725000,4.792724853515625,0.06589379906654358,0.01218955498188734,0.16877171397209167
1700516902967735800,4.80273583984375,0.01660267822444439,-0.13765239715576172,0.032707877457141876
1700516902977747000,4.812746826171875,-0.04976169764995575,0.14830318093299866,-0.26948660612106323
1700516902987757800,4.8227578125,0.016884706914424896,-0.07829879969358444,0.045351769775152206
1700516902997768000,4.832767822265625,0.02743002586066723,0.039917588233947754,0.0708552673459053
1700516903007778800,4.84277880859375,0.024281105026602745,0.1303550750017166,0.15714940428733826
1700516903017790000,4.8527900390625,0.012051336467266083,-0.29559171199798584,0.02841273322701454
1700516903027800800,4.86280078125,-0.04878378286957741,0.296104371547699,-0.3479582369327545
1700516903037811700,4.872811767578125,0.015032478608191013,-0.09648312628269196,0.09798941016197205
1700516903047821800,4.88282177734375,0.05258491262793541,0.01829831302165985,0.22194331884384155
1700516903057833000,4.8928330078125,-0.008949552662670612,-0.10679382085800171,-0.10394930094480515
1700516903067843800,4.90284375,-0.06372518092393875,0.1971154659986496,-0.21973581612110138
1700516903077855000,4.91285498046875,0.042211368680000305,-0.17911702394485474,0.1387144774198532
1700516903087865900,4.922865966796875,0.01576298475265503,0.14954927563667297,0.06562641263008118
1700516903097875700,4.932875732421875,0.022892532870173454,-0.10436608642339706,0.1992981880903244
1700516903107886800,4.942886962890625,-0.021935392171144485,-0.05639936029911041,-0.17588767409324646
1700516903117898000,4.95289794921875,-0.043956007808446884,0.17501069605350494,-0.2277338206768036
1700516903127908900,4.962908935546875,0.043531764298677444,-0.08109351992607117,0.1765180379152298
1700516903137920000,4.972919921875,0.03893248364329338,-0.05170100927352905,0.17121702432632446
1700516903147929900,4.982929931640625,-0.032582178711891174,-0.008145011961460114,-0.24110102653503418
1700516903157941000,4.99294091796875,-0.038309838622808456,0.1386263221502304,-0.11933384835720062
1700516903167952000,5.002951904296875,0.03187431022524834,-0.1486922651529312,0.1799684315919876
1700516903177962800,5.012962646484375,0.01829138956964016,0.23616139590740204,0.06569059938192368
1700516903187974000,5.022973876953125,0.020898090675473213,-0.26501622796058655,0.1872151643037796
1700516903197984000,5.03298388671875,-0.04517972841858864,0.14303837716579437,-0.3022885024547577
1700516903207995000,5.042994873046875,-0.028495557606220245,0.020535368472337723,-0.08770108968019485
1700516903218006000,5.053006103515625,0.050278615206480026,-0.02581428736448288,0.19848912954330444
1700516903228017000,5.063016845703125,0.018248245120048523,-0.1288788914680481,0.06558273732662201
1700516903238027800,5.07302783203125,-0.05302300304174423,0.10393199324607849,-0.3089429438114166
1700516903248038000,5.083037841796875,-0.007489075418561697,0.0023470439482480288,-0.010508034378290176
1700516903258048800,5.093048828125,0.01398585643619299,-0.04352297633886337,0.1398593634366989
1700516903268060000,5.103059814453125,0.02051139995455742,0.20141008496284485,0.10920931398868561
1700516903278071000,5.113071044921875,0.009063802659511566,-0.30299022793769836,0.11026525497436523
1700516903288081000,5.123080810546875,-0.04923732206225395,0.2550421357154846,-0.351657897233963
1700516903298091800,5.133091796875,-0.012106730602681637,-0.06814683228731155,0.029954170808196068
1700516903308103000,5.14310302734375,0.05325336754322052,0.0277370885014534,0.22185330092906952
1700516903318113800,5.15311376953125,0.002058623591437936,-0.13110874593257904,-0.00041518680518493056
1700516903328124700,5.163124755859375,-0.05345417186617851,0.18106885254383087,-0.28403252363204956
1700516903338134800,5.173134765625,0.019951870664954185,-0.09624610841274261,0.08224587142467499
1700516903348146000,5.18314599609375,0.02846519649028778,0.05374658480286598,0.10167336463928223
1700516903358156800,5.19315673828125,0.027994882315397263,0.11269006133079529,0.1510704755783081
1700516903368168000,5.20316796875,0.012745089828968048,-0.2807179391384125,0.028799157589673996
1700516903378178800,5.2131787109375,-0.05080166086554527,0.2946774363517761,-0.349191814661026
1700516903388189000,5.22318896484375,0.011394867673516273,-0.15528252720832825,0.10912009328603745
1700516903398199800,5.23319970703125,0.04692409932613373,0.07020305842161179,0.17979294061660767
1700516903408210700,5.243210693359375,-0.008975652046501637,-0.1379149854183197,-0.08845396339893341
1700516903418221800,5.253221923828125,-0.058093927800655365,0.21829798817634583,-0.24183394014835358
1700516903428233000,5.26323291015625,0.04526707902550697,-0.16183842718601227,0.13961568474769592
1700516903438242800,5.273242919921875,0.02833736501634121,0.12599840760231018,0.0596364326775074
1700516903448254000,5.28325390625,0.02858344092965126,0.004306331276893616,0.18174555897712708
1700516903458264800,5.293264892578125,-0.002895122393965721,-0.1600397378206253,-0.07988844066858292
1700516903468275700,5.303275634765625,-0.03939587622880936,0.2331634759902954,-0.2783927321434021
1700516903478287000,5.313287109375,0.021523134782910347,-0.14493268728256226,0.14720836281776428
1700516903488297000,5.323296875,0.038962312042713165,0.034083135426044464,0.16141445934772491
1700516903498307800,5.333307861328125,-0.029558690264821053,-0.11499662697315216,-0.15330620110034943
1700516903508319000,5.343319091796875,-0.0515231117606163,0.19327491521835327,-0.19091109931468964
1700516903518329900,5.353329833984375,0.042325086891651154,-0.1903451830148697,0.16996586322784424
1700516903528340000,5.363340087890625,0.01269635371863842,0.17320507764816284,0.049427203834056854
1700516903538350800,5.373350830078125,0.024514397606253624,-0.07313812524080276,0.21055777370929718
1700516903548361700,5.38336181640625,-0.010335462167859077,-0.03434039652347565,-0.13708674907684326
1700516903558372900,5.393372802734375,-0.0391886830329895,0.14139068126678467,-0.19000588357448578
1700516903568384000,5.403384033203125,0.02250504307448864,-0.080686055123806,0.15467426180839539
1700516903578393900,5.413393798828125,0.017883924767374992,-0.02654159627854824,0.16395990550518036
1700516903588405000,5.423405029296875,-0.03985154256224632,-0.07632087171077728,-0.1817450374364853
1700516903598416000,5.433415771484375,-0.052630987018346786,0.10998455435037613,-0.1574801653623581
1700516903608426800,5.4434267578125,0.008868326433002949,-0.16629496216773987,0.07008135318756104
1700516903618438000,5.45343798828125,-0.018156632781028748,0.1292506605386734,-0.05236493796110153
1700516903628447700,5.46344775390625,0.003745469730347395,-0.11493297666311264,0.10636585205793381
1700516903638459000,5.473458984375,-0.02961062267422676,-0.12164946645498276,-0.25213104486465454
1700516903648470000,5.483469970703125,-0.0826575979590416,0.22233372926712036,-0.3531511425971985
1700516903658481000,5.49348095703125,-0.01612144522368908,-0.12987278401851654,0.02286137267947197
1700516903668491300,5.5034912109375,0.005790511146187782,0.056106679141521454,0.08967023342847824
1700516903678501400,5.51350146484375,-0.01606525294482708,-0.022268021479249,-0.1525421440601349
1700516903688512300,5.52351220703125,-0.06763043999671936,0.2104877233505249,-0.16784492135047913
1700516903698523600,5.533523681640625,-0.009456085972487926,-0.18762235343456268,0.06143273413181305
1700516903708534500,5.543534423828125,-0.0014511564513668418,0.2865968644618988,-0.05766036733984947
1700516903718544400,5.55354443359375,0.046597596257925034,-0.027999676764011383,0.3542454242706299
1700516903728555500,5.563555419921875,0.05133402720093727,-0.09547405689954758,-0.08856741338968277
1700516903738566400,5.57356640625,-0.14959987998008728,0.4077576696872711,-0.29801836609840393
1700516903748577300,5.583577392578125,-0.0005089300684630871,-0.3774562180042267,0.148296520113945
1700516903758588400,5.59358837890625,-0.023298930376768112,0.1987522393465042,-0.027596740052103996
1700516903768598300,5.603598388671875,-0.0440678596496582,-0.18499594926834106,-0.145009383559227
1700516903778609400,5.613609375,-0.05161126330494881,0.22789894044399261,-0.17045535147190094
1700516903788620500,5.62362060546875,-0.002663427498191595,-0.23938195407390594,0.1334478110074997
1700516903798631400,5.63363134765625,-0.011517372913658619,0.183898463845253,-0.034270890057086945
1700516903808642300,5.643642333984375,0.0028277444653213024,0.23609375953674316,0.18172799050807953
1700516903818652400,5.65365234375,0.07562471926212311,-0.4033711552619934,0.22483977675437927
1700516903828663300,5.663663330078125,-0.08828166127204895,0.43519407510757446,-0.5240395069122314
1700516903838674400,5.67367431640625,-0.03521684184670448,-0.005396629683673382,0.2023826688528061
1700516903848685600,5.683685546875,0.10003125667572021,-0.09818834811449051,0.28097599744796753
1700516903858695400,5.6936953125,-0.013118998147547245,0.08651118725538254,-0.2175096869468689
1700516903868706600,5.70370654296875,-0.05215694382786751,0.03815457597374916,-0.2727319300174713
1700516903878717400,5.713717529296875,0.024378577247262,-0.12385722994804382,0.033723074942827225
1700516903888728300,5.723728271484375,-0.03876923397183418,-0.008094944059848785,-0.05246374011039734
1700516903898739500,5.733739501953125,-0.03183010220527649,0.5180301070213318,0.21470804512500763
1700516903908749300,5.743749267578125,0.07772701978683472,-1.166709542274475,0.12586471438407898
1700516903918760200,5.75376025390625,-0.20404288172721863,1.0593881607055664,-0.9645860195159912
1700516903928771600,5.763771484375,-0.049854375422000885,-0.1660664677619934,0.384156733751297
1700516903938782500,5.773782470703125,0.1648552566766739,-0.7283862829208374,0.5218197703361511
1700516903948793300,5.78379345703125,-0.11862464994192123,0.5690740942955017,-0.37734249234199524
1700516903958803500,5.793803466796875,-0.020780378952622414,-0.1967998743057251,-0.07168244570493698
1700516903968814300,5.803814453125,0.029230589047074318,0.29680609703063965,0.2061811238527298
1700516903978825200,5.8138251953125,0.12903042137622833,-0.9615798592567444,0.23505085706710815
1700516903988836600,5.823836669921875,-0.04300845414400101,0.5593886971473694,-0.8886030912399292
1700516903998846500,5.833846435546875,-0.24669526517391205,0.7805618643760681,-0.022951655089855194
1700516904008857600,5.843857666015625,0.2509898841381073,-1.4954413175582886,0.45234429836273193
1700516904018868500,5.853868408203125,-0.1262998878955841,1.0667248964309692,-0.2794095277786255
1700516904028879400,5.86387939453125,-0.020564930513501167,-0.14023327827453613,0.24952487647533417
1700516904038890200,5.87389013671875,0.15117406845092773,-0.6102972030639648,0.6166059374809265
1700516904048900400,5.883900390625,-0.0513332299888134,0.3169800937175751,-0.5967065095901489
1700516904058911200,5.8939111328125,-0.20275656878948212,0.9822976589202881,0.04577973857522011
1700516904068922600,5.903922607421875,0.220939040184021,-1.581628441810608,0.7121044993400574
1700516904078933500,5.91393359375,-0.21678264439105988,1.140496015548706,-0.46187442541122437
1700516904088944400,5.9239443359375,-0.060932327061891556,0.22708748281002045,0.25209030508995056
1700516904098954500,5.93395458984375,0.16203443706035614,-1.289106011390686,0.5912294983863831
1700516904108965400,5.94396533203125,-0.16554369032382965,1.3247886896133423,-0.6946732997894287
1700516904118976300,5.953976318359375,0.09279438853263855,-0.5528530478477478,0.1169990599155426
1700516904128987400,5.9639873046875,0.004930309951305389,-0.7730996608734131,0.11840573698282242
1700516904138997200,5.973997314453125,-0.2056112140417099,1.2391477823257446,-0.2569343149662018
1700516904149008600,5.984008544921875,0.18791717290878296,-1.1573506593704224,0.10280147939920425
1700516904159019500,5.99401953125,0.07282014191150665,0.04075062647461891,-0.3029247224330902
1700516904169030400,6.004030517578125,-0.117464579641819,1.103516697883606,-0.12037834525108337
1700516904179041300,6.014041259765625,0.20640084147453308,-1.211839199066162,0.2288997620344162
1700516904189051400,6.024051513671875,-0.08741986006498337,0.786482036113739,0.1484382003545761
1700516904199062300,6.034062255859375,0.01209767535328865,0.0815073773264885,0.2193288952112198
1700516904209073400,6.044073486328125,0.17908932268619537,-0.8437669277191162,-0.15063345432281494
1700516904219084500,6.05408447265625,-0.09318800270557404,1.1874701976776123,0.004736964590847492
1700516904229095400,6.064095458984375,0.10930518805980682,-0.9446924924850464,0.11290870606899261
1700516904239105500,6.07410546875,-0.07774166762828827,0.836308479309082,0.19697751104831696
1700516904249116400,6.084116455078125,0.1311977058649063,-0.5781653523445129,0.08298942446708679
1700516904259127300,6.094127197265625,0.056587912142276764,-0.08784943073987961,-0.3618122637271881
1700516904269138400,6.104138427734375,-0.10324942320585251,0.6591238379478455,0.14591433107852936
1700516904279148300,6.114148193359375,0.037455495446920395,-1.1438766717910767,0.15974758565425873
1700516904289159400,6.124159423828125,-0.11875887215137482,0.9324461817741394,0.062137674540281296
1700516904299170600,6.134170654296875,0.06524185091257095,-0.3030477464199066,-0.03141198307275772
1700516904309181400,6.144181396484375,0.037752971053123474,-0.5445320010185242,-0.41352367401123047
1700516904319192300,6.1541923828125,-0.07558263838291168,0.5944737195968628,-0.008696818724274635
1700516904329202400,6.164202392578125,0.02442012168467045,-0.8132579922676086,-0.06517713516950607
1700516904339213300,6.17421337890625,-0.08416414260864258,0.7280014157295227,0.40814515948295593
1700516904349224400,6.184224365234375,0.0384584441781044,-0.24002911150455475,0.4231318235397339
1700516904359235600,6.194235595703125,-0.02165576070547104,-0.06372358649969101,-0.02990357019007206
1700516904369245400,6.204245361328125,-0.05902576819062233,0.35630539059638977,0.272984117269516
1700516904379256600,6.214256591796875,-0.04117193818092346,-0.2335728108882904,0.02624651789665222
1700516904389267500,6.224267333984375,-0.024827318266034126,0.2584552466869354,0.5674250721931458
1700516904399278300,6.2342783203125,0.01757073774933815,-0.7233734130859375,0.005820072256028652
1700516904409289500,6.24428955078125,-0.0600697286427021,0.6890926361083984,0.10564467310905457
1700516904419299300,6.25429931640625,0.05644356831908226,-0.7120752334594727,-0.03672019764780998
1700516904429310200,6.264310302734375,-0.09718327224254608,0.5241996049880981,-0.18366943299770355
1700516904439321600,6.274321533203125,0.003489806316792965,-0.2365451604127884,-0.24954165518283844
1700516904449332500,6.28433251953125,-0.004768656101077795,-0.7688767313957214,-0.8678445816040039
1700516904459343400,6.29434326171875,-0.12834332883358002,0.5668554306030273,-0.5211979150772095
1700516904469353500,6.304353515625,0.002397910226136446,-0.3231663405895233,0.08428851515054703
1700516904479364400,6.3143642578125,0.04229605942964554,0.21318763494491577,1.0343048572540283
1700516904489375200,6.324375244140625,0.03705548867583275,-0.42973777651786804,0.7995762825012207
1700516904499386400,6.334386474609375,-0.01804983988404274,0.856414794921875,0.23129767179489136
1700516904509396200,6.344396240234375,0.03425917029380798,-0.4880729913711548,0.0035989959724247456
1700516904519407600,6.35440771484375,-0.12211792171001434,0.30502861738204956,-0.24976083636283875
1700516904529418500,6.36441845703125,-0.050883419811725616,-0.10663589835166931,0.009251821786165237
1700516904539429400,6.374429443359375,-0.034321222454309464,-0.4383544623851776,-0.3430337905883789
1700516904549440300,6.384440185546875,-0.10319669544696808,0.35607635974884033,-0.17243196070194244
1700516904559450400,6.394450439453125,-0.06987575441598892,-0.3175846338272095,-0.015362977050244808
1700516904569461200,6.404461181640625,-0.0794556736946106,-0.023360449820756912,-0.10556530952453613
1700516904579472400,6.414472412109375,-0.06594385951757431,-0.1654621958732605,0.12209688127040863
1700516904589483500,6.4244833984375,-0.04337916523218155,0.3207484483718872,-0.10651872307062149
1700516904599493400,6.434493408203125,0.038725823163986206,-0.19786088168621063,0.18120627105236053
1700516904609504500,6.44450439453125,-0.032398153096437454,-0.05915040522813797,0.05205095186829567
1700516904619515400,6.454515380859375,-0.0507020577788353,0.16283152997493744,0.21742473542690277
1700516904629526300,6.4645263671875,-0.03455504775047302,-0.324461430311203,0.01678537204861641
1700516904639537400,6.474537353515625,-0.041740790009498596,0.34858089685440063,0.019531089812517166
1700516904649547300,6.48454736328125,-0.01395869255065918,-0.39569538831710815,0.309965044260025
1700516904659558400,6.494558349609375,-0.034500185400247574,0.1585736721754074,0.12000496685504913
1700516904669572600,6.504572509765625,0.002600310370326042,-0.3892662525177002,-0.09408921748399734
1700516904679583500,6.51458349609375,0.02208239957690239,0.3247669041156769,-0.7605319619178772
1700516904689593600,6.524593505859375,-0.015332616865634918,-0.0567314550280571,-0.34919315576553345
1700516904699604500,6.5346044921875,-0.10449019074440002,-0.22965742647647858,0.01918834261596203
1700516904709615600,6.54461572265625,-0.05627578869462013,0.03413453325629234,0.4348689019680023
1700516904719626800,6.554626708984375,0.008360194973647594,-0.24481160938739777,0.3683399558067322
1700516904729637600,6.5646376953125,-0.0359681211411953,0.2573212683200836,0.157912939786911
1700516904739647700,6.574647705078125,-0.053534332662820816,-0.3791646361351013,0.03500352427363396
1700516904749658600,6.58465869140625,-0.028797825798392296,0.2596432864665985,-0.30626779794692993
1700516904759669500,6.59466943359375,0.018387529999017715,-0.3987457752227783,-0.17504824697971344
1700516904769680600,6.6046806640625,-0.07056524604558945,0.18875819444656372,-0.18447929620742798
1700516904779690500,6.6146904296875,-0.08377213031053543,-0.009042763151228428,0.22786912322044373
1700516904789701600,6.62470166015625,-0.013519271276891232,-0.0299025047570467,0.28686878085136414
1700516904799712800,6.634712646484375,0.005309810396283865,-0.12348198890686035,0.40554243326187134
1700516904809723600,6.6447236328125,-0.04794036224484444,0.2252645492553711,-0.3217655122280121
1700516904819734500,6.654734619140625,-0.04957341030240059,0.8741434812545776,0.16013401746749878
1700516904829744600,6.66474462890625,0.013189039193093777,-1.056143045425415,0.2590731084346771
1700516904839755500,6.674755615234375,-0.0007363640470430255,0.43381693959236145,0.1522345393896103
1700516904849766700,6.6847666015625,-0.11278566718101501,-0.2882152795791626,-0.4746834337711334
1700516904859777800,6.69477783203125,-0.15354003012180328,-0.01708471029996872,-0.11094941943883896
1700516904869788700,6.70478857421875,-0.013672136701643467,-0.552013099193573,-0.139292374253273
1700516904879798500,6.714798583984375,-0.03187830373644829,0.2670990824699402,-0.310077965259552
1700516904889809700,6.7248095703125,0.014670289121568203,-0.4500827491283417,-0.3744511008262634
1700516904899820500,6.734820556640625,-0.047744087874889374,-0.004070109222084284,-0.37558162212371826
1700516904909831400,6.74483154296875,0.011211375705897808,-0.03515106439590454,0.019089005887508392
1700516904919841500,6.754841552734375,0.15745779871940613,0.0046211169101297855,0.11481925845146179
1700516904929852700,6.764852783203125,0.1360529065132141,-0.010714695788919926,0.27476605772972107
1700516904939863800,6.77486376953125,-0.04850655049085617,0.274208128452301,-0.3028413653373718
1700516904949874700,6.784874755859375,-0.10271172970533371,-0.1268029510974884,-0.15941601991653442
1700516904959885600,6.794885498046875,-0.03651539981365204,0.2136038988828659,-0.13713495433330536
1700516904969895700,6.804895751953125,-0.003313771216198802,0.20448869466781616,0.16320650279521942
1700516904979906600,6.814906494140625,-0.03560779616236687,0.10631605237722397,0.0951952263712883
1700516904989917400,6.82491748046875,-0.08276252448558807,0.42851778864860535,0.4491940438747406
1700516904999928800,6.8349287109375,-0.04409901797771454,0.3499161899089813,0.7347275018692017
1700516905009938700,6.844938720703125,0.17803071439266205,-0.2538948655128479,0.3769187927246094
1700516905019949600,6.854949462890625,-0.052679188549518585,0.9009002447128296,-0.08495297282934189
1700516905029960700,6.864960693359375,0.07988417893648148,-0.6222784519195557,0.3890116512775421
1700516905039971600,6.8749716796875,-0.01495018694549799,0.6831021308898926,-0.04872865602374077
1700516905049982500,6.884982421875,0.21843300759792328,-0.664243221282959,-0.39071983098983765
1700516905059992600,6.89499267578125,-0.04945916309952736,0.1677756905555725,-0.4275990128517151
1700516905070003500,6.90500341796875,-0.02991635352373123,-0.5446404218673706,-0.2688903212547302
1700516905080014600,6.9150146484375,-0.10933501273393631,-0.26711344718933105,-0.5693233609199524
1700516905090025700,6.925025634765625,-0.12615181505680084,-0.06933406740427017,-0.45000603795051575
1700516905100036600,6.93503662109375,-0.014989602379500866,-0.0619983896613121,-0.14425039291381836
1700516905110046700,6.945046630859375,0.03695375844836235,0.02588086575269699,0.2760728597640991
1700516905120057600,6.9550576171875,0.16477563977241516,0.2182742804288864,0.13390719890594482
1700516905130068500,6.965068359375,0.1540423035621643,-0.06965124607086182,0.17179812490940094
1700516905140079600,6.97507958984375,-0.08023145794868469,0.17195312678813934,-0.10819704085588455
1700516905150089500,6.98508935546875,-0.1461430937051773,-0.1586088240146637,0.008891495876014233
1700516905160100600,6.9951005859375,-0.008345015347003937,0.17386633157730103,0.06419389694929123
1700516905170111700,7.00511181640625,0.11013049632310867,-0.08593568205833435,0.24388962984085083
1700516905180122600,7.01512255859375,0.03092808835208416,0.3637430667877197,0.4653988480567932
1700516905190133500,7.025133544921875,0.025682460516691208,0.17492413520812988,0.49143898487091064
1700516905200143600,7.0351435546875,0.23804372549057007,-0.2163139283657074,0.4504241645336151
1700516905210154500,7.045154541015625,0.07408061623573303,0.40373682975769043,-0.46624600887298584
1700516905220165600,7.05516552734375,-0.04180204123258591,0.07343640178442001,0.0076027922332286835
1700516905230176800,7.0651767578125,-0.037042707204818726,0.004841094370931387,0.31116586923599243
1700516905240186600,7.0751865234375,0.08822812885046005,-0.5084406137466431,-0.33436015248298645
1700516905250197800,7.08519775390625,-0.10405449569225311,0.29723113775253296,-0.3151102662086487
1700516905260208600,7.095208740234375,-0.05038833990693092,-0.4105513095855713,0.053876280784606934
1700516905270219500,7.105219482421875,-0.01846316270530224,0.2598728537559509,0.2777293622493744
1700516905280230400,7.11523046875,0.0037760960403829813,-0.10287045687437057,-0.14620435237884521
1700516905290240500,7.125240478515625,0.08502088487148285,0.47546425461769104,0.25853487849235535
1700516905300251600,7.135251708984375,0.009601494297385216,-0.10571151226758957,0.38703081011772156
1700516905310262800,7.1452626953125,0.17477181553840637,-0.07745750993490219,0.19384057819843292
1700516905320273700,7.155273681640625,-0.04168486222624779,0.36620861291885376,-0.24717943370342255
1700516905330284500,7.165284423828125,0.007720503956079483,-0.16275909543037415,0.24445262551307678
1700516905340294700,7.175294677734375,-0.10468965768814087,0.32852596044540405,0.26117008924484253
1700516905350305500,7.185305419921875,0.10932515561580658,-0.5295573472976685,-0.521222710609436
1700516905360316400,7.19531640625,-0.08011320978403091,0.09566820412874222,-0.5406501889228821
1700516905370327800,7.205327880859375,-0.05688485503196716,-0.4217376410961151,-0.17564505338668823
1700516905380337700,7.215337646484375,-0.09999850392341614,0.13115403056144714,-0.14128601551055908
1700516905390348800,7.225348876953125,0.05329171568155289,-0.6981505751609802,-0.7260251045227051
1700516905400359700,7.235359619140625,0.12286520004272461,0.3747333884239197,-0.4247318506240845
1700516905410370600,7.24537060546875,0.011551194824278355,0.10208135843276978,0.09317068755626678
1700516905420381400,7.25538134765625,-0.0065314024686813354,0.03813140466809273,0.48373791575431824
1700516905430391600,7.2653916015625,0.10794004797935486,0.20782296359539032,0.1837754249572754
1700516905440402400,7.27540234375,0.05312580242753029,0.5250056982040405,0.538938581943512
1700516905450413800,7.285413818359375,-0.024593759328126907,0.32157963514328003,0.7884408235549927
1700516905460424700,7.2954248046875,0.11378222703933716,-0.004890362732112408,-0.14233796298503876
1700516905470434600,7.3054345703125,0.016207998618483543,0.4930187463760376,0.27268531918525696
1700516905480445700,7.31544580078125,-0.06321784853935242,-0.25992825627326965,0.21318285167217255
1700516905490456600,7.32545654296875,0.14351721107959747,-0.6513388752937317,-0.38396790623664856
1700516905500467500,7.335467529296875,-0.026156237348914146,0.16976772248744965,-0.5857750773429871
1700516905510478800,7.345478759765625,0.03407301381230354,-0.013566674664616585,0.20331689715385437
1700516905520488700,7.35548876953125,0.0807100236415863,0.11932452768087387,0.46970465779304504
1700516905530499600,7.36549951171875,0.06678861379623413,-0.15600530803203583,-0.3115762770175934
1700516905540510700,7.3755107421875,0.08813998103141785,0.43438634276390076,0.15657709538936615
1700516905550521600,7.385521484375,-0.06840675324201584,-0.07796750217676163,0.2675076127052307
1700516905560532500,7.395532470703125,0.1332925409078598,-0.5237876176834106,-0.1305617392063141
1700516905570542600,7.40554248046875,0.02948625385761261,0.24210797250270844,-0.29107099771499634
1700516905580553500,7.415553466796875,0.024774055927991867,0.03590713441371918,0.38191941380500793
1700516905590564600,7.425564697265625,0.10697518289089203,0.44875913858413696,0.6416782736778259
1700516905600575700,7.43557568359375,0.12484738975763321,0.4063626825809479,0.02966867946088314
1700516905610585600,7.445585693359375,0.14927975833415985,0.17213395237922668,0.4935188889503479
1700516905620596700,7.4555966796875,-0.006595850922167301,0.3275962471961975,0.4923958480358124
1700516905630607600,7.465607666015625,0.08084424585103989,-0.08024370670318604,-0.1304600089788437
1700516905640618500,7.475618408203125,-0.024897359311580658,0.021801436319947243,-0.05861564353108406
1700516905650629600,7.485629638671875,0.05637512356042862,-0.48904186487197876,-0.22939004004001617
1700516905660639500,7.495639404296875,-0.0034285534638911486,-0.35778796672821045,-0.3287387490272522
1700516905670647300,7.505647216796875,-0.150441974401474,-0.1516539752483368,-0.7467860579490662
1700516905680658400,7.515658447265625,0.11846086382865906,-0.35021448135375977,-0.28217682242393494
1700516905690669300,7.52566943359375,-0.1741829812526703,-0.15410807728767395,-0.2284313142299652
1700516905700679400,7.535679443359375,-0.1603260189294815,-0.4050670564174652,-0.2869976758956909
1700516905710690300,7.545690185546875,0.044137101620435715,-0.36689305305480957,-0.5348695516586304
1700516905720701400,7.555701416015625,0.025464346632361412,0.37443459033966064,-0.3221527338027954
1700516905730712300,7.56571240234375,0.03158349171280861,0.08639347553253174,-0.002826679265126586
1700516905740723500,7.575723388671875,0.07605694979429245,-0.2561039626598358,-0.04267609119415283
1700516905750733300,7.5857333984375,0.04349501430988312,0.20951727032661438,-0.04183293506503105
1700516905760744400,7.595744384765625,0.0006274407496675849,1.0922191143035889,0.5115679502487183
1700516905770755300,7.60575537109375,0.11869389563798904,-0.16278678178787231,0.7067779302597046
1700516905780766500,7.615766357421875,0.07251441478729248,0.5558030605316162,0.6839125752449036
1700516905790777300,7.62577734375,-0.03344131261110306,0.6692028641700745,0.8505913019180298
1700516905800787500,7.635787353515625,0.1544140726327896,-0.5592553019523621,0.3287017345428467
1700516905810798300,7.64579833984375,0.01571238413453102,0.25854232907295227,-0.3496834337711334
1700516905820809500,7.6558095703125,-0.04412884637713432,-0.4536162316799164,-0.061459898948669434
1700516905830820400,7.6658203125,0.08542994409799576,-0.19270020723342896,-0.17056748270988464
1700516905840830200,7.675830322265625,-0.05312659963965416,-0.32189735770225525,-0.85410076379776
1700516905850841300,7.68584130859375,0.02058170735836029,0.046614907681941986,-0.35493573546409607
1700516905860852500,7.6958525390625,0.03971865028142929,-0.17510177195072174,-0.055509597063064575
1700516905870863400,7.70586328125,0.10872781276702881,-0.20797237753868103,-0.42257335782051086
1700516905880874500,7.71587451171875,0.22780120372772217,0.3507918417453766,-0.20752815902233124
1700516905890884400,7.72588427734375,0.03388339653611183,0.02712908945977688,0.24382518231868744
1700516905900895200,7.735895263671875,-0.05914268270134926,0.2036018669605255,0.4934872090816498
1700516905910906400,7.74590625,0.06338589638471603,0.26011785864830017,0.08502807468175888
1700516905920917200,7.755917236328125,0.13672828674316406,-0.002930808812379837,0.3281531035900116
1700516905930927400,7.76592724609375,0.0736292153596878,0.08983082324266434,0.3133784234523773
1700516905940938500,7.7759384765625,0.04619812220335007,0.060674797743558884,-0.5665987133979797
1700516905950949400,7.785949462890625,0.08464191854000092,0.057550109922885895,0.09118343889713287
1700516905960960500,7.79596044921875,-0.025418274104595184,0.24171967804431915,0.004432565066963434
1700516905970971400,7.805971435546875,0.12401195615530014,-0.48201778531074524,-0.6494946479797363
1700516905980981200,7.815981201171875,0.026521090418100357,0.08120936900377274,-0.7475461363792419
1700516905990992400,7.825992431640625,-0.03683285042643547,0.07770837843418121,-0.1371147185564041
1700516906001003300,7.836003173828125,0.05705609545111656,-0.13588406145572662,0.03755136951804161
1700516906011014400,7.846014404296875,0.10432880371809006,0.09622266888618469,-0.3255631923675537
1700516906021024500,7.8560244140625,0.02785266935825348,0.06813617795705795,0.01714782789349556
1700516906031035400,7.866035400390625,0.01805596612393856,-0.12420077621936798,-0.49512186646461487
1700516906041046300,7.87604638671875,0.022595057263970375,0.13603772222995758,-0.23758219182491302
1700516906051057400,7.886057373046875,0.09457097947597504,-0.08981164544820786,-0.28769516944885254
1700516906061068300,7.896068359375,0.021265340968966484,-0.07339805364608765,-0.3214864134788513
1700516906071078400,7.906078369140625,0.10741886496543884,0.20297415554523468,-0.1913537085056305
1700516906081089300,7.91608935546875,0.08877328038215637,-0.180179625749588,-0.1814584732055664
1700516906091100400,7.926100341796875,0.15075115859508514,0.27345818281173706,0.03061756305396557
1700516906101111300,7.936111328125,0.09618645161390305,-0.08655379712581635,0.08407998830080032
1700516906111121400,7.946121337890625,0.17380721867084503,0.29429367184638977,0.17868372797966003
1700516906121132300,7.95613232421875,0.12277145683765411,-0.06982142478227615,-0.19073931872844696
1700516906131143400,7.966143310546875,0.07581673562526703,0.20297469198703766,0.13752590119838715
1700516906141154300,7.976154296875,0.05506591498851776,-0.002180063631385565,-0.2425902783870697
1700516906151165400,7.98616552734375,0.11755406111478806,0.042037732899188995,0.0699511244893074
1700516906161175300,7.99617529296875,0.03990320861339569,-0.11922439187765121,-0.18908657133579254
1700516906171186400,8.0061865234375,0.011603925377130508,0.25170838832855225,0.1839677095413208
1700516906181197300,8.016197265625,0.2377089560031891,0.12042628228664398,-3.206270456314087
1700516906191208400,8.02620849609375,-0.3101179301738739,0.3011886179447174,1.301047444343567
1700516906201219300,8.03621923828125,0.07467104494571686,-0.3723328113555908,1.3634625673294067
1700516906211229400,8.0462294921875,-0.049502838402986526,-0.041621480137109756,0.2696152329444885
1700516906221240300,8.056240234375,-0.0937214344739914,-0.3564656972885132,-0.7086479663848877
1700516906231251500,8.06625146484375,-0.02563079446554184,-0.21383719146251678,-0.7140758037567139
1700516906241262300,8.076262451171875,-0.09637819975614548,-0.24531708657741547,0.23587964475154877
1700516906251272400,8.0862724609375,-0.03359631076455116,-0.02436153218150139,-0.09366656839847565
1700516906261283300,8.096283447265625,-0.01528494618833065,0.00589650496840477,-0.40766337513923645
1700516906271294500,8.10629443359375,-0.08351593464612961,-0.17741286754608154,-0.34130406379699707
1700516906281305300,8.116305419921876,-0.05561399459838867,0.2882102131843567,0.5032761693000793
1700516906291316200,8.126316162109376,-0.13675598800182343,-0.07757601886987686,0.03128468617796898
1700516906301326300,8.136326416015624,-0.020657608285546303,-0.040288034826517105,-0.2461828738451004
1700516906311337500,8.14633740234375,-0.0940609872341156,-0.12906025350093842,-0.054055243730545044
1700516906321348400,8.156348388671875,-0.0656125620007515,-0.1021420806646347,-0.5176098346710205
1700516906331359500,8.166359375,-0.07990574836730957,-0.11164797097444534,-0.304511696100235
1700516906341369300,8.176369384765625,-0.10133408010005951,-0.056298427283763885,-0.22048337757587433
1700516906351380200,8.186380126953125,-0.07595068961381912,0.03640700876712799,0.06463518738746643
1700516906361391400,8.196391357421875,-0.08989446610212326,-0.08896635472774506,-0.004191282670944929
1700516906371402200,8.20640234375,-0.02263633720576763,-0.10628382861614227,-0.22713115811347961
1700516906381413400,8.216413330078124,-0.06469590216875076,-0.012819658033549786,0.11777243763208389
1700516906391423500,8.226423583984374,-0.03190094232559204,-0.03229988366365433,-0.17806454002857208
1700516906401434400,8.236434326171874,0.004051999654620886,0.09188491851091385,0.31959185004234314
1700516906411445500,8.246445556640625,-0.05489254370331764,0.013524331152439117,0.19143733382225037
1700516906421456400,8.256456298828125,0.06699500977993011,0.22022078931331635,0.42112061381340027
1700516906431466200,8.26646630859375,-0.024921061471104622,0.24449869990348816,0.5298438668251038
1700516906441477400,8.276477294921875,-0.013846573419868946,0.11896633356809616,0.25192731618881226
1700516906451488300,8.28648828125,-0.0014892396284267306,0.1762453317642212,0.4750261902809143
1700516906461499400,8.29649951171875,-0.046179212629795074,-0.030159765854477882,-0.0981350913643837
1700516906471510500,8.306510498046874,-0.07534562051296234,0.00390286254696548,0.011582087725400925
1700516906481520400,8.316520263671874,-0.0852174237370491,-0.0015592807903885841,-0.20156027376651764
1700516906491531300,8.32653125,-0.09470413625240326,-0.03212864324450493,-0.7153689861297607
1700516906501542400,8.33654248046875,0.005369198974221945,-0.030223682522773743,-0.018434401601552963
1700516906511553300,8.34655322265625,-0.0453680157661438,-0.03628477081656456,-0.3292330205440521
1700516906521563400,8.3565634765625,-0.05121205374598503,-0.10632804036140442,-0.36068201065063477
1700516906531574500,8.366574462890625,-0.039497874677181244,-0.004267183132469654,0.1369573175907135
1700516906541585400,8.37658544921875,-0.06402159482240677,-0.12765462696552277,-0.23692679405212402
1700516906551596300,8.38659619140625,-0.007196660153567791,-0.14421497285366058,-0.25875699520111084
1700516906561607400,8.396607421875,-0.03349484130740166,0.09705623984336853,0.3799121677875519
1700516906571617300,8.4066171875,0.031068703159689903,0.08499052375555038,-0.07069733738899231
1700516906581628400,8.41662841796875,-0.07145900279283524,0.03201918676495552,0.18209870159626007
1700516906591639300,8.426639404296875,-0.008387892507016659,-0.01565033197402954,0.3720009922981262
1700516906601650400,8.436650390625,-0.04104037582874298,-0.004081028047949076,-0.1937209963798523
1700516906611660500,8.44666064453125,-0.12596271932125092,-0.07260575890541077,0.1825796663761139
1700516906621671400,8.45667138671875,-0.07957392185926437,-0.052861083298921585,0.022402510046958923
1700516906631682300,8.466682373046876,-0.09901180118322372,-0.17625625431537628,-0.5851942300796509
1700516906641693400,8.476693359375,-0.11988246440887451,-0.055569253861904144,0.13908438384532928
1700516906651704300,8.486704345703124,-0.10266299545764923,-0.07814939320087433,0.26977476477622986
1700516906661714400,8.49671435546875,-0.07006723433732986,-0.0067905280739068985,-0.08058831840753555
1700516906671724800,8.506724853515625,-0.11011531949043274,-0.18988817930221558,0.19301046431064606
1700516906681735700,8.516735595703125,-0.08814769983291626,-0.060496632009744644,0.0006854976527392864
1700516906691747000,8.5267470703125,-0.07597678899765015,-0.047078028321266174,-0.22356943786144257
1700516906701757000,8.5367568359375,-0.07406038045883179,-0.02052391692996025,0.1383858323097229
1700516906711767800,8.546767822265625,-0.1246415302157402,-0.08262563496828079,0.05143576115369797
1700516906721779000,8.556779052734376,-0.05814692750573158,0.003005110891535878,-0.1798376739025116
1700516906731789800,8.566789794921876,-0.10058839619159698,-0.08463925123214722,-0.03900066390633583
1700516906741800700,8.57680078125,-0.09062977135181427,-0.08258995413780212,-0.2063230723142624
1700516906751810800,8.586810791015624,-0.035657331347465515,0.0646841898560524,-0.14980706572532654
1700516906761822000,8.596822021484375,-0.02106187492609024,0.047685232013463974,-0.022722356021404266
1700516906771832800,8.606832763671875,-0.043463319540023804,0.02395380288362503,0.20607194304466248
1700516906781844000,8.616843994140625,0.004131628200411797,0.1894650012254715,0.2609056234359741
1700516906791854800,8.626854736328125,-0.03940786048769951,0.13651017844676971,0.0660538524389267
1700516906801865000,8.636864990234375,-0.09611934423446655,0.05945400521159172,0.24938400089740753
1700516906811875800,8.646875732421876,-0.033728934824466705,0.051045872271060944,0.2988945543766022
1700516906821886700,8.65688671875,-0.031146466732025146,0.016321448609232903,-0.033312950283288956
1700516906831897900,8.66689794921875,-0.07115273922681808,-0.0733884647488594,0.07618558406829834
1700516906841908000,8.676907958984375,-0.06616410613059998,-0.0057076867669820786,-0.13107572495937347
1700516906851918800,8.6869189453125,-0.04111547768115997,0.15652570128440857,0.11423922330141068
1700516906861930000,8.696929931640625,-0.09266442060470581,0.0231721643358469,-0.13026931881904602
1700516906871940900,8.70694091796875,-0.07066991180181503,0.04893425479531288,0.16675010323524475
1700516906881951700,8.71695166015625,-0.06803976744413376,0.045769352465867996,0.10315248370170593
1700516906891961900,8.7269619140625,-0.034446123987436295,-0.06305672973394394,-0.258257120847702
1700516906901972700,8.73697265625,-0.04168486222624779,-0.06637263298034668,0.1480722874403
1700516906911983900,8.74698388671875,-0.08798365294933319,0.023140206933021545,0.07743486762046814
1700516906921995000,8.7569951171875,-0.059914734214544296,-0.019722305238246918,-0.08073718845844269
1700516906932004900,8.7670048828125,-0.03622591495513916,0.05203736945986748,0.0984855592250824
1700516906942016000,8.77701611328125,-0.08360754698514938,0.0016354472609236836,0.2976316809654236
1700516906952027000,8.78702685546875,-0.005111138802021742,0.18941625952720642,-0.13005387783050537
1700516906962037800,8.797037841796875,-0.07374665886163712,0.021441375836730003,-0.0041161817498505116
1700516906972048600,8.807048583984376,-0.06132727488875389,-0.047140348702669144,0.014301441609859467
1700516906982058800,8.817058837890626,-0.020367056131362915,0.12492355704307556,-0.2111271470785141
1700516906992070000,8.82706982421875,-0.040274184197187424,0.02798422984778881,-0.33851492404937744
1700516907002081000,8.8370810546875,-0.03269030153751373,-0.014259097166359425,0.007784952409565449
1700516907012092000,8.847091796875,0.014669490046799183,0.1153969019651413,0.021228855475783348
1700516907022101800,8.857101806640625,0.029229257255792618,0.15698322653770447,-0.0362301766872406
1700516907032113000,8.86711279296875,-0.05170287564396858,0.08309115469455719,0.2876512110233307
1700516907042123800,8.877123779296875,-0.06192941218614578,-0.0012311793398112059,0.26774701476097107
1700516907052134700,8.887134765625,0.05360117554664612,0.08288849145174026,0.2958276569843292
1700516907062146000,8.89714599609375,-0.06721099466085434,0.047870319336652756,0.00857457984238863
1700516907072156000,8.907156005859376,-0.06769222766160965,0.009445433504879475,0.3119903802871704
1700516907082166800,8.917166748046874,-0.07391790300607681,0.04519783705472946,0.17379336059093475
1700516907092178000,8.927177978515624,-0.0545700341463089,0.005244829226285219,-0.14096803963184357
1700516907102188800,8.937188720703125,-0.0919344499707222,-0.14849786460399628,0.16857384145259857
1700516907112199000,8.947198974609375,-0.023075757548213005,0.06100716069340706,-0.2040625810623169
1700516907122209800,8.957209716796875,-0.04544391483068466,-0.061287324875593185,-0.17358164489269257
1700516907132221000,8.967220947265625,-0.020006731152534485,-0.027599403634667397,-0.1534782350063324
1700516907142232000,8.977232177734376,-0.022352710366249084,0.022791065275669098,0.16868382692337036
1700516907152242000,8.987241943359376,-0.016834640875458717,0.11428049951791763,0.04412618279457092
1700516907162252800,8.997252685546876,-0.027288345620036125,0.01841948740184307,0.01330169104039669
1700516907172264000,9.007263916015624,-0.0457986481487751,-0.08616337925195694,0.22523552179336548
1700516907182274800,9.01727490234375,-0.026860643178224564,0.08140670508146286,0.2534216046333313
1700516907192285700,9.02728564453125,-0.008871521800756454,-0.09526287019252777,0.10622257739305496
1700516907202295800,9.0372958984375,-0.06670685857534409,-0.12447508424520493,0.03389618173241615
1700516907212307000,9.047306884765625,-0.05522570386528969,-0.021397167816758156,0.23960299789905548
1700516907222317800,9.05731787109375,-0.05216600000858307,-0.010950385592877865,-0.007102384231984615
1700516907232329000,9.067328857421876,-0.09106652438640594,-0.09774493426084518,-0.20135414600372314
1700516907242338800,9.0773388671875,-0.08870270103216171,-0.15967833995819092,-0.02503371424973011
1700516907252350000,9.087349853515626,-0.07550966739654541,-0.10760609060525894,-0.27845826745033264
1700516907262360800,9.09736083984375,-0.07976540178060532,-0.11132572591304779,-0.21761249005794525
1700516907272371700,9.107371826171875,-0.05897783115506172,-0.03870505094528198,-0.4127148687839508
1700516907282382800,9.1173828125,-0.08783451467752457,-0.07619810104370117,-0.14991119503974915
1700516907292393000,9.12739306640625,-0.03245114907622337,0.04039908945560455,-0.15717576444149017
1700516907302403800,9.13740380859375,-0.04911428317427635,0.03315608948469162,-0.3040320575237274
1700516907312415000,9.1474150390625,0.0026900589000433683,-0.00942173134535551,0.1296093910932541
1700516907322425900,9.15742578125,-0.03269189968705177,0.0341917909681797,0.14823581278324127
1700516907332436000,9.16743603515625,0.0243103988468647,0.20524130761623383,0.35353249311447144
1700516907342446800,9.17744677734375,-0.05084054544568062,0.003082342678681016,0.010213488712906837
1700516907352457700,9.187457763671874,-0.007258179131895304,0.0027417242527008057,0.21131090819835663
1700516907362468900,9.19746875,-0.014031397178769112,-0.003478088416159153,0.16601480543613434
1700516907372479000,9.20747900390625,-0.021348964422941208,-0.0032764871139079332,-0.15184438228607178
1700516907382489900,9.21748974609375,-0.022123411297798157,0.0017646105261519551,0.04686684161424637
1700516907392501000,9.2275009765625,-0.04663221538066864,-0.05853521451354027,0.06587088853120804
1700516907402512000,9.237511962890625,-0.006485329940915108,0.08456681668758392,0.04713661968708038
1700516907412522800,9.247522705078126,-0.023564182221889496,-0.04255012422800064,-0.013059875927865505
1700516907422532900,9.257532958984376,-0.011697668582201004,-0.02442038804292679,-0.18976007401943207
1700516907432543700,9.267543701171874,-0.033305760473012924,0.02690351940691471,0.21492668986320496
1700516907442555000,9.277554931640625,-0.01543594803661108,0.0840432345867157,-0.00021145498612895608
1700516907452566000,9.28756591796875,-0.049135319888591766,0.021683990955352783,-0.16279451549053192
1700516907462575900,9.297575927734375,-0.026064889505505562,0.007567904889583588,0.17768077552318573
1700516907472586800,9.307586669921875,-0.046487871557474136,-0.030240992084145546,0.054479751735925674
1700516907482598000,9.317597900390625,-0.0267794169485569,0.07644151151180267,0.13440628349781036
1700516907492608800,9.32760888671875,-0.0627475380897522,0.03389671444892883,-0.13866467773914337
1700516907502619000,9.337618896484376,-0.04265345260500908,-0.007865645922720432,-0.04733822122216225
1700516907512630000,9.347630126953124,-0.021249894052743912,-0.035407792776823044,-0.09015625715255737
1700516907522641000,9.357640869140624,-0.03942809998989105,0.024354608729481697,-0.2810590863227844
1700516907532651800,9.36765185546875,-0.025349298492074013,0.04796859249472618,-0.211934894323349
1700516907542662000,9.377661865234375,-0.05670003220438957,-0.0100238723680377,-0.010265421122312546
1700516907552672800,9.3876728515625,-0.024221183732151985,-0.011281150393188,-0.030830882489681244
1700516907562684000,9.397683837890625,-0.005833654198795557,0.022470422089099884,-0.036191027611494064
1700516907572694800,9.40769482421875,-0.05486271530389786,-0.0826362892985344,-0.07589635998010635
1700516907582706000,9.417705810546876,-0.04002225026488304,-0.05765823647379875,-0.13249945640563965
1700516907592716000,9.427716064453126,-0.010026002302765846,-0.005648031830787659,-0.15603700280189514
1700516907602727000,9.437726806640624,-0.032153140753507614,-0.10426994413137436,-0.18240202963352203
1700516907612737800,9.44773779296875,-0.04616616293787956,-0.07105953246355057,-0.23462529480457306
1700516907622749000,9.4577490234375,-0.026674222201108932,-0.005437908694148064,-0.13683322072029114
1700516907632758800,9.4677587890625,0.003216299694031477,0.04825594648718834,-0.08716339617967606
1700516907642770000,9.47777001953125,0.027230288833379745,0.2074543833732605,-0.027596207335591316
1700516907652780800,9.48778076171875,-0.0031435952987521887,-0.018764100968837738,0.12491157650947571
1700516907662792000,9.4977919921875,-0.009594304487109184,0.061226338148117065,0.15270672738552094
1700516907672805600,9.5078056640625,-0.0026674221735447645,0.11623446643352509,0.20566608011722565
1700516907682816500,9.51781640625,0.03441869467496872,0.03412068635225296,0.1799367368221283
1700516907692827400,9.527827392578125,-0.027166107669472694,0.02063710056245327,-0.008770588785409927
1700516907702838500,9.537838623046875,-0.04399329051375389,0.0070981234312057495,0.07938670367002487
1700516907712848400,9.547848388671875,-0.01738032139837742,-0.01155891828238964,0.017468206584453583
1700516907722859500,9.557859619140626,-0.00930055696517229,0.05745290592312813,-0.019527895376086235
1700516907732870700,9.56787060546875,-0.011655590496957302,0.005288239102810621,0.06190118566155434
1700516907742881500,9.577881591796874,-0.02786305546760559,-0.05115346610546112,-0.11983133107423782
1700516907752892400,9.587892333984374,-0.02057851105928421,0.03846216946840286,0.01756194978952408
1700516907762902500,9.597902587890625,0.024931183084845543,0.07624896615743637,0.010279002599418163
1700516907772913400,9.607913330078125,-0.011397263966500759,0.02983912266790867,0.14285914599895477
1700516907782924500,9.617924560546875,-0.008916263468563557,0.0036820864770561457,0.08178380876779556
1700516907792935700,9.627935791015625,-0.025963157415390015,0.0006823018775321543,0.08864757418632507
1700516907802945500,9.637945556640625,0.01456083357334137,0.06072539836168289,0.01420556753873825
1700516907812956700,9.647956787109376,-0.007796403951942921,0.05897916480898857,0.09794706851243973
1700516907822967600,9.657967529296876,-0.0148649662733078,-0.06755347549915314,0.11267488449811935
1700516907832978400,9.667978515625,-0.014491857029497623,-0.03129853308200836,-0.10706067085266113
1700516907842988500,9.677988525390624,-0.02593625895678997,0.005118595436215401,-0.24096468091011047
1700516907852999400,9.68799951171875,-0.04314693808555603,-0.003884486621245742,-0.22729067504405975
1700516907863010600,9.698010498046875,-0.025370869785547256,-0.025619076564908028,-0.03983636200428009
1700516907873021700,9.708021728515625,-0.04839469492435455,-0.03705256059765816,-0.25382187962532043
1700516907883031600,9.718031494140625,-0.0088187912479043,-0.034635208547115326,-0.31445246934890747
1700516907893042700,9.728042724609375,0.010509898886084557,-0.09592173248529434,-0.23450517654418945
1700516907903053600,9.738053466796876,0.003938282374292612,0.030782679095864296,0.01829138956964016
1700516907913064400,9.748064453125,-0.02141927182674408,-0.04492699354887009,0.29603537917137146
1700516907923074600,9.758074462890624,-0.050627224147319794,-0.08989260345697403,0.23583996295928955
1700516907933085400,9.76808544921875,-0.02269625850021839,-0.03145672753453255,0.27042829990386963
1700516907943096600,9.7780966796875,-0.03719929978251457,0.04042918235063553,0.34596937894821167
1700516907953107700,9.788107666015625,-0.02136094868183136,0.1330033242702484,0.46754589676856995
1700516907963117600,9.79811767578125,0.007795072626322508,-0.010519219562411308,0.4114959239959717
1700516907973128400,9.80812841796875,-0.030883880332112312,-0.012034558691084385,0.1671048402786255
1700516907983139600,9.8181396484375,-0.027824973687529564,0.03550979122519493,0.11093131452798843
1700516907993150500,9.828150390625,0.0072717610746622086,0.017677530646324158,0.13462944328784943
1700516908003160600,9.83816064453125,0.00663446681573987,0.12693318724632263,0.20501279830932617
1700516908013171500,9.84817138671875,-0.004523112904280424,-0.07699864357709885,0.2444443702697754
1700516908023182600,9.8581826171875,0.005538043566048145,0.009460613131523132,0.09988505393266678
1700516908033193500,9.868193359375,-0.0093919038772583,0.08232603222131729,0.25169748067855835
1700516908043203600,9.87820361328125,0.02611655555665493,0.03827868029475212,0.12664316594600677
1700516908053214500,9.88821435546875,0.009558618068695068,-0.0350290909409523,0.03255581110715866
1700516908063225600,9.8982255859375,0.0049406965263187885,0.03695029392838478,-0.08226930350065231
1700516908073236500,9.908236572265626,-0.03223942965269089,-0.043301668018102646,0.023441143333911896
1700516908083246600,9.91824658203125,0.027842815965414047,0.048590172082185745,0.003192064817994833
1700516908093257500,9.928257568359374,0.009034507907927036,0.07719598710536957,-0.04556562006473541
1700516908103268600,9.9382685546875,0.019466375932097435,0.06404183059930801,0.07699385285377502
1700516908113279500,9.948279541015625,0.05904015153646469,0.13656529784202576,-0.2261953204870224
1700516908123289600,9.95828955078125,0.005399026442319155,0.03175579756498337,-0.04051333665847778
1700516908133300500,9.968300537109375,-0.017372598871588707,0.369554340839386,-0.24466221034526825
1700516908143311600,9.9783115234375,0.12513820827007294,0.06594119966030121,-0.33620119094848633
1700516908153322500,9.988322509765625,0.06563253700733185,-0.2508457899093628,0.04102679342031479
1700516908163332400,9.998332275390625,-0.09292594343423843,0.011724300682544708,-0.01386787835508585
1700516908173343500,10.008343505859376,-0.1464240550994873,-0.37790095806121826,-0.13757357001304626
1700516908183354600,10.018354736328124,0.14957670867443085,0.32058361172676086,-0.16809792816638947
1700516908193365500,10.028365478515624,0.13417086005210876,0.1400521844625473,0.05925959348678589
1700516908203375600,10.038375732421875,-0.024647822603583336,-0.23425936698913574,0.04248354583978653
1700516908213386500,10.048386474609375,-0.012063054367899895,-0.02887905202805996,-0.022305306047201157
1700516908223397400,10.0583974609375,0.03545093536376953,0.1022036001086235,0.03356168791651726
1700516908233408500,10.068408447265625,0.02400599978864193,-0.024889903143048286,-0.004549478180706501
1700516908243418400,10.07841845703125,0.05920233577489853,0.04743675887584686,-0.09116452932357788
1700516908253429800,10.0884296875,0.10853046923875809,0.2230176329612732,-0.016620522364974022
1700516908263440600,10.098440673828126,0.07621300965547562,-0.12608389556407928,0.18951188027858734
1700516908273450500,10.108450439453126,0.03603283688426018,0.1550537645816803,0.05612105876207352
1700516908283461600,10.118461669921874,0.04559331759810448,0.07911425828933716,0.14562484622001648
1700516908293472500,10.128472412109375,0.0034735610242933035,-0.09744293242692947,-0.10412267595529556
1700516908303483400,10.1384833984375,0.01389877125620842,0.07066910713911057,-0.11030307412147522
1700516908313493500,10.148493408203125,-0.005548429675400257,-0.07497570663690567,0.12898434698581696
1700516908323504400,10.15850439453125,0.019638948142528534,0.02448510378599167,0.08038618415594101
1700516908333515500,10.168515625,0.029690783470869064,-0.12041082978248596,-0.09262500703334808
1700516908343526700,10.178526611328126,-0.03827521577477455,0.0674421563744545,-0.06276990473270416
1700516908353536500,10.18853662109375,0.019640812650322914,-0.10730382055044174,0.11208552867174149
1700516908363547600,10.198547607421874,-0.005519667640328407,0.03536651283502579,-0.006975351367145777
1700516908373558500,10.20855859375,0.009504555724561214,0.013674799352884293,0.1530500054359436
1700516908383569400,10.2185693359375,0.0012351741315796971,-0.11519130319356918,-0.03327619656920433
1700516908393579500,10.22857958984375,0.003757720347493887,0.05999196320772171,-0.23020391166210175
1700516908403590400,10.23859033203125,-0.014026336371898651,-0.04862719029188156,0.004493818152695894
1700516908413601500,10.2486015625,-0.006046707276254892,-0.02623985894024372,0.038905855268239975
1700516908423612700,10.25861279296875,-0.026728549972176552,-0.24179132282733917,-0.16164322197437286
1700516908433622500,10.26862255859375,-0.03188815712928772,0.06280932575464249,-0.24580709636211395
1700516908443633700,10.278633544921876,0.00009108010999625549,-0.13238972425460815,-0.018569156527519226
1700516908453644500,10.28864453125,-0.018441591411828995,0.005533782299607992,-0.03441070392727852
1700516908463654400,10.298654296875,0.006886401679366827,0.08012359589338303,0.0705639123916626
1700516908473665500,10.30866552734375,-0.045473743230104446,-0.16457536816596985,-0.08208475261926651
1700516908483676400,10.318676513671875,-0.020184097811579704,0.021503694355487823,-0.21526756882667542
1700516908493687600,10.3286875,-0.038659512996673584,0.0020634171087294817,0.019180085510015488
1700516908503697700,10.33869775390625,-0.01002200786024332,0.06329641491174698,0.12239515781402588
1700516908513708500,10.34870849609375,0.046060170978307724,-0.101821169257164,-0.1333165168762207
1700516908523719400,10.358719482421876,-0.06331399083137512,0.056767676025629044,-0.1203216165304184
1700516908533730600,10.36873046875,0.007320763543248177,-0.052799563854932785,0.0974501222372055
1700516908543740400,10.378740478515626,0.0023129554465413094,0.09201753884553909,0.03152010962367058
1700516908553751600,10.38875146484375,0.02442251890897751,0.09602426737546921,0.16869793832302094
1700516908563762400,10.398762451171875,0.008619586937129498,-0.12765862047672272,-0.11240243911743164
1700516908573772500,10.4087724609375,-0.01218822319060564,0.06334701180458069,-0.13268481194972992
1700516908583783700,10.41878369140625,-0.011639345437288284,-0.002168079372495413,0.15763063728809357
1700516908593794600,10.428794677734375,0.004641357343643904,0.03665947914123535,0.1454450786113739
1700516908603805400,10.438805419921875,0.007759652566164732,-0.126420259475708,-0.11875195056200027
1700516908613815600,10.448815673828125,-0.07036683708429337,0.07449501007795334,-0.04579252377152443
1700516908623826400,10.458826416015626,-0.0037787591572850943,-0.09425299614667892,0.1893443614244461
1700516908633837600,10.468837646484374,-0.006159092765301466,0.12157730013132095,0.10657437890768051
1700516908643847400,10.478847412109374,0.013569604605436325,0.0037374801468104124,0.20605409145355225
1700516908653858300,10.4888583984375,-0.0057106162421405315,-0.08519399166107178,-0.12106357514858246
1700516908663869700,10.49886962890625,-0.01191285252571106,0.07973184436559677,-0.08368584513664246
1700516908673881000,10.508881103515625,0.00009880327706923708,0.0044229780323803425,0.1653095930814743
1700516908683891000,10.518890869140625,0.020434169098734856,0.02545582503080368,0.10879412293434143
1700516908693902000,10.528902099609375,0.0020692760590463877,-0.05789019912481308,-0.19264161586761475
1700516908703913000,10.538912841796876,-0.04584232345223427,0.04312989488244057,-0.04748256504535675
1700516908713923800,10.548923828125,0.02118118479847908,-0.05289517343044281,0.09860832989215851
1700516908723934000,10.558933837890624,0.0006258428329601884,0.1521698236465454,0.02923458442091942
1700516908733945000,10.568945068359374,0.012855877168476582,-0.12672066688537598,0.12026862055063248
1700516908743956000,10.5789560546875,-0.03496783599257469,-0.023188410326838493,-0.25230494141578674
1700516908753966000,10.588966064453125,-0.023129288107156754,-0.0037803570739924908,-0.03189774602651596
1700516908763977000,10.59897705078125,-0.006119677796959877,0.030581876635551453,0.14952850341796875
1700516908773988000,10.608988037109375,0.02413809299468994,-0.05768246948719025,-0.03063913621008396
1700516908783999000,10.6189990234375,-0.039087481796741486,-0.009467537514865398,-0.2686210870742798
1700516908794009000,10.629009033203126,-0.032873526215553284,-0.01690840907394886,0.05615301802754402
1700516908804020000,10.63902001953125,0.011236143298447132,0.015857793390750885,0.10940558463335037
1700516908814031000,10.649031005859374,0.001359543763101101,0.1469862461090088,0.08312418311834335
1700516908824041200,10.659041259765624,-0.00318886898458004,-0.13695625960826874,0.04230138286948204
1700516908834052000,10.669052001953125,-0.025684857740998268,0.09028968214988708,-0.20076745748519897
1700516908844063000,10.67906298828125,-0.016324911266565323,-0.03867335990071297,0.08695460855960846
1700516908854074000,10.68907421875,0.0067452541552484035,0.08661691844463348,0.16733919084072113
1700516908864084000,10.699083984375,0.01260793674737215,-0.09624184668064117,-0.008510664105415344
1700516908874094800,10.7090947265625,-0.04417358711361885,0.0451754666864872,-0.18971852958202362
1700516908884106000,10.71910595703125,-0.014331535436213017,-0.0633733794093132,0.132548987865448
1700516908894115800,10.72911572265625,0.011146394535899162,0.03582058101892471,0.1311340481042862
1700516908904127200,10.739127197265624,-0.0005888249143026769,0.07405691593885422,0.16607952117919922
1700516908914138000,10.74913818359375,-0.008760201744735241,-0.13749846816062927,0.021077854558825493
1700516908924149000,10.75914892578125,-0.025201493874192238,0.1287049800157547,-0.1414623260498047
1700516908934159000,10.7691591796875,-0.01595127023756504,-0.035288747400045395,0.16493062674999237
1700516908944170000,10.779169921875,0.012235627509653568,0.08234600722789764,0.1844092607498169
1700516908954180900,10.789180908203125,-0.00015952334797475487,-0.07322227954864502,-0.0629800334572792
1700516908964191000,10.79919091796875,-0.017845576629042625,0.09288226813077927,-0.1346646100282669
1700516908974201900,10.809201904296875,0.004974252078682184,-0.09731749445199966,0.12395736575126648
1700516908984213000,10.819212890625,0.01290408056229353,0.08420462906360626,0.04989565536379814
1700516908994224000,10.82922412109375,0.010382866486907005,-0.015469237230718136,0.13873843848705292
1700516909004234000,10.83923388671875,0.00015180018090177327,-0.042931221425533295,-0.11994185298681259
1700516909014245000,10.8492451171875,-0.01312006264925003,0.04330859333276749,-0.11119123548269272
1700516909024256000,10.859256103515625,0.012374910525977612,0.0036730316933244467,0.10596318542957306
1700516909034266000,10.86926611328125,0.015564578585326672,0.014183729887008667,0.08499691635370255
1700516909044277000,10.879277099609375,-0.016713200137019157,-0.06327670812606812,-0.20498937368392944
1700516909054288100,10.8892880859375,-0.019108446314930916,0.05185573920607567,-0.08193348348140717
1700516909064298200,10.89929833984375,0.012900618836283684,-0.0791211873292923,0.15551449358463287
1700516909074309000,10.90930908203125,0.002526541007682681,0.11251615732908249,0.02456020377576351
1700516909084320000,10.919320068359376,0.008854744024574757,-0.07822290062904358,0.11390339583158493
1700516909094331100,10.9293310546875,-0.009079248644411564,-0.00541447289288044,-0.16198384761810303
1700516909104341000,10.939341064453124,-0.020929517224431038,0.002773682354018092,-0.03370895981788635
1700516909114351900,10.949351806640625,0.006205165293067694,-0.0003834952076431364,0.1354699432849884
1700516909124363000,10.959363037109375,0.0005158542771823704,-0.04259699583053589,0.09519442915916443
1700516909134372900,10.969372802734375,-0.035296205431222916,-0.14764352142810822,-0.14643816649913788
1700516909144384300,10.97938427734375,-0.04166116192936897,-0.08202136307954788,0.08021094650030136
1700516909154395100,10.98939501953125,0.022969497367739677,-0.16948623955249786,0.27052071690559387
1700516909164405000,10.999405029296875,-0.03525492548942566,-0.0892728865146637,0.15568333864212036
1700516909174416100,11.009416015625,-0.006691192276775837,-0.08514445275068283,0.19133241474628448
1700516909184427000,11.019427001953124,-0.0013946974650025368,-0.045095041394233704,-0.07886019349098206
1700516909194438000,11.02943798828125,0.0036546560004353523,-0.051772914826869965,0.05764811486005783
1700516909204448000,11.039447998046874,0.015234612859785557,-0.016269251704216003,0.1452336311340332
1700516909214459000,11.049458984375,0.00621022516861558,0.0021949773654341698,0.04940083995461464
1700516909224470000,11.059469970703125,0.0018181400373578072,-0.06071554496884346,-0.14098961651325226
1700516909234480000,11.069480224609375,-0.012210327200591564,-0.015128086321055889,0.054911985993385315
1700516909244491000,11.079490966796875,0.013539244420826435,0.019397666677832603,0.07844207435846329
1700516909254502100,11.089502197265626,0.0010008158860728145,0.12848606705665588,-0.042328547686338425
1700516909264512000,11.099511962890626,0.002496979897841811,0.04478824511170387,0.043424174189567566
1700516909274523100,11.109523193359376,0.005619269795715809,0.11036165803670883,-0.19884678721427917
1700516909284534000,11.119533935546874,-0.0019371833186596632,0.08622543513774872,-0.02292715385556221
1700516909294545000,11.129544921875,0.025785258039832115,0.1699826419353485,0.0052376389503479
1700516909304555000,11.139554931640625,0.010326406918466091,0.13141848146915436,-0.10795789211988449
1700516909314566100,11.149566162109375,0.003370763035491109,0.03831196948885918,-0.2521156072616577
1700516909324577000,11.159576904296875,-0.016213057562708855,0.0441908985376358,-0.0022953785955905914
1700516909334587100,11.169587158203125,0.022119417786598206,-0.05336575210094452,0.029896380379796028
