time,seconds_elapsed,z,y,x
1697853777923708000,0.0087080078125,0.04253864288330078,0.003387451171875,-0.00534917414188385
1697853777933829000,0.0188291015625,0.035346031188964844,0.010633349418640137,-0.007746800780296326
1697853777943809000,0.02880908203125,0.04492378234863281,0.009441256523132324,0.006675258278846741
1697853777953755000,0.0387548828125,0.041339874267578125,0.008191943168640137,-0.0064872801303863525
1697853777963734000,0.048734130859375,0.024587631225585938,0.01292884349822998,0.0018483102321624756
1697853777973636000,0.058635986328125,0.035370826721191406,0.01165616512298584,0.011328831315040588
1697853777983637000,0.068636962890625,0.032965660095214844,0.01291656494140625,0.004094406962394714
1697853777993636000,0.078635986328125,0.025786399841308594,0.010493874549865723,0.014784649014472961
1697853778003580000,0.088579833984375,0.04135417938232422,0.017632365226745605,0.011143654584884644
1697853778013639000,0.098638916015625,0.043755531311035156,0.018776297569274902,0.012279823422431946
1697853778023731000,0.10873095703125,0.054541587829589844,0.01868283748626709,0.008596286177635193
1697853778033669000,0.118669189453125,0.06054210662841797,0.02098250389099121,0.004987508058547974
1697853778043697000,0.12869677734375,0.058147430419921875,0.012610435485839844,-0.0009831339120864868
1697853778054658000,0.139657958984375,0.06293010711669922,0.0150529146194458,-0.014032885432243347
1697853778064872000,0.149871826171875,0.05693244934082031,0.0007690191268920898,-0.0020248591899871826
1697853778074627000,0.159626953125,0.048553466796875,0.001966118812561035,-0.011601671576499939
1697853778085006000,0.170006103515625,0.031785011291503906,0.005627989768981934,-0.012681007385253906
1697853778094609000,0.17960888671875,0.03057861328125,0.005693793296813965,-0.006689786911010742
1697853778104747000,0.1897470703125,0.03297901153564453,0.004443764686584473,-0.005546301603317261
1697853778115666000,0.200666015625,0.048526763916015625,0.003346085548400879,0.0016163438558578491
1697853778124641000,0.20964111328125,0.053315162658691406,0.017711281776428223,-0.003172054886817932
1697853778134640000,0.21964013671875,0.05451202392578125,0.018908381462097168,-0.001974955201148987
1697853778144665000,0.2296650390625,0.043738365173339844,0.00813448429107666,-0.0007778555154800415
1697853778154584000,0.239583984375,0.052117347717285156,0.004543185234069824,-0.005566254258155823
1697853778165429000,0.250428955078125,0.04253864288330078,0.0033653974533081055,0.002873837947845459
1697853778177340000,0.26233984375,0.047326087951660156,0.008158087730407715,-0.0007206350564956665
1697853778190832400,0.275832275390625,0.044910430908203125,0.019077420234680176,-0.0031036585569381714
1697853778206771000,0.29177099609375,0.04490947723388672,0.016687870025634766,-0.0007127076387405396
1697853778217944000,0.302944091796875,0.06406307220458984,0.009511351585388184,-0.001843765377998352
1697853778234662000,0.319661865234375,0.03892230987548828,0.0023491382598876953,-0.004166349768638611
1697853778244603000,0.329602783203125,0.03532886505126953,0.00594782829284668,-0.007801905274391174
1697853778254589000,0.3395888671875,0.04012298583984375,0.002312302589416504,-0.01022803783416748
1697853778264728000,0.34972802734375,0.049698829650878906,0.004712820053100586,-0.0019019991159439087
1697853778275123000,0.360123046875,0.04610729217529297,0.007113337516784668,-0.0018361955881118774
1697853778284598000,0.369597900390625,0.05089569091796875,0.011907815933227539,0.001819029450416565
1697853778294681000,0.37968115234375,0.04372215270996094,0.011854052543640137,-0.008949100971221924
1697853778304846000,0.38984619140625,0.04850959777832031,0.007071852684020996,0.004224672913551331
1697853778314691000,0.399691162109375,0.041321754455566406,0.01787436008453369,0.004205226898193359
1697853778324603000,0.409602783203125,0.04850292205810547,0.0023180246353149414,0.0053478628396987915
1697853778334598000,0.419597900390625,0.06048107147216797,0.008249878883361816,-0.006685361266136169
1697853778344740000,0.429739990234375,0.055703163146972656,0.009385943412780762,-0.011400774121284485
1697853778354614000,0.439614013671875,0.047331809997558594,0.008138418197631836,-0.005363598465919495
1697853778364603000,0.449602783203125,0.052127838134765625,0.009282350540161133,-0.010205760598182678
1697853778374735000,0.459735107421875,0.04734516143798828,0.0020627975463867188,-0.012617021799087524
1697853778384633000,0.469633056640625,0.0401611328125,0.003265857696533203,-0.0066258907318115234
1697853778394670000,0.479670166015625,0.034165382385253906,0.0021342039108276367,-0.005482330918312073
1697853778404657000,0.489656982421875,0.04852008819580078,0.012973666191101074,0.004100054502487183
1697853778414670000,0.499670166015625,0.04852771759033203,0.010527610778808594,0.0076468586921691895
1697853778424609000,0.509609130859375,0.042550086975097656,0.014055132865905762,0.006453081965446472
1697853778434650000,0.519650146484375,0.04495429992675781,0.011608242988586426,0.00047320127487182617
1697853778444764000,0.529763916015625,0.044960975646972656,0.011555194854736328,-0.0007775276899337769
1697853778454662000,0.539661865234375,0.05094337463378906,0.004386186599731445,0.011158645153045654
1697853778464647000,0.54964697265625,0.05933189392089844,0.009121537208557129,-0.0008067041635513306
1697853778474713000,0.559713134765625,0.05694580078125,0.009070634841918945,0.00041453540325164795
1697853778484636000,0.569635986328125,0.04737663269042969,0.013806700706481934,0.0004200935363769531
1697853778494607000,0.579607177734375,0.055755615234375,0.010222673416137695,0.0016320198774337769
1697853778504563000,0.58956298828125,0.04856395721435547,0.001910090446472168,-0.00792992115020752
1697853778514623000,0.599623046875,0.05095481872558594,0.01628255844116211,-0.0007917732000350952
1697853778524583000,0.6095830078125,0.036599159240722656,0.013817191123962402,-0.006875589489936829
1697853778534628000,0.619628173828125,0.039000511169433594,0.010173320770263672,-0.009323060512542725
1697853778544727000,0.62972705078125,0.0366058349609375,0.0077877044677734375,-0.0021162182092666626
1697853778555081000,0.6400810546875,0.05335521697998047,0.011444926261901855,-0.00928407907485962
1697853778564613000,0.649613037109375,0.05453681945800781,0.015136122703552246,-0.0116710364818573
1697853778574613000,0.659613037109375,0.05931377410888672,0.00921475887298584,0.0014343857765197754
1697853778584798000,0.6697978515625,0.05811500549316406,0.005629777908325195,-0.008196324110031128
1697853778594745000,0.6797451171875,0.06170463562011719,0.0056362152099609375,-0.0069936662912368774
1697853778604605000,0.68960498046875,0.05930900573730469,0.003246903419494629,-0.007057711482048035
1697853778614822000,0.69982177734375,0.04972267150878906,0.003310680389404297,-0.00944635272026062
1697853778624601000,0.70960107421875,0.0509185791015625,0.009301066398620605,-0.0022672414779663086
1697853778634671000,0.719671142578125,0.056893348693847656,0.010564088821411133,-0.005852818489074707
1697853778644703000,0.729702880859375,0.04973125457763672,0.017613649368286133,0.00008589029312133789
1697853778654709000,0.739708984375,0.05453777313232422,0.010308146476745605,0.013207569718360901
1697853778666358000,0.75135791015625,0.05216026306152344,0.010187864303588867,0.011953949928283691
1697853778674922000,0.759921875,0.040198326110839844,0.01492166519165039,-0.0047997236251831055
1697853778684728000,0.76972802734375,0.04139232635498047,0.012533426284790039,-0.0060485899448394775
1697853778694855000,0.77985498046875,0.04258155822753906,0.01140141487121582,-0.0047867149114608765
1697853778704744000,0.789743896484375,0.035388946533203125,0.005480170249938965,0.0035800039768218994
1697853778715101000,0.800100830078125,0.03298377990722656,0.006741642951965332,-0.004794135689735413
1697853778724665000,0.8096650390625,0.0449371337890625,0.009261369705200195,-0.007182613015174866
1697853778734687000,0.81968701171875,0.03895092010498047,-0.0015058517456054688,-0.004782885313034058
1697853778745026000,0.830026123046875,0.046131134033203125,0.0056836605072021484,-0.006024181842803955
1697853778754859000,0.83985888671875,0.05330181121826172,0.0057489871978759766,-0.009668871760368347
1697853778765004000,0.850004150390625,0.06526851654052734,0.004576325416564941,-0.010890856385231018
1697853778774737000,0.85973681640625,0.06288337707519531,0.00691986083984375,-0.002505689859390259
1697853778784786000,0.869785888671875,0.05928993225097656,0.012911200523376465,0.005820512771606445
1697853778794763000,0.879762939453125,0.06048774719238281,0.020077824592590332,-0.00022040307521820068
1697853778804657000,0.889656982421875,0.044921875,0.014098167419433594,-0.0015304982662200928
1697853778814746000,0.89974609375,0.05449867248535156,0.011711478233337402,-0.005107030272483826
1697853778824804000,0.90980419921875,0.04732322692871094,0.01405191421508789,-0.007495507597923279
1697853778834674000,0.919673828125,0.054505348205566406,0.008072257041931152,-0.006292670965194702
1697853778845134000,0.930134033203125,0.043730735778808594,0.010472655296325684,0.0032309740781784058
1697853778854608000,0.93960791015625,0.043727874755859375,0.0032951831817626953,0.001972109079360962
1697853778864640000,0.949639892578125,0.04490470886230469,0.004621982574462891,-0.001622810959815979
1697853778874582000,0.95958203125,0.03891754150390625,0.0010374784469604492,-0.002877965569496155
1697853778884665000,0.9696650390625,0.041309356689453125,0.005831122398376465,-0.0005303472280502319
1697853778894962000,0.9799619140625,0.048491477966308594,0.00942373275756836,0.010159030556678772
1697853778904818000,0.98981787109375,0.054474830627441406,0.007035613059997559,-0.003003343939781189
1697853778914706000,0.999705810546875,0.055670738220214844,0.005853772163391113,-0.012536346912384033
1697853778924664000,1.0096640625,0.05685710906982422,0.009508371353149414,-0.01136954128742218
1697853778934696000,1.019696044921875,0.049658775329589844,-0.0011383295059204102,-0.021983787417411804
1697853778944756000,1.029755859375,0.05564117431640625,0.003668665885925293,-0.009983718395233154
1697853778954668000,1.03966796875,0.04844093322753906,0.006184816360473633,-0.007584109902381897
1697853778964676000,1.049676025390625,0.052039146423339844,0.006131172180175781,0.004392638802528381
1697853778974625000,1.059625,0.0628042221069336,0.008588910102844238,0.0020039230585098267
1697853778984704000,1.0697041015625,0.056817054748535156,0.01338505744934082,0.004413574934005737
1697853778994910000,1.079909912109375,0.060408592224121094,0.015786409378051758,-0.0015576332807540894
1697853779004625000,1.089625,0.06160259246826172,0.012204289436340332,0.0031930208206176758
1697853779015029000,1.100029052734375,0.04483509063720703,0.0074803829193115234,-0.0003840327262878418
1697853779024977000,1.109976806640625,0.050810813903808594,0.006348013877868652,-0.00031213462352752686
1697853779035075000,1.120074951171875,0.0484161376953125,0.009943008422851562,-0.003915920853614807
1697853779045202000,1.130201904296875,0.036444664001464844,0.0075539350509643555,-0.0015253126621246338
1697853779054789000,1.1397890625,0.04482269287109375,0.005167245864868164,-0.0027671903371810913
1697853779064934000,1.149933837890625,0.043643951416015625,0.012223243713378906,-0.01117810606956482
1697853779075036000,1.160035888671875,0.053229331970214844,0.0061833858489990234,-0.003989681601524353
1697853779084733000,1.16973291015625,0.05921363830566406,0.01696455478668213,-0.00038373470306396484
1697853779094805000,1.179804931640625,0.0723714828491211,0.006255984306335449,-0.0004372596740722656
1697853779104868000,1.1898681640625,0.059200286865234375,0.008657574653625488,0.0031094402074813843
1697853779114808000,1.19980810546875,0.04843425750732422,0.0038172006607055664,0.003057226538658142
1697853779124597000,1.209596923828125,0.04364299774169922,0.008611559867858887,0.004201725125312805
1697853779134726000,1.219725830078125,0.04484748840332031,0.006171107292175293,-0.010156288743019104
1697853779144835000,1.2298349609375,0.037662506103515625,0.013368010520935059,-0.0005629360675811768
1697853779154608000,1.239608154296875,0.04243946075439453,0.013441920280456543,-0.0017431825399398804
1697853779164781000,1.249781005859375,0.03404712677001953,0.017123818397521973,-0.006496042013168335
1697853779174762000,1.259761962890625,0.03645610809326172,0.026594042778015137,0.0018247365951538086
1697853779184794000,1.269794189453125,0.04962635040283203,0.015810370445251465,0.005404815077781677
1697853779198110000,1.28310986328125,0.09596920013427734,-0.038575053215026855,0.07335209846496582
1697853779214800000,1.2997998046875,0.12351036071777344,0.03440690040588379,-0.015153005719184875
1697853779224693000,1.30969287109375,0.11276912689208984,0.04860877990722656,-0.03391362726688385
1697853779234723000,1.31972314453125,0.031402587890625,0.020900249481201172,-0.03947129845619202
1697853779244804000,1.32980419921875,0.044541358947753906,-0.017172694206237793,-0.034319356083869934
1697853779254703000,1.339703125,0.058899879455566406,0.0008453130722045898,-0.019820407032966614
1697853779266267000,1.351266845703125,-0.017732620239257812,-0.02177739143371582,-0.004214465618133545
1697853779274823000,1.359822998046875,0.07321929931640625,-0.015610694885253906,-0.005387753248214722
1697853779286961000,1.3719609375,0.04211711883544922,0.016615867614746094,-0.032546475529670715
1697853779304708000,1.3897080078125,0.0468902587890625,0.010732412338256836,-0.012213408946990967
1697853779314723000,1.39972314453125,0.04808521270751953,0.010738968849182129,0.009271040558815002
1697853779324709000,1.409709228515625,0.05048370361328125,0.021472573280334473,0.005617424845695496
1697853779334747000,1.419746826171875,0.0648488998413086,0.016639113426208496,0.02924351394176483
1697853779344798000,1.4297978515625,-0.0632314682006836,-0.02173459529876709,0.004061877727508545
1697853779355040000,1.4400400390625,0.10797691345214844,0.028472065925598145,-0.04565057158470154
1697853779364814000,1.44981396484375,-0.017711639404296875,0.005657076835632324,0.008034884929656982
1697853779374753000,1.4597529296875,-0.10269641876220703,0.007984519004821777,0.006765991449356079
1697853779385041000,1.470041015625,0.16184425354003906,0.05839240550994873,0.03197900950908661
1697853779394761000,1.479760986328125,0.1486663818359375,0.03691720962524414,-0.014640405774116516
1697853779404770000,1.48977001953125,0.09718990325927734,0.034537315368652344,0.0021961629390716553
1697853779414777000,1.499777099609375,0.0636892318725586,0.017679452896118164,-0.02521960437297821
1697853779424804000,1.50980419921875,0.08040618896484375,-0.007242083549499512,0.03183013200759888
1697853779434737000,1.51973681640625,0.06843376159667969,0.013122797012329102,0.0031163692474365234
1697853779444782000,1.529781982421875,0.016927719116210938,-0.007067203521728516,0.029171884059906006
1697853779454797000,1.539797119140625,0.032497406005859375,0.018030285835266113,-0.009062647819519043
1697853779464827000,1.549826904296875,0.06842803955078125,0.03109145164489746,-0.011428073048591614
1697853779474749000,1.5597490234375,0.04805469512939453,-0.009421586990356445,-0.0326845645904541
1697853779484787000,1.569786865234375,0.04806327819824219,0.008485198020935059,-0.02065587043762207
1697853779494813000,1.57981298828125,0.049282073974609375,0.02154362201690674,-0.029999375343322754
1697853779504795000,1.589794921875,0.04206085205078125,-0.021294116973876953,-0.01673939824104309
1697853779514808000,1.59980810546875,0.048048973083496094,0.014606475830078125,-0.01196257770061493
1697853779524754000,1.60975390625,0.03248119354248047,-0.011692047119140625,-0.007132872939109802
1697853779534789000,1.6197890625,0.042046546936035156,-0.0116349458694458,0.009510219097137451
1697853779544809000,1.62980908203125,0.07556533813476562,0.026667118072509766,0.007087767124176025
1697853779554790000,1.639789794921875,0.06721782684326172,0.02886223793029785,-0.009669676423072815
1697853779564817000,1.64981689453125,-0.039315223693847656,0.008401751518249512,0.029485657811164856
1697853779574798000,1.659798095703125,0.0662221908569336,0.06670820713043213,0.07633078098297119
1697853779584788000,1.6697880859375,0.05664253234863281,0.010450959205627441,0.018792852759361267
1697853779594824000,1.679823974609375,0.07095718383789062,-0.01672959327697754,-0.010964110493659973
1697853779604790000,1.6897900390625,0.07933807373046875,0.015636086463928223,-0.038106769323349
1697853779614805000,1.699804931640625,0.05899333953857422,0.00735926628112793,-0.05861745774745941
1697853779624780000,1.709780029296875,0.01953125,0.015569686889648438,-0.05065689980983734
1697853779635185000,1.720184814453125,0.0674276351928711,0.013112783432006836,-0.024211958050727844
1697853779647192000,1.732192138671875,0.023145675659179688,0.011862635612487793,-0.024010926485061646
1697853779658558000,1.743557861328125,0.0267333984375,0.013078689575195312,-0.001322522759437561
1697853779674766000,1.75976611328125,0.06142902374267578,0.007212996482849121,-0.0061971694231033325
1697853779684682000,1.769681884765625,0.08535003662109375,0.007345080375671387,-0.0014419406652450562
1697853779694621000,1.779620849609375,0.06380462646484375,0.020501375198364258,-0.007376730442047119
1697853779704636000,1.789635986328125,0.04706096649169922,0.009624004364013672,0.0057666003704071045
1697853779714628000,1.799628173828125,0.05304718017578125,0.0156097412109375,-0.0002189725637435913
1697853779724614000,1.80961376953125,0.02671051025390625,0.010821342468261719,-0.0050073713064193726
1697853779734799000,1.819799072265625,0.042252540588378906,-0.008213043212890625,-0.011057078838348389
1697853779744662000,1.829662109375,0.0577850341796875,-0.01280224323272705,0.0032996535301208496
1697853779754618000,1.8396181640625,0.05299663543701172,0.0146867036819458,0.029318049550056458
1697853779764655000,1.849655029296875,0.031345367431640625,-0.038553714752197266,0.02423691749572754
1697853779774713000,1.859713134765625,0.07922077178955078,0.0034067630767822266,-0.017615437507629395
1697853779784723000,1.869722900390625,0.11272907257080078,-0.0037000179290771484,-0.006798163056373596
1697853779794712000,1.879712158203125,-0.0009965896606445312,-0.0061130523681640625,0.015774130821228027
1697853779804725000,1.88972509765625,0.015905380249023438,0.054021358489990234,-0.0021408051252365112
1697853779814726000,1.899725830078125,-0.24026012420654297,-0.04304623603820801,0.04444624483585358
1697853779824861000,1.90986083984375,0.21581268310546875,0.15341854095458984,0.03603127598762512
1697853779840760000,1.925760009765625,0.20859813690185547,0.008782386779785156,-0.03693702816963196
1697853779854761000,1.939760986328125,0.157135009765625,0.02787196636199951,-0.09789745509624481
1697853779864653000,1.949653076171875,0.1068716049194336,-0.017723917961120605,-0.06084813177585602
1697853779874636000,1.959635986328125,-0.009152412414550781,0.0034857988357543945,-0.08514396846294403
1697853779884645000,1.96964501953125,-0.03408622741699219,0.15866518020629883,0.11589373648166656
1697853779894849000,1.97984912109375,-0.04959392547607422,0.03977560997009277,0.011489689350128174
1697853779904640000,1.989639892578125,-0.19445514678955078,-0.023604273796081543,0.012640982866287231
1697853779914642000,1.999641845703125,0.09397029876708984,-0.008731603622436523,0.0020537227392196655
1697853779924827000,2.009826904296875,0.18493080139160156,0.005767464637756348,-0.03263644874095917
1697853779934739000,2.019739013671875,0.23880577087402344,0.006921887397766113,0.031982630491256714
1697853779944836000,2.029836181640625,0.09279251098632812,0.006700277328491211,-0.047109946608543396
1697853779954614000,2.039614013671875,0.006598472595214844,-0.021996259689331055,-0.02068871259689331
1697853779964617000,2.049616943359375,-0.026914596557617188,-0.044787049293518066,-0.019534900784492493
1697853779974730000,2.05972998046875,0.03289318084716797,-0.024107694625854492,-0.02411477267742157
1697853779984876000,2.0698759765625,0.010144233703613281,-0.00006413459777832031,-0.047446638345718384
1697853779994982000,2.07998193359375,0.09271621704101562,-0.0010383129119873047,-0.03518672287464142
1697853780004767000,2.08976708984375,0.09989356994628906,0.007354736328125,-0.0053730010986328125
1697853780015312000,2.100311767578125,0.06517505645751953,0.014548897743225098,0.004142254590988159
1697853780024721000,2.109720947265625,0.02444934844970703,-0.00569760799407959,0.033678993582725525
1697853780034656000,2.119656005859375,0.01723480224609375,-0.006760597229003906,0.045063525438308716
1697853780044721000,2.129720947265625,0.032794952392578125,-0.003176569938659668,0.016195982694625854
1697853780054768000,2.13976806640625,0.026801109313964844,-0.015104532241821289,0.01845964789390564
1697853780064615000,2.149614990234375,0.054291725158691406,-0.019612669944763184,-0.004244253039360046
1697853780074749000,2.1597490234375,0.056644439697265625,-0.00973653793334961,-0.025550514459609985
1697853780084613000,2.169613037109375,0.07336044311523438,-0.005840897560119629,-0.019361600279808044
1697853780094713000,2.179713134765625,0.079315185546875,-0.005621194839477539,-0.025178566575050354
1697853780104851000,2.189850830078125,0.060135841369628906,-0.005440711975097656,-0.022660493850708008
1697853780114870000,2.1998701171875,0.040978431701660156,0.006545424461364746,-0.005995228886604309
1697853780124658000,2.209657958984375,0.09962177276611328,0.009011983871459961,-0.004898920655250549
1697853780134616000,2.219615966796875,0.037357330322265625,-0.008864641189575195,0.005684003233909607
1697853780144617000,2.229616943359375,0.046939849853515625,0.005455493927001953,-0.007526561617851257
1697853780154705000,2.239704833984375,0.019392013549804688,-0.0028314590454101562,-0.012326106429100037
1697853780164697000,2.249697021484375,0.04812812805175781,0.006700396537780762,-0.008777394890785217
1697853780174788000,2.2597880859375,0.04574108123779297,0.02700984477996826,0.004367083311080933
1697853780184777000,2.26977685546875,0.046927452087402344,0.0127183198928833,0.006837517023086548
1697853780194648000,2.27964794921875,0.05890941619873047,0.02818882465362549,0.025768578052520752
1697853780204619000,2.289618896484375,0.06012248992919922,0.031664371490478516,0.018498733639717102
1697853780214674000,2.299673828125,0.0589447021484375,0.03395497798919678,-0.008894845843315125
1697853780224750000,2.30975,0.055397987365722656,0.040856122970581055,-0.007601261138916016
1697853780234781000,2.319781005859375,0.05188751220703125,0.05111968517303467,-0.00631462037563324
1697853780244683000,2.32968310546875,0.055545806884765625,0.048332929611206055,-0.01682564616203308
1697853780254651000,2.33965087890625,0.061614990234375,0.049050331115722656,-0.033101364970207214
1697853780264615000,2.349614990234375,0.054511070251464844,0.04740035533905029,-0.03027886152267456
1697853780274825000,2.359824951171875,0.04625701904296875,0.05504298210144043,-0.03452840447425842
1697853780284750000,2.36975,0.060723304748535156,0.05206620693206787,-0.036364272236824036
1697853780294870000,2.3798701171875,0.06563949584960938,0.05848228931427002,-0.023962542414665222
1697853780305121000,2.39012109375,0.06214427947998047,0.053113460540771484,-0.021282508969306946
1697853780314890000,2.399889892578125,0.06334304809570312,0.025585174560546875,-0.02711823582649231
1697853780324873000,2.409873046875,0.06575202941894531,0.02669966220855713,-0.015078693628311157
1697853780335016000,2.420015869140625,0.03940296173095703,0.0004334449768066406,-0.005562379956245422
1697853780344699000,2.429698974609375,0.03820037841796875,0.001657724380493164,-0.015208601951599121
1697853780355005000,2.4400048828125,0.04056835174560547,-0.010170817375183105,0.020445048809051514
1697853780364961000,2.4499609375,0.04053211212158203,-0.0028107166290283203,0.03915603458881378
1697853780374998000,2.459998046875,0.040497779846191406,-0.008626580238342285,0.03277917206287384
1697853780384952000,2.4699521484375,0.05602455139160156,-0.0036325454711914062,0.017073914408683777
1697853780394738000,2.479738037109375,0.05839729309082031,0.002468109130859375,0.020507588982582092
1697853780404684000,2.48968408203125,0.05359458923339844,-0.005830168724060059,0.009639173746109009
1697853780414719000,2.499718994140625,0.03681755065917969,-0.014108896255493164,0.016716837882995605
1697853780424769000,2.50976904296875,0.0343475341796875,-0.0327756404876709,-0.0023908764123916626
1697853780434934000,2.51993408203125,0.03188800811767578,-0.027547240257263184,-0.00828486680984497
1697853780444658000,2.529657958984375,0.053325653076171875,-0.04116976261138916,-0.021131813526153564
1697853780455213000,2.540213134765625,0.06879520416259766,-0.032152533531188965,-0.012516334652900696
1697853780464774000,2.54977392578125,0.08789348602294922,-0.022187232971191406,-0.01944221556186676
1697853780474996000,2.559995849609375,0.0866079330444336,-0.028774738311767578,-0.01443338394165039
1697853780484608000,2.56960791015625,0.08773136138916016,-0.027074575424194336,0.00010257959365844727
1697853780494632000,2.5796318359375,0.07207202911376953,-0.03363394737243652,-0.004692584276199341
1697853780504697000,2.589697021484375,0.0742959976196289,-0.046892762184143066,-0.003451526165008545
1697853780514779000,2.59977880859375,0.07526779174804688,-0.06098282337188721,-0.01048840582370758
1697853780524843000,2.609843017578125,0.08221626281738281,-0.06183767318725586,-0.00910709798336029
1697853780534875000,2.619875,0.08914661407470703,-0.06375229358673096,-0.01593846082687378
1697853780545195000,2.630195068359375,0.08407974243164062,-0.06666326522827148,-0.022573202848434448
1697853780555002000,2.640002197265625,0.07775402069091797,-0.07626044750213623,-0.04170908033847809
1697853780564936000,2.64993603515625,0.0809793472290039,-0.07733476161956787,-0.03829669952392578
1697853780574743000,2.659742919921875,0.07111644744873047,-0.06812453269958496,-0.04902994632720947
1697853780584818000,2.66981787109375,0.07214546203613281,-0.05019521713256836,-0.03287062048912048
1697853780594678000,2.679677978515625,0.08644294738769531,-0.03176701068878174,-0.01834729313850403
1697853780604938000,2.68993798828125,0.08159732818603516,-0.025405406951904297,-0.009923875331878662
1697853780614865000,2.699864990234375,0.06245231628417969,-0.008722424507141113,0.001903235912322998
1697853780624625000,2.709625,0.0696420669555664,-0.008781671524047852,-0.004176691174507141
1697853780634622000,2.7196220703125,0.009730339050292969,-0.03600263595581055,0.027720153331756592
1697853780644627000,2.729626953125,-0.058434486389160156,0.018561720848083496,0.027339667081832886
1697853780654729000,2.73972900390625,0.08717632293701172,-0.08284640312194824,0.025402560830116272
1697853780665000000,2.75,0.0644521713256836,0.029556989669799805,-0.015202835202217102
1697853780674994000,2.759993896484375,0.03204822540283203,0.0021671056747436523,0.09910579770803452
1697853780685567000,2.77056689453125,0.04402923583984375,0.02837836742401123,0.031679585576057434
1697853780695127000,2.780126953125,0.016526222229003906,0.03415834903717041,0.010062575340270996
1697853780704670000,2.789669921875,0.07164382934570312,0.0409773588180542,0.024166032671928406
1697853780714717000,2.799717041015625,0.037003517150878906,0.04526829719543457,0.0025944262742996216
1697853780724725000,2.80972509765625,0.051423072814941406,0.047284603118896484,0.010800391435623169
1697853780734728000,2.81972802734375,0.07062435150146484,0.04456925392150879,0.013130336999893188
1697853780744719000,2.829718994140625,0.06467914581298828,0.03713810443878174,-0.009467527270317078
1697853780755014000,2.840013916015625,0.05634307861328125,0.03805375099182129,0.0024988949298858643
1697853780765030000,2.85002978515625,0.05044078826904297,0.04593849182128906,-0.027058914303779602
1697853780775031000,2.860031005859375,0.04929828643798828,0.03605473041534424,-0.029091447591781616
1697853780784991000,2.869990966796875,0.06493186950683594,0.0428314208984375,-0.0334334522485733
1697853780795013000,2.88001318359375,0.05899238586425781,0.04375576972961426,-0.011703044176101685
1697853780805001000,2.8900009765625,0.05900859832763672,0.03289449214935303,-0.023458868265151978
1697853780815002000,2.900002197265625,0.05787181854248047,0.03971421718597412,-0.02209305763244629
1697853780825014000,2.910013916015625,0.05072784423828125,0.03229320049285889,-0.014783695340156555
1697853780834787000,2.919787109375,0.03761005401611328,0.033214569091796875,-0.026404544711112976
1697853780846346000,2.931345947265625,0.034038543701171875,0.02232348918914795,-0.016689226031303406
1697853780854814000,2.93981396484375,0.03405475616455078,0.022231101989746094,-0.016600891947746277
1697853780864819000,2.94981884765625,0.04601573944091797,0.02110147476196289,-0.0010259449481964111
1697853780874819000,2.959819091796875,0.04123973846435547,0.025799036026000977,0.008507132530212402
1697853780884651000,2.969651123046875,0.07119178771972656,0.03042304515838623,0.009642526507377625
1697853780894833000,2.9798330078125,0.06523323059082031,0.036209821701049805,0.009492963552474976
1697853780904918000,2.98991796875,0.06524372100830078,0.03732490539550781,0.00699731707572937
1697853780914621000,2.999620849609375,0.04849720001220703,0.03006911277770996,0.007020473480224609
1697853780924582000,3.009581787109375,0.043730735778808594,0.026317596435546875,0.006931006908416748
1697853780934715000,3.01971484375,0.04374885559082031,0.032189249992370605,-0.0002403855323791504
1697853780944619000,3.029618896484375,0.03658771514892578,0.03801906108856201,-0.0027301162481307983
1697853780954724000,3.03972412109375,0.018680572509765625,0.037674665451049805,0.010226249694824219
1697853780964613000,3.049613037109375,0.05821418762207031,0.04106903076171875,0.0005984008312225342
1697853780974755000,3.059755126953125,0.045104026794433594,0.04421079158782959,0.02884933352470398
1697853780984824000,3.069823974609375,0.04036140441894531,0.03906965255737305,0.029602378606796265
1697853780994630000,3.0796298828125,0.0355987548828125,0.036479949951171875,0.01975572109222412
1697853781004770000,3.08977001953125,0.05237388610839844,0.03036952018737793,0.020777195692062378
1697853781014753000,3.0997529296875,0.04518890380859375,0.030350327491760254,0.022978872060775757
1697853781024928000,3.109927978515625,0.07633209228515625,0.040995001792907715,0.013299837708473206
1697853781035039000,3.1200390625,0.07394123077392578,0.028992533683776855,0.012045055627822876
1697853781044941000,3.129941162109375,0.10268592834472656,0.02173447608947754,-0.02133318781852722
1697853781054850000,3.13985009765625,0.10869503021240234,0.025249123573303223,-0.04351484775543213
1697853781065056000,3.150055908203125,0.062003135681152344,-0.00696873664855957,-0.041760191321372986
1697853781075055000,3.16005517578125,0.12421226501464844,-0.005328774452209473,-0.07153438031673431
1697853781084752000,3.169751953125,0.05349445343017578,-0.029613375663757324,-0.08023962378501892
1697853781094715000,3.17971484375,0.04378700256347656,-0.04659903049468994,-0.04584324359893799
1697853781104741000,3.1897412109375,0.03755664825439453,-0.058986663818359375,-0.08729720115661621
1697853781115079000,3.200078857421875,0.018288612365722656,-0.042588114738464355,-0.04234561324119568
1697853781124635000,3.209634765625,0.04693031311035156,-0.033609986305236816,-0.014694616198539734
1697853781134775000,3.219775146484375,0.08280277252197266,-0.008162617683410645,-0.03590506315231323
1697853781144622000,3.2296220703125,0.019323348999023438,-0.002137899398803711,0.06336513161659241
1697853781154646000,3.23964599609375,0.03128242492675781,0.010758638381958008,0.09072880446910858
1697853781164676000,3.249676025390625,0.02161121368408203,-0.028257250785827637,0.051458925008773804
1697853781174693000,3.259693115234375,0.05398082733154297,0.03443491458892822,0.09962160140275955
1697853781184871000,3.269870849609375,0.03481578826904297,0.0032945871353149414,0.04986405372619629
1697853781194781000,3.279781005859375,0.03605365753173828,0.027976393699645996,0.06759002804756165
1697853781204668000,3.28966796875,0.08289813995361328,0.07604241371154785,-0.0017583221197128296
1697853781214934000,3.29993408203125,0.07111740112304688,0.07834625244140625,0.018199831247329712
1697853781224938000,3.30993798828125,0.07745170593261719,0.08946752548217773,-0.06029100716114044
1697853781234713000,3.319713134765625,0.051161766052246094,0.04487776756286621,-0.007536709308624268
1697853781245252000,3.330252197265625,0.14252376556396484,0.11201858520507812,-0.050412267446517944
1697853781254711000,3.3397109375,-0.05349540710449219,0.07265186309814453,0.0732264518737793
1697853781264959000,3.349958984375,0.01601123809814453,0.0482485294342041,-0.007989272475242615
1697853781277293000,3.36229296875,0.12251949310302734,0.0030519962310791016,-0.04212847352027893
1697853781294602000,3.37960205078125,0.15081310272216797,-0.05164361000061035,0.01000821590423584
1697853781304774000,3.38977392578125,0.0894765853881836,-0.06406307220458984,-0.03112959861755371
1697853781314707000,3.39970703125,0.08183002471923828,-0.09093928337097168,-0.005810141563415527
1697853781324661000,3.409660888671875,0.04152488708496094,-0.12300944328308105,0.034660980105400085
1697853781334700000,3.419699951171875,0.04094505310058594,-0.10851311683654785,0.013734623789787292
1697853781345209000,3.430208984375,0.05610942840576172,-0.08442413806915283,0.016785383224487305
1697853781354896000,3.439895751953125,0.06666088104248047,-0.059112548828125,0.029268503189086914
1697853781366033000,3.451032958984375,0.04741191864013672,-0.031008243560791016,0.025264635682106018
1697853781375210000,3.4602099609375,0.08552837371826172,-0.05138266086578369,0.03416593372821808
1697853781385121000,3.47012109375,0.054180145263671875,-0.05837881565093994,0.03346772491931915
1697853781394967000,3.479967041015625,0.08763790130615234,-0.029256224632263184,0.010643184185028076
1697853781405173000,3.490173095703125,0.08278560638427734,-0.025211453437805176,-0.019017532467842102
1697853781415170000,3.500170166015625,0.07318878173828125,-0.009420394897460938,-0.044596970081329346
1697853781425153000,3.510153076171875,0.06483078002929688,0.015705227851867676,-0.053210631012916565
1697853781435181000,3.52018115234375,0.057747840881347656,0.03917503356933594,-0.06257021427154541
1697853781445007000,3.530007080078125,0.042209625244140625,0.037833571434020996,-0.006201848387718201
1697853781454932000,3.539931884765625,0.1022796630859375,0.08557939529418945,-0.029515549540519714
1697853781464923000,3.5499228515625,0.0022974014282226562,0.10006427764892578,-0.0643637627363205
1697853781474828000,3.559828125,0.019641876220703125,0.10135769844055176,-0.0725531280040741
1697853781484842000,3.569842041015625,0.03454017639160156,0.10053932666778564,-0.062152594327926636
1697853781494701000,3.579701171875,-0.000957489013671875,0.090781569480896,-0.038411498069763184
1697853781504876000,3.5898759765625,-0.008982658386230469,0.08842206001281738,0.005577802658081055
1697853781514742000,3.599741943359375,0.017660140991210938,0.08877623081207275,0.006446540355682373
1697853781525007000,3.610007080078125,-0.014300346374511719,0.09116744995117188,0.008449003100395203
1697853781534958000,3.6199580078125,0.03505516052246094,0.08807766437530518,0.025627166032791138
1697853781545326000,3.630326171875,0.054549217224121094,0.09407675266265869,0.03988869488239288
1697853781555028000,3.640028076171875,0.06438350677490234,0.08626663684844971,0.041099533438682556
1697853781565275000,3.65027490234375,0.09329700469970703,0.0740656852722168,0.06320701539516449
1697853781575206000,3.660205810546875,0.08738231658935547,0.04713118076324463,0.05492961406707764
1697853781585114000,3.670114013671875,0.08133792877197266,0.0006316900253295898,0.06906090676784515
1697853781594787000,3.679787109375,0.07638740539550781,-0.022496700286865234,0.07561404258012772
1697853781605214000,3.6902138671875,0.07732486724853516,-0.042587995529174805,0.06665639579296112
1697853781615162000,3.700162109375,0.07708454132080078,-0.0447770357131958,0.0534968376159668
1697853781625068000,3.710068115234375,0.07696533203125,-0.030879855155944824,0.03396594524383545
1697853781635222000,3.720221923828125,0.053009986877441406,-0.009230375289916992,0.0006141513586044312
1697853781645056000,3.730055908203125,0.048209190368652344,-0.0006910562515258789,-0.03948730230331421
1697853781655186000,3.74018603515625,0.020682334899902344,-0.004117846488952637,-0.07017683982849121
1697853781665203000,3.750202880859375,-0.0020093917846679688,0.003052949905395508,-0.09037263691425323
1697853781675041000,3.760041015625,0.0052509307861328125,0.01595890522003174,-0.07891976833343506
1697853781685159000,3.770158935546875,0.015008926391601562,0.0342634916305542,-0.08726745843887329
1697853781695026000,3.78002587890625,0.032021522521972656,0.054456472396850586,-0.07792271673679352
1697853781704949000,3.789948974609375,0.04319572448730469,0.07974779605865479,-0.08011515438556671
1697853781715146000,3.80014599609375,0.07097911834716797,0.08419239521026611,-0.025745004415512085
1697853781725268000,3.81026806640625,0.05677032470703125,0.07002806663513184,-0.007649421691894531
1697853781735200000,3.820199951171875,0.03764915466308594,0.03870224952697754,-0.01596391201019287
1697853781745025000,3.83002490234375,0.060395240783691406,0.02184903621673584,0.044431447982788086
1697853781755194000,3.840194091796875,0.038848876953125,0.01912856101989746,0.08400420099496841
1697853781765239000,3.850239013671875,0.08428096771240234,0.01675128936767578,0.09088088572025299
1697853781775032000,3.860031982421875,0.04352760314941406,0.008530855178833008,0.06204286217689514
1697853781785225000,3.870224853515625,0.06985664367675781,0.02510058879852295,0.07455959916114807
1697853781795194000,3.880194091796875,0.047112464904785156,0.020208001136779785,0.04509951174259186
1697853781805232000,3.890232177734375,0.05311298370361328,0.017650723457336426,0.04218457639217377
1697853781815186000,3.90018603515625,0.03755664825439453,0.0008509159088134766,0.007453754544258118
1697853781825076000,3.910075927734375,0.06270217895507812,0.004397869110107422,-0.000951424241065979
1697853781835004000,3.92000390625,0.10687065124511719,-0.0354541540145874,-0.02215765416622162
1697853781849475000,3.93447509765625,0.12567710876464844,-0.05704605579376221,-0.023702144622802734
1697853781859652000,3.944652099609375,0.0868978500366211,-0.0886693000793457,-0.011421814560890198
1697853781874688000,3.95968798828125,0.04722309112548828,-0.1310194730758667,-0.025162577629089355
1697853781884728000,3.96972802734375,0.04782581329345703,-0.10790145397186279,-0.018494129180908203
1697853781894655000,3.979655029296875,0.03551483154296875,-0.08177149295806885,0.0111762136220932
1697853781904578000,3.989578125,0.0437164306640625,-0.05654323101043701,-0.03942538797855377
1697853781914714000,3.999714111328125,0.0687875747680664,-0.033295392990112305,-0.02101464569568634
1697853781924803000,4.009802978515625,0.038857460021972656,-0.01648104190826416,-0.013554409146308899
1697853781934714000,4.019714111328125,0.04485797882080078,0.006223917007446289,-0.032251134514808655
1697853781944592000,4.029591796875,0.056804656982421875,-0.011486530303955078,-0.03644117712974548
1697853781954843000,4.0398427734375,0.07955455780029297,0.005260586738586426,-0.0207202285528183
1697853781964855000,4.04985498046875,0.10230255126953125,0.01604461669921875,-0.02647501230239868
1697853781974671000,4.059671142578125,0.06759071350097656,0.005246162414550781,0.01304452121257782
1697853781984863000,4.069863037109375,0.0030059814453125,0.03351247310638428,0.03877191245555878
1697853781994698000,4.079697998046875,-0.007633209228515625,0.05891215801239014,0.0168495774269104
1697853782004848000,4.08984814453125,-0.010949134826660156,0.07513117790222168,-0.024608895182609558
1697853782015002000,4.100002197265625,0.007391929626464844,0.08950197696685791,-0.03565557301044464
1697853782024704000,4.1097041015625,0.023302078247070312,0.09323537349700928,-0.009236186742782593
1697853782034735000,4.119735107421875,0.052249908447265625,0.07739150524139404,0.016645684838294983
1697853782044603000,4.129602783203125,0.07756328582763672,0.07375085353851318,0.033810093998909
1697853782054817000,4.139817138671875,0.08608627319335938,0.06798100471496582,0.01547558605670929
1697853782064717000,4.149717041015625,0.06105804443359375,0.058823227882385254,0.017480313777923584
1697853782074797000,4.159797119140625,0.03716087341308594,0.0261538028717041,0.03500576317310333
1697853782084954000,4.1699541015625,-0.07059860229492188,-0.007421970367431641,0.07305969297885895
1697853782095258000,4.180258056640625,-0.027557373046875,-0.009598255157470703,0.0600740909576416
1697853782105039000,4.1900390625,0.11418437957763672,0.10973405838012695,-0.08197261393070221
1697853782115134000,4.200134033203125,0.1851329803466797,0.11855947971343994,-0.0355730801820755
1697853782124771000,4.20977099609375,0.2318105697631836,0.12222206592559814,-0.025938451290130615
1697853782134726000,4.219725830078125,0.04627704620361328,0.010764718055725098,0.017051532864570618
1697853782144714000,4.2297138671875,-0.01598072052001953,-0.021455883979797363,-0.03408767282962799
1697853782154955000,4.239955078125,-0.11772632598876953,-0.04185044765472412,-0.05920124053955078
1697853782164803000,4.249802978515625,0.07978153228759766,0.0025168657302856445,0.011345252394676208
1697853782174691000,4.259691162109375,0.011502265930175781,-0.012744784355163574,-0.022089779376983643
1697853782184807000,4.269806884765625,0.0689239501953125,0.0090714693069458,-0.03033481538295746
1697853782194708000,4.2797080078125,0.07488250732421875,0.018780231475830078,0.03041413426399231
1697853782204818000,4.28981787109375,0.05680274963378906,-0.016504406929016113,0.060232311487197876
1697853782214830000,4.299830078125,0.03399372100830078,-0.028124570846557617,0.03457987308502197
1697853782224669000,4.3096689453125,0.025389671325683594,-0.05677032470703125,0.05486033856868744
1697853782234829000,4.3198291015625,-0.01796722412109375,-0.06371164321899414,0.07204192876815796
1697853782244870000,4.329869873046875,0.038135528564453125,-0.05199086666107178,0.03413651883602142
1697853782254715000,4.33971484375,0.039252281188964844,-0.028810620307922363,0.043061763048172
1697853782264808000,4.349807861328125,0.06318187713623047,0.0035666227340698242,0.02376493811607361
1697853782274672000,4.359672119140625,0.10746574401855469,0.019202709197998047,-0.00010076165199279785
1697853782284962000,4.369962158203125,0.11945438385009766,0.03707289695739746,-0.0058822184801101685
1697853782294713000,4.379713134765625,0.12428092956542969,0.04402947425842285,-0.018863722681999207
1697853782304579000,4.3895791015625,0.1051788330078125,0.038941025733947754,-0.02578333020210266
1697853782314732000,4.39973193359375,0.07289505004882812,0.02197885513305664,-0.03265373408794403
1697853782324644000,4.40964404296875,0.03941059112548828,0.01580190658569336,-0.031164854764938354
1697853782334726000,4.419725830078125,0.020279884338378906,0.021689772605895996,-0.02959384024143219
1697853782344703000,4.429702880859375,0.023889541625976562,0.016834616661071777,-0.03758658468723297
1697853782354725000,4.43972509765625,0.03591442108154297,0.035712361335754395,-0.03823383152484894
1697853782364818000,4.44981787109375,0.041988372802734375,0.044818997383117676,-0.04574710130691528
1697853782374696000,4.459696044921875,0.04088115692138672,0.043131351470947266,-0.040312111377716064
1697853782384706000,4.4697060546875,0.03851890563964844,0.0321882963180542,-0.020878270268440247
1697853782394726000,4.479725830078125,0.037329673767089844,0.008190631866455078,-0.017258524894714355
1697853782404821000,4.489821044921875,0.01338958740234375,-0.009768486022949219,-0.008838742971420288
1697853782414826000,4.499825927734375,0.007404327392578125,-0.016963958740234375,0.0030739903450012207
1697853782424656000,4.50965576171875,0.020566940307617188,-0.007349967956542969,0.0042177289724349976
1697853782434853000,4.51985302734375,0.03371906280517578,0.004697084426879883,0.021980658173561096
1697853782444701000,4.529700927734375,0.07205486297607422,0.031970858573913574,0.04058997333049774
1697853782454844000,4.539843994140625,0.08886337280273438,0.04714548587799072,0.03530256450176239
1697853782464838000,4.549837890625,0.09612274169921875,0.05734658241271973,0.03469875454902649
1697853782474656000,4.559656005859375,0.08062171936035156,0.05330824851989746,0.022387415170669556
1697853782484835000,4.5698349609375,0.0639028549194336,0.04584193229675293,0.016219019889831543
1697853782494714000,4.579714111328125,0.06150627136230469,0.03029048442840576,0.003041476011276245
1697853782504715000,4.589715087890625,0.07584190368652344,0.01731550693511963,0.005452349781990051
1697853782514714000,4.599714111328125,0.03871631622314453,-0.0017387866973876953,0.008967086672782898
1697853782524673000,4.609673095703125,0.04469585418701172,0.01866888999938965,-0.02081245183944702
1697853782534706000,4.619705810546875,0.05066108703613281,0.006839632987976074,-0.024274051189422607
1697853782544735000,4.62973486328125,0.04463386535644531,-0.012010455131530762,-0.027653589844703674
1697853782554711000,4.6397109375,0.11072540283203125,0.03862428665161133,-0.14506371319293976
1697853782564706000,4.6497060546875,0.121429443359375,0.17811715602874756,-0.22210611402988434
1697853782574678000,4.659677978515625,-0.23527145385742188,0.13719379901885986,0.213664248585701
1697853782584711000,4.6697109375,0.04012870788574219,-0.09669768810272217,0.17880579829216003
1697853782594618000,4.6796181640625,0.11192607879638672,-0.1276853084564209,-0.22132672369480133
1697853782604609000,4.689609130859375,-0.29268932342529297,-0.21870708465576172,0.1951214075088501
1697853782614621000,4.699620849609375,0.32859134674072266,-0.04391515254974365,0.15630626678466797
1697853782624590000,4.709590087890625,0.07233333587646484,-0.032648444175720215,0.10956358909606934
1697853782634615000,4.719614990234375,0.23152637481689453,-0.05046737194061279,0.05202767252922058
1697853782644607000,4.72960693359375,0.16326236724853516,0.022742390632629395,0.19094789028167725
1697853782654623000,4.739623046875,0.1558380126953125,-0.04639148712158203,0.022892862558364868
1697853782664611000,4.749611083984375,0.022711753845214844,-0.07218801975250244,-0.029981955885887146
1697853782674597000,4.75959716796875,0.04152107238769531,-0.04894065856933594,0.10409431904554367
1697853782684612000,4.769612060546875,-0.09405899047851562,-0.10305905342102051,-0.03966648876667023
1697853782694615000,4.779614990234375,0.009838104248046875,-0.05884230136871338,-0.11867858469486237
1697853782704661000,4.789660888671875,0.043295860290527344,-0.024757862091064453,-0.05286172032356262
1697853782714690000,4.79968994140625,0.037299156188964844,0.0028530359268188477,-0.010936364531517029
1697853782724587000,4.8095869140625,0.06852245330810547,0.043021440505981445,-0.04614494740962982
1697853782734623000,4.819623046875,0.0698251724243164,0.055560946464538574,-0.025439083576202393
1697853782744709000,4.829709228515625,0.04968452453613281,0.05563473701477051,-0.06698545813560486
1697853782754625000,4.839625,0.06772041320800781,0.051480650901794434,0.01771499216556549
1697853782764612000,4.849612060546875,0.04623603820800781,0.029329776763916016,0.06307660043239594
1697853782774619000,4.859618896484375,-0.004004478454589844,0.021863579750061035,0.01972678303718567
1697853782784611000,4.869611083984375,0.014062881469726562,0.05345320701599121,0.0004567652940750122
1697853782794629000,4.879629150390625,0.030958175659179688,0.060941219329833984,0.0003436952829360962
1697853782804753000,4.8897529296875,0.04789161682128906,0.07286012172698975,0.029443353414535522
1697853782814776000,4.899776123046875,0.10434627532958984,0.0822364091873169,0.04625406861305237
1697853782824678000,4.909677978515625,0.09372806549072266,0.0763171911239624,0.04058569669723511
1697853782834634000,4.919634033203125,0.07578468322753906,0.03043234348297119,0.08275371789932251
1697853782844705000,4.929705078125,0.054121971130371094,-0.0015066862106323242,0.08627811074256897
1697853782854839000,4.939839111328125,0.02283954620361328,-0.03894531726837158,0.050482481718063354
1697853782864614000,4.94961376953125,0.015497207641601562,-0.04640543460845947,0.04015515744686127
1697853782874589000,4.9595888671875,0.01770496368408203,-0.04531741142272949,0.045351266860961914
1697853782885189000,4.970189208984375,0.06182289123535156,-0.0359417200088501,0.04682067036628723
1697853782894621000,4.979620849609375,0.0928659439086914,-0.010371088981628418,0.04731367528438568
1697853782904595000,4.989594970703125,0.0701284408569336,0.007539272308349609,-0.005351439118385315
1697853782914717000,4.999717041015625,0.040215492248535156,0.0014493465423583984,-0.00898541510105133
1697853782924629000,5.00962890625,0.05938720703125,0.01092374324798584,-0.010087892413139343
1697853782934715000,5.01971484375,0.05339527130126953,-0.011735916137695312,-0.026511147618293762
1697853782944612000,5.029612060546875,0.05574226379394531,-0.020963191986083984,-0.027422308921813965
1697853782954631000,5.039630859375,0.04492759704589844,-0.024247169494628906,-0.025910839438438416
1697853782964671000,5.0496708984375,0.08315467834472656,-0.02603447437286377,-0.039662182331085205
1697853782974623000,5.059623046875,0.03407764434814453,0.006292104721069336,-0.02983596920967102
1697853782984724000,5.069723876953125,0.036461830139160156,0.009934067726135254,0.015521422028541565
1697853782994629000,5.079629150390625,0.0017442703247070312,0.008622527122497559,0.05414627492427826
1697853783004714000,5.0897138671875,0.0136871337890625,-0.0008463859558105469,0.04406397044658661
1697853783015054000,5.10005419921875,0.020877838134765625,0.013412952423095703,0.038886815309524536
1697853783024951000,5.109950927734375,0.048407554626464844,0.007441401481628418,0.011320441961288452
1697853783034823000,5.119822998046875,0.031655311584472656,0.0133819580078125,-0.0030875205993652344
1697853783044687000,5.12968701171875,0.07476520538330078,0.013280034065246582,-0.006711944937705994
1697853783054757000,5.139757080078125,0.06160449981689453,0.004856586456298828,0.0004961788654327393
1697853783064848000,5.149847900390625,0.07956695556640625,0.02037370204925537,0.0004534423351287842
1697853783074648000,5.15964794921875,0.026691436767578125,-0.06570839881896973,0.0003961920738220215
1697853783084675000,5.169675048828125,0.08166217803955078,0.15513503551483154,-0.07629755139350891
1697853783094633000,5.179633056640625,0.10132408142089844,-0.10046792030334473,0.047520712018013
1697853783104587000,5.1895869140625,0.10372638702392578,0.03235971927642822,-0.0027577728033065796
1697853783114744000,5.199744140625,0.04499626159667969,-0.01753973960876465,0.04326814413070679
1697853783124710000,5.2097099609375,0.04139137268066406,-0.0019085407257080078,0.02045491337776184
1697853783134790000,5.219789794921875,0.016199111938476562,-0.008846640586853027,0.052039191126823425
1697853783144770000,5.22977001953125,0.07359600067138672,-0.01927173137664795,0.03241468966007233
1697853783154841000,5.239841064453125,0.05683326721191406,-0.015673398971557617,-0.002383798360824585
1697853783164861000,5.24986083984375,0.02689838409423828,-0.012041449546813965,0.009500056505203247
1697853783176041000,5.261041015625,0.03045177459716797,-0.013035774230957031,0.028423622250556946
1697853783184923000,5.2699228515625,0.048409461975097656,-0.0058820247650146484,0.01630859076976776
1697853783194716000,5.2797158203125,0.0125274658203125,0.02024555206298828,0.009011909365653992
1697853783204692000,5.28969189453125,0.03150653839111328,-0.009964346885681152,-0.01999405026435852
1697853783214644000,5.29964404296875,0.08777046203613281,0.003203749656677246,-0.0008404403924942017
1697853783224647000,5.30964697265625,0.09495258331298828,-0.02313244342803955,0.06739431619644165
1697853783234751000,5.3197509765625,0.06746578216552734,0.008905649185180664,-0.012716114521026611
1697853783244636000,5.329635986328125,0.0722503662109375,0.010108351707458496,0.019485875964164734
1697853783254665000,5.3396650390625,0.0854339599609375,0.03276669979095459,0.009943082928657532
1697853783264711000,5.3497109375,0.025585174560546875,0.014718413352966309,0.0323185920715332
1697853783274734000,5.359734130859375,-0.01511383056640625,0.0062847137451171875,0.027272731065750122
1697853783284751000,5.369751220703125,0.00046253204345703125,0.02292490005493164,0.02230776846408844
1697853783294736000,5.37973583984375,0.03171539306640625,0.06276047229766846,0.018401771783828735
1697853783304710000,5.3897099609375,0.054648399353027344,0.07589757442474365,0.0075188130140304565
1697853783314817000,5.399817138671875,0.05477333068847656,0.05480217933654785,-0.02677653729915619
1697853783324947000,5.409947021484375,0.044096946716308594,0.037497520446777344,-0.04053257405757904
1697853783334736000,5.41973583984375,0.03094768524169922,0.008682847023010254,-0.03903093934059143
1697853783344741000,5.4297412109375,0.03213691711425781,-0.0044318437576293945,-0.015077486634254456
1697853783354988000,5.439988037109375,0.024953842163085938,0.009958744049072266,-0.02806270122528076
1697853783364677000,5.449677001953125,0.03219127655029297,0.04794204235076904,-0.012333080172538757
1697853783374799000,5.459799072265625,0.03843402862548828,0.08576500415802002,0.003085300326347351
1697853783384797000,5.469796875,0.060408592224121094,0.11174190044403076,0.0005746930837631226
1697853783394728000,5.47972802734375,0.08865833282470703,0.14544677734375,-0.0030813515186309814
1697853783404680000,5.489679931640625,0.09552574157714844,0.1613224744796753,0.0026077479124069214
1697853783414803000,5.499802978515625,0.07322406768798828,0.11526274681091309,0.02792315185070038
1697853783424710000,5.5097099609375,0.05779457092285156,0.06522274017333984,0.03784753382205963
1697853783434722000,5.51972216796875,-0.009255409240722656,0.0017467737197875977,0.05140121281147003
1697853783444832000,5.52983203125,0.02287769317626953,-0.042758822441101074,0.0618196576833725
1697853783454821000,5.539821044921875,0.05454254150390625,-0.0833580493927002,0.09039027988910675
1697853783465741000,5.550740966796875,-0.16235065460205078,-0.09281718730926514,0.028788909316062927
1697853783474939000,5.55993896484375,0.21232891082763672,-0.04605269432067871,0.029960989952087402
1697853783485182000,5.570181884765625,0.23384666442871094,-0.16078269481658936,0.09936901181936264
1697853783495095000,5.580094970703125,0.24702167510986328,-0.20512056350708008,0.017931848764419556
1697853783504825000,5.5898251953125,0.1405172348022461,-0.3274405002593994,0.03255254030227661
1697853783515065000,5.600065185546875,0.14297866821289062,-0.3673440217971802,-0.0007729530334472656
1697853783524957000,5.60995703125,0.10593795776367188,-0.3537517786026001,-0.03315582871437073
1697853783535049000,5.620049072265625,0.0853109359741211,-0.30075669288635254,-0.016947343945503235
1697853783545083000,5.630082763671875,0.04683876037597656,-0.27444159984588623,-0.06007380783557892
1697853783555116000,5.640115966796875,0.09592056274414062,-0.2124772071838379,-0.09763921797275543
1697853783565044000,5.6500439453125,0.23135662078857422,-0.2669171094894409,-0.048295944929122925
1697853783574945000,5.659945068359375,-0.25463294982910156,-0.17497014999389648,-0.12491881847381592
1697853783585060000,5.67006005859375,-0.24985313415527344,-0.12582111358642578,-0.0015747100114822388
1697853783594989000,5.679989013671875,-0.2558565139770508,0.040702223777770996,-0.003926634788513184
1697853783605087000,5.6900869140625,-0.17090702056884766,0.29000771045684814,-0.021900057792663574
1697853783615047000,5.700046875,-0.08237743377685547,0.46277010440826416,-0.02682022750377655
1697853783624795000,5.709794921875,0.05163288116455078,0.6044638156890869,-0.0018022358417510986
1697853783634823000,5.719822998046875,0.14016056060791016,0.6994222402572632,0.03396543860435486
1697853783644832000,5.72983203125,0.2622184753417969,0.7595840692520142,0.05182166397571564
1697853783654823000,5.739822998046875,0.15324974060058594,0.7549885511398315,0.019278377294540405
1697853783664964000,5.749964111328125,0.1316366195678711,0.597482442855835,0.023834675550460815
1697853783674922000,5.759921875,0.026241302490234375,0.43140387535095215,0.06672386825084686
1697853783684770000,5.76977001953125,0.09084129333496094,0.33708930015563965,0.13829517364501953
1697853783694755000,5.779755126953125,0.056082725524902344,0.2475597858428955,0.1871446669101715
1697853783704838000,5.789837890625,0.0632333755493164,0.21064400672912598,0.07204988598823547
1697853783714952000,5.799951904296875,0.041665077209472656,0.045589447021484375,0.0445878803730011
1697853783724968000,5.809968017578125,-0.019353866577148438,-0.06475579738616943,0.027887478470802307
1697853783735013000,5.82001318359375,0.04893684387207031,-0.21233749389648438,0.003038927912712097
1697853783744782000,5.829781982421875,-0.009613037109375,-0.35072624683380127,0.015097841620445251
1697853783754726000,5.839725830078125,0.010848045349121094,-0.4627962112426758,0.013966456055641174
1697853783764728000,5.84972802734375,0.03370380401611328,-0.5269873738288879,-0.0697643905878067
1697853783774966000,5.859966064453125,0.09724712371826172,-0.452221155166626,-0.015844270586967468
1697853783784747000,5.8697470703125,0.3152046203613281,-0.36537373065948486,-0.040757521986961365
1697853783794938000,5.879938232421875,0.03276538848876953,-0.381435751914978,-0.01667208969593048
1697853783805129000,5.89012890625,0.00406646728515625,-0.2499309778213501,0.003968536853790283
1697853783814793000,5.89979296875,-0.16355609893798828,-0.1323845386505127,0.023369327187538147
1697853783824661000,5.909660888671875,-0.14928627014160156,0.29444074630737305,0.08444514870643616
1697853783834865000,5.919864990234375,-0.13624858856201172,0.4820840358734131,0.05815871059894562
1697853783847247000,5.9322470703125,-0.019063949584960938,0.6074858903884888,0.05102631449699402
1697853783860125000,5.945125,0.13874149322509766,0.7502226829528809,0.05129329860210419
1697853783874766000,5.95976611328125,0.2081289291381836,0.684677243232727,0.01055985689163208
1697853783884623000,5.969623046875,0.23205852508544922,0.5279346704483032,-0.06971196830272675
1697853783894726000,5.979725830078125,0.20932674407958984,0.3578444719314575,-0.04345241189002991
1697853783904743000,5.989742919921875,0.2165374755859375,0.21397387981414795,0.025793224573135376
1697853783914706000,5.999705810546875,0.11482715606689453,0.1011122465133667,-0.010363057255744934
1697853783924773000,6.009773193359375,0.03943920135498047,-0.01762223243713379,-0.03807738423347473
1697853783934772000,6.01977197265625,-0.06947803497314453,-0.09798157215118408,-0.08009093999862671
1697853783944832000,6.02983203125,-0.14728450775146484,-0.16625511646270752,-0.058600977063179016
1697853783954806000,6.039805908203125,-0.16285228729248047,-0.19735991954803467,0.026324450969696045
1697853783964720000,6.04972021484375,-0.13532543182373047,-0.1954578161239624,0.04926697909832001
1697853783974824000,6.059823974609375,-0.10289955139160156,-0.18444907665252686,0.012780174612998962
1697853783984722000,6.069721923828125,-0.017607688903808594,-0.1497591733932495,0.036315470933914185
1697853783994717000,6.079717041015625,0.05725574493408203,-0.08891475200653076,0.0753069519996643
1697853784004846000,6.08984619140625,0.1262655258178711,-0.037726759910583496,0.12968042492866516
1697853784014710000,6.0997099609375,0.1513662338256836,0.018390893936157227,0.10054872930049896
1697853784024910000,6.10991015625,0.14308929443359375,0.06552040576934814,0.029617145657539368
1697853784034730000,6.11972998046875,0.1541118621826172,0.107962965965271,0.03836230933666229
1697853784044785000,6.129784912109375,0.1272430419921875,0.15214478969573975,0.04945383965969086
1697853784054724000,6.13972412109375,0.10912036895751953,0.181868314743042,0.04020853340625763
1697853784064733000,6.14973291015625,0.09034538269042969,0.2094818353652954,-0.011892065405845642
1697853784075491000,6.160490966796875,0.04964256286621094,0.2236955165863037,-0.048981472849845886
1697853784084803000,6.169802978515625,0.015709877014160156,0.2085421085357666,-0.05726270377635956
1697853784094982000,6.17998193359375,-0.04375457763671875,0.17780888080596924,-0.023609712719917297
1697853784104873000,6.189873046875,-0.09320259094238281,0.12456381320953369,-0.022710099816322327
1697853784114697000,6.199697021484375,-0.09996318817138672,0.07760536670684814,-0.03024996817111969
1697853784124752000,6.209751953125,-0.08896350860595703,0.03681528568267822,-0.061182573437690735
1697853784134685000,6.219684814453125,0.0020475387573242188,0.006728172302246094,-0.032146111130714417
1697853784144641000,6.22964111328125,0.06429672241210938,-0.004045009613037109,-0.003392636775970459
1697853784154684000,6.239683837890625,0.1432809829711914,0.0021088123321533203,-0.00932227075099945
1697853784164809000,6.24980908203125,0.1576089859008789,0.004733920097351074,0.0061654746532440186
1697853784174683000,6.259682861328125,0.13958358764648438,-0.006843447685241699,0.03201039135456085
1697853784184675000,6.269675048828125,0.12279415130615234,0.02080512046813965,0.0398644357919693
1697853784194802000,6.279802001953125,0.07493209838867188,0.03374063968658447,0.04044683277606964
1697853784204758000,6.289758056640625,0.021175384521484375,0.055704355239868164,0.012664690613746643
1697853784214967000,6.299967041015625,-0.0012912750244140625,0.08017551898956299,0.008815109729766846
1697853784224772000,6.309772216796875,0.027693748474121094,0.08318936824798584,0.022511035203933716
1697853784234780000,6.31977978515625,0.026795387268066406,0.0821458101272583,0.06239399313926697
1697853784244795000,6.329794921875,0.04712200164794922,0.01275777816772461,0.05083341896533966
1697853784254783000,6.339782958984375,0.05664825439453125,-0.007300734519958496,0.030168235301971436
1697853784264793000,6.34979296875,0.08645057678222656,-0.02215421199798584,0.04496549069881439
1697853784274846000,6.359845947265625,0.09956073760986328,-0.019369006156921387,0.003094315528869629
1697853784284786000,6.369785888671875,0.05756950378417969,-0.033023953437805176,-0.04162435233592987
1697853784294797000,6.379797119140625,0.03115081787109375,-0.03477656841278076,-0.03975139558315277
1697853784304777000,6.38977685546875,0.011960983276367188,-0.024869799613952637,-0.0427059680223465
1697853784314794000,6.3997939453125,0.010775566101074219,-0.0057364702224731445,-0.03867310285568237
1697853784324836000,6.409836181640625,0.022780418395996094,0.008431077003479004,-0.02536006271839142
1697853784334803000,6.419802978515625,0.02280426025390625,0.01427006721496582,-0.013320192694664001
1697853784344811000,6.42981103515625,0.025236129760742188,0.030780911445617676,-0.004900306463241577
1697853784354795000,6.439794921875,0.051619529724121094,0.036440253257751465,0.01890811324119568
1697853784364796000,6.4497958984375,0.057639122009277344,0.03379964828491211,0.013951659202575684
1697853784374807000,6.45980712890625,0.07445335388183594,0.03816640377044678,0.030275776982307434
1697853784384822000,6.469822021484375,0.08051586151123047,0.05195343494415283,0.03451979160308838
1697853784394804000,6.479803955078125,0.08538246154785156,0.05375516414642334,0.03398282825946808
1697853784404776000,6.48977587890625,0.04958152770996094,0.06008446216583252,0.036744505167007446
1697853784414799000,6.499799072265625,0.042530059814453125,0.061594367027282715,0.010187149047851562
1697853784424825000,6.5098251953125,0.014017105102539062,0.07333040237426758,-0.0006278008222579956
1697853784434804000,6.519803955078125,0.010677337646484375,0.07768487930297852,-0.007684305310249329
1697853784444804000,6.52980419921875,0.003902435302734375,0.09662997722625732,-0.016835153102874756
1697853784454806000,6.539805908203125,0.0030670166015625,0.08841073513031006,-0.032678619027137756
1697853784465044000,6.5500439453125,0.008105278015136719,0.07132411003112793,-0.034342095255851746
1697853784474809000,6.55980908203125,0.03214263916015625,0.05398213863372803,-0.019689664244651794
1697853784484843000,6.569843017578125,0.032187461853027344,0.044112324714660645,-0.004142507910728455
1697853784494779000,6.57977880859375,0.06930828094482422,0.0380324125289917,0.012449696660041809
1697853784504781000,6.589781005859375,0.06932449340820312,0.03790175914764404,0.02062566578388214
1697853784514762000,6.599761962890625,0.0837087631225586,0.037738919258117676,0.02155381441116333
1697853784525043000,6.61004296875,0.08369255065917969,0.021078944206237793,0.013132929801940918
1697853784534743000,6.619742919921875,0.07770061492919922,0.011519432067871094,0.023696735501289368
1697853784544794000,6.629794189453125,0.06810283660888672,-0.007506251335144043,0.011678382754325867
1697853784554755000,6.639755126953125,0.059673309326171875,-0.016802430152893066,0.025737881660461426
1697853784564790000,6.6497900390625,0.04884147644042969,-0.030795812606811523,0.0017508715391159058
1697853784574766000,6.65976611328125,0.024829864501953125,-0.033957600593566895,0.011164292693138123
1697853784584810000,6.66981005859375,0.04989337921142578,-0.02393805980682373,0.025183245539665222
1697853784594783000,6.679782958984375,0.034244537353515625,-0.036519408226013184,-0.011770069599151611
1697853784604792000,6.6897919921875,0.05570030212402344,-0.0323566198348999,0.014386877417564392
1697853784614794000,6.6997939453125,0.073577880859375,-0.03065013885498047,0.004751577973365784
1697853784624808000,6.709807861328125,0.05672454833984375,-0.03721475601196289,-0.003586515784263611
1697853784634793000,6.71979296875,0.0686807632446289,-0.010809898376464844,0.01899626851081848
1697853784644808000,6.729807861328125,0.09844493865966797,-0.04330599308013916,0.021060913801193237
1697853784654793000,6.73979296875,0.045787811279296875,0.0020569562911987305,0.023252859711647034
1697853784671305000,6.756304931640625,0.03500938415527344,-0.006287097930908203,0.0053185224533081055
1697853784684702000,6.769701904296875,0.04349231719970703,0.04575395584106445,-0.008775204420089722
1697853784694634000,6.779634033203125,0.04950237274169922,0.020479679107666016,-0.022908180952072144
1697853784704813000,6.78981298828125,0.048343658447265625,0.029833555221557617,-0.01790650188922882
1697853784714720000,6.799719970703125,0.04844379425048828,0.0519794225692749,-0.019971221685409546
1697853784724665000,6.8096650390625,0.03654289245605469,0.041982293128967285,-0.020857244729995728
1697853784734660000,6.81966015625,0.04736328125,0.04289424419403076,-0.00517842173576355
1697853784744754000,6.82975390625,0.03786182403564453,0.046024203300476074,-0.010966360569000244
1697853784754643000,6.839642822265625,0.03194236755371094,0.043221235275268555,-0.009604498744010925
1697853784764588000,6.849588134765625,0.030867576599121094,0.05560648441314697,-0.00709126889705658
1697853784774634000,6.859634033203125,0.021346092224121094,0.039679527282714844,0.0060318708419799805
1697853784784734000,6.86973388671875,0.039318084716796875,0.026410222053527832,0.0036368221044540405
1697853784794651000,6.87965087890625,0.02975749969482422,0.027537107467651367,0.0038518905639648438
1697853784804854000,6.88985400390625,0.029776573181152344,0.02023148536682129,0.02541610598564148
1697853784814873000,6.899873046875,0.02977466583251953,0.011863112449645996,0.02900630235671997
1697853784824678000,6.909677978515625,0.054915428161621094,0.016655445098876953,0.02793145179748535
1697853784834594000,6.919593994140625,0.07045650482177734,0.009615778923034668,0.03157748281955719
1697853784845226000,6.93022607421875,0.0955820083618164,0.00019085407257080078,-0.013479068875312805
1697853784854908000,6.939907958984375,0.06328487396240234,0.027564287185668945,0.0296192467212677
1697853784864635000,6.949634765625,0.07166671752929688,0.0048329830169677734,-0.00011533498764038086
1697853784874603000,6.95960302734375,0.030930519104003906,-0.010496735572814941,0.01908867061138153
1697853784884756000,6.969755859375,0.026117324829101562,-0.005525946617126465,0.016848772764205933
1697853784894741000,6.979740966796875,0.030872344970703125,-0.010083913803100586,0.01931111514568329
1697853784904873000,6.989873046875,0.056011199951171875,0.007888555526733398,0.014634087681770325
1697853784914687000,6.99968701171875,0.07276439666748047,0.017506718635559082,0.01700751483440399
1697853784924951000,7.009950927734375,0.06198596954345703,0.009143590927124023,0.0025573670864105225
1697853784934947000,7.019947021484375,0.04644012451171875,0.026980280876159668,-0.017828866839408875
1697853784944774000,7.02977392578125,0.0428619384765625,0.02807474136352539,-0.00122910737991333
1697853784954954000,7.0399541015625,0.045273780822753906,0.024348855018615723,-0.008533582091331482
1697853784965045000,7.050044921875,0.03212261199951172,0.027806520462036133,-0.003894701600074768
1697853784974758000,7.0597578125,0.05368995666503906,0.027688145637512207,-0.01823212206363678
1697853784985057000,7.07005712890625,0.06806278228759766,0.030040979385375977,-0.009795889258384705
1697853784994741000,7.079740966796875,0.06806564331054688,0.030016660690307617,-0.0038586556911468506
1697853785005216000,7.090216064453125,0.057281494140625,0.02409231662750244,-0.003908082842826843
1697853785015047000,7.100046875,0.03693866729736328,0.013272762298583984,-0.0002512037754058838
1697853785024761000,7.109760986328125,0.03334999084472656,0.012067675590515137,0.01175728440284729
1697853785034961000,7.1199609375,0.02855396270751953,0.00853431224822998,0.009409010410308838
1697853785045005000,7.130005126953125,0.04889202117919922,0.008607029914855957,0.008179068565368652
1697853785055082000,7.14008203125,0.032103538513183594,0.01713109016418457,0.007869094610214233
1697853785065239000,7.150239013671875,0.04524993896484375,-0.0031054019927978516,0.0076825618743896484
1697853785074758000,7.1597578125,-0.056487083435058594,0.013540863990783691,0.0040400028228759766
1697853785085061000,7.17006103515625,0.12424945831298828,0.008930325508117676,-0.0162823349237442
1697853785095007000,7.180007080078125,0.08475017547607422,0.018459439277648926,-0.006741955876350403
1697853785104731000,7.18973095703125,0.059615135192871094,0.02440035343170166,-0.002094671130180359
1697853785114823000,7.199822998046875,0.0763864517211914,0.0314936637878418,-0.004588469862937927
1697853785124677000,7.209677001953125,0.06084632873535156,0.03373563289642334,-0.005804270505905151
1697853785134672000,7.219671875,0.06207084655761719,0.035936951637268066,0.00962609052658081
1697853785144670000,7.229669921875,0.04532814025878906,0.021442174911499023,0.014273583889007568
1697853785154714000,7.239714111328125,0.051323890686035156,0.0153733491897583,0.016528964042663574
1697853785164727000,7.24972705078125,0.03934669494628906,0.005810856819152832,0.021127834916114807
1697853785174699000,7.259698974609375,0.04291343688964844,0.005945682525634766,0.023311138153076172
1697853785184926000,7.269926025390625,0.04648303985595703,0.010863184928894043,-0.0018696039915084839
1697853785194858000,7.27985791015625,0.042881011962890625,0.004951357841491699,-0.010232716798782349
1697853785204857000,7.289857177734375,0.030898094177246094,0.012225151062011719,-0.020917296409606934
1697853785215042000,7.3000419921875,0.062027931213378906,0.02413809299468994,-0.012716159224510193
1697853785224814000,7.30981396484375,0.033303260803222656,0.020490646362304688,-0.009287282824516296
1697853785235037000,7.320036865234375,0.062043190002441406,0.019170403480529785,-0.007333308458328247
1697853785244730000,7.329730224609375,0.05366230010986328,0.022667884826660156,-0.0020524412393569946
1697853785254750000,7.33975,0.04050159454345703,0.020089268684387207,0.008957356214523315
1697853785264971000,7.349970947265625,0.04290485382080078,0.016336917877197266,0.0201520174741745
1697853785274747000,7.359746826171875,0.0441131591796875,0.014992952346801758,0.013621300458908081
1697853785285100000,7.37010009765625,0.03573417663574219,0.016149163246154785,0.014588385820388794
1697853785295128000,7.380128173828125,0.028542518615722656,0.00784456729888916,0.005097061395645142
1697853785305037000,7.390037109375,0.048888206481933594,0.007919907569885254,0.0030287355184555054
1697853785314813000,7.39981298828125,0.0692291259765625,0.014037251472473145,0.002324134111404419
1697853785324757000,7.409757080078125,0.08119010925292969,0.005755066871643066,0.007345318794250488
1697853785335073000,7.420072998046875,0.07161140441894531,0.0057708024978637695,-0.007001623511314392
1697853785345112000,7.430112060546875,0.053653717041015625,0.0009424686431884766,0.0034219026565551758
1697853785354968000,7.439968017578125,-0.05047893524169922,0.012742996215820312,0.013654321432113647
1697853785365055000,7.450054931640625,0.17336368560791016,0.016657471656799316,-0.03138476610183716
1697853785374750000,7.45975,-0.014551162719726562,0.026028990745544434,0.010457560420036316
1697853785385069000,7.470069091796875,0.007071495056152344,0.04588913917541504,0.0032470226287841797
1697853785395065000,7.480065185546875,0.03105449676513672,0.038411855697631836,0.018619582056999207
1697853785405063000,7.49006298828125,0.05021858215332031,0.029972314834594727,-0.005270421504974365
1697853785415114000,7.500114013671875,0.057412147521972656,0.029899120330810547,0.010235369205474854
1697853785424779000,7.509779052734375,0.059805870056152344,0.015526652336120605,0.009019017219543457
1697853785434849000,7.51984912109375,0.05620765686035156,0.01793968677520752,0.017195656895637512
1697853785445051000,7.53005078125,0.057407379150390625,0.01911759376525879,0.007563531398773193
1697853785456360000,7.54135986328125,0.058602333068847656,0.01195061206817627,0.00040693581104278564
1697853785464713000,7.549712890625,0.058597564697265625,-0.0011821985244750977,-0.00316406786441803
1697853785474716000,7.5597158203125,0.04063129425048828,-0.0035021305084228516,0.0005119293928146362
1697853785484847000,7.56984716796875,0.047801971435546875,0.007343173027038574,0.010062247514724731
1697853785494959000,7.579958984375,0.033425331115722656,0.003829360008239746,0.012478411197662354
1697853785504709000,7.589709228515625,0.03702354431152344,0.003789544105529785,0.01251918077468872
1697853785514713000,7.599713134765625,0.04062080383300781,0.008528351783752441,0.010057017207145691
1697853785524771000,7.60977099609375,0.032240867614746094,0.014503002166748047,0.005209699273109436
1697853785534999000,7.6199990234375,0.043033599853515625,0.019190073013305664,-0.011484801769256592
1697853785544716000,7.629716064453125,0.035866737365722656,0.026268959045410156,-0.00545559823513031
1697853785554707000,7.63970703125,0.04185771942138672,0.019061565399169922,-0.0077431946992874146
1697853785564724000,7.649723876953125,0.049057960510253906,0.029720067977905273,-0.001795351505279541
1697853785574787000,7.659787109375,0.05145263671875,0.028504014015197754,0.01485869288444519
1697853785584944000,7.669944091796875,0.06223011016845703,0.023688912391662598,0.01957947015762329
1697853785594783000,7.679782958984375,0.07059478759765625,0.023781418800354004,0.008846476674079895
1697853785604668000,7.68966796875,0.06819820404052734,0.013007879257202148,0.018286630511283875
1697853785614776000,7.699776123046875,0.0670003890991211,0.003445267677307129,0.0015441328287124634
1697853785624631000,7.709631103515625,0.057412147521972656,0.002321004867553711,-0.005613535642623901
1697853785634694000,7.71969384765625,0.04903125762939453,0.005930185317993164,-0.011559247970581055
1697853785644735000,7.72973486328125,0.04304313659667969,0.0047571659088134766,-0.018692582845687866
1697853785654705000,7.739704833984375,0.027480125427246094,0.005962967872619629,-0.01263640820980072
1697853785664785000,7.749784912109375,0.04065513610839844,0.013098835945129395,-0.0007094591856002808
1697853785674752000,7.759751953125,0.03587818145751953,0.017804265022277832,-0.000743180513381958
1697853785684809000,7.76980908203125,0.026317596435546875,0.02485978603363037,0.012292906641960144
1697853785694783000,7.779782958984375,0.02512645721435547,0.016422271728515625,0.016944125294685364
1697853785704772000,7.789772216796875,0.04668426513671875,0.013937115669250488,0.021532684564590454
1697853785714756000,7.799756103515625,0.04788970947265625,0.01986217498779297,0.016653254628181458
1697853785724743000,7.809742919921875,0.06105327606201172,0.021077275276184082,0.009442687034606934
1697853785734668000,7.81966796875,0.07421207427978516,0.017560958862304688,-0.00005650520324707031
1697853785744814000,7.82981396484375,0.06583786010742188,0.01631927490234375,0.0034849196672439575
1697853785754662000,7.839661865234375,0.062239646911621094,0.01996135711669922,-0.00010167062282562256
1697853785764651000,7.849651123046875,0.05386638641357422,0.022299528121948242,0.008180305361747742
1697853785774673000,7.8596728515625,0.052681922912597656,0.021019697189331055,-0.005019038915634155
1697853785785281000,7.870281005859375,0.045495033264160156,0.00786745548248291,-0.000254705548286438
1697853785794743000,7.879742919921875,0.039493560791015625,-0.005195975303649902,0.0033321380615234375
1697853785804704000,7.8897041015625,0.044266700744628906,0.015269041061401367,-0.00617612898349762
1697853785814855000,7.89985498046875,0.020320892333984375,0.006901979446411133,0.004546076059341431
1697853785824729000,7.90972900390625,0.050235748291015625,0.009369850158691406,0.004443421959877014
1697853785834684000,7.919683837890625,0.028693199157714844,-0.0002511739730834961,0.006795540452003479
1697853785844917000,7.9299169921875,0.041866302490234375,0.017678141593933105,-0.007537528872489929
1697853785854791000,7.939791015625,0.04785919189453125,0.011649250984191895,0.005646511912345886
1697853785865951000,7.950950927734375,0.03350353240966797,0.011581778526306152,0.008033588528633118
1697853785875060000,7.96006005859375,0.046668052673339844,0.016383051872253418,0.0019965022802352905
1697853785884636000,7.969635986328125,0.053863525390625,0.017508387565612793,0.005646556615829468
1697853785894625000,7.979625,0.06223487854003906,0.015162944793701172,0.01273857057094574
1697853785904672000,7.989672119140625,0.06222820281982422,0.02117788791656494,0.0019088983535766602
1697853785914740000,7.999739990234375,0.05265331268310547,0.025938749313354492,0.008964374661445618
1697853785924740000,8.009739990234374,0.05265617370605469,0.01635420322418213,0.006624966859817505
1697853785934765000,8.01976513671875,0.03231048583984375,0.012717366218566895,0.002990707755088806
1697853785944932000,8.02993212890625,0.027532577514648438,0.021014690399169922,0.012448787689208984
1697853785954682000,8.03968212890625,0.03471183776855469,0.013846278190612793,0.001631617546081543
1697853785964922000,8.049922119140625,0.05504322052001953,0.012778878211975098,-0.0031494349241256714
1697853785974726000,8.059725830078126,0.05623435974121094,0.002047300338745117,-0.01743459701538086
1697853785984916000,8.069916015625,0.046657562255859375,0.008043169975280762,-0.011411219835281372
1697853785994762000,8.079761962890625,0.05622291564941406,0.0021277666091918945,-0.004221394658088684
1697853786005021000,8.09002099609375,0.037059783935546875,-0.0037806034088134766,-0.0017473846673965454
1697853786014806000,8.099805908203125,0.028680801391601562,0.0046117305755615234,0.0055006444454193115
1697853786025073000,8.110072998046874,0.029875755310058594,0.013005256652832031,0.004378363490104675
1697853786035017000,8.120016845703125,0.05262565612792969,0.02133488655090332,0.012593597173690796
1697853786044957000,8.12995703125,0.070587158203125,0.024881482124328613,0.006531700491905212
1697853786054862000,8.139862060546875,0.056212425231933594,0.018939733505249023,-0.0031509995460510254
1697853786064940000,8.14993994140625,0.08853435516357422,0.029726505279541016,-0.0006775707006454468
1697853786074737000,8.15973681640625,0.06339168548583984,0.00819253921508789,-0.0031137019395828247
1697853786084967000,8.169966796875,0.06458759307861328,0.004615664482116699,-0.007885381579399109
1697853786094695000,8.17969482421875,0.040648460388183594,-0.00497746467590332,0.004089236259460449
1697853786104792000,8.1897919921875,0.027486801147460938,0.004556179046630859,0.001720324158668518
1697853786115018000,8.20001806640625,0.04664802551269531,0.006905078887939453,0.000539630651473999
1697853786124900000,8.209900146484374,0.03466606140136719,0.0033861398696899414,0.0029500871896743774
1697853786135056000,8.220055908203125,0.033481597900390625,0.01527106761932373,0.007661253213882446
1697853786144910000,8.22991015625,0.026317596435546875,0.019914865493774414,0.014703065156936646
1697853786154755000,8.239755126953124,0.027540206909179688,0.02931225299835205,0.009857043623924255
1697853786165734000,8.25073388671875,0.02635955810546875,0.020829439163208008,0.014619037508964539
1697853786174900000,8.25989990234375,0.03234672546386719,0.02318739891052246,0.01447586715221405
1697853786184698000,8.269697998046874,0.035956382751464844,0.027854204177856445,0.004888862371444702
1697853786194763000,8.279762939453125,0.05630207061767578,0.02308809757232666,0.00481751561164856
1697853786204684000,8.28968408203125,0.05750751495361328,0.03022158145904541,-0.001153215765953064
1697853786214710000,8.2997099609375,0.06347846984863281,0.021937847137451172,0.007211565971374512
1697853786224850000,8.309849853515624,0.07663726806640625,0.0172196626663208,0.003699883818626404
1697853786235600000,8.320599853515626,0.06822967529296875,-0.002942681312561035,0.003759428858757019
1697853786246238000,8.331238037109374,0.0634012222290039,-0.014629006385803223,-0.015257984399795532
1697853786254684000,8.339683837890625,0.04303169250488281,-0.019297003746032715,-0.005686238408088684
1697853786265152000,8.350152099609375,0.03819751739501953,-0.023798823356628418,0.008607804775238037
1697853786275925000,8.360925048828125,0.030996322631835938,-0.014099359512329102,-0.0009501725435256958
1697853786284658000,8.369657958984375,0.010643959045410156,0.008660435676574707,0.005060747265815735
1697853786294670000,8.379670166015625,0.026230812072753906,0.0288546085357666,-0.002086043357849121
1697853786304701000,8.389700927734374,0.023888587951660156,0.03570151329040527,-0.0044867247343063354
1697853786314742000,8.399741943359375,0.026369094848632812,0.04591667652130127,-0.008037209510803223
1697853786324635000,8.409634765625,0.0407867431640625,0.043187737464904785,-0.004379749298095703
1697853786334682000,8.41968212890625,0.03966712951660156,0.04867815971374512,-0.0031304359436035156
1697853786344667000,8.4296669921875,0.05048179626464844,0.04361104965209961,0.003949210047721863
1697853786354664000,8.439663818359374,0.06961822509765625,0.020959854125976562,0.010981380939483643
1697853786364690000,8.44968994140625,0.07678031921386719,0.004318714141845703,0.01924826204776764
1697853786375021000,8.46002099609375,0.06002235412597656,0.016263127326965332,0.016706183552742004
1697853786384706000,8.4697060546875,0.06240272521972656,-0.0052062273025512695,0.0070398300886154175
1697853786394678000,8.479677978515625,0.03963947296142578,-0.017064809799194336,0.008191049098968506
1697853786404634000,8.489634033203124,0.03481292724609375,-0.021626710891723633,0.01524469256401062
1697853786414698000,8.499697998046875,0.026409149169921875,-0.022676467895507812,0.0056277066469192505
1697853786424699000,8.509698974609375,0.023988723754882812,-0.01172173023223877,-0.005127280950546265
1697853786434649000,8.519649169921875,0.02756500244140625,-0.005638837814331055,-0.013447031378746033
1697853786444642000,8.52964208984375,0.03475761413574219,0.003877401351928711,-0.007453605532646179
1697853786454691000,8.539691162109374,0.06708812713623047,0.008604764938354492,0.0008737891912460327
1697853786464666000,8.549666015625,0.02041149139404297,0.016901016235351562,0.01633402705192566
1697853786475168000,8.56016796875,0.07785987854003906,0.015766620635986328,0.01022695004940033
1697853786484770000,8.56977001953125,0.034755706787109375,0.007358551025390625,0.04670041799545288
1697853786494636000,8.579635986328125,0.0767049789428711,0.030988693237304688,-0.016623035073280334
1697853786505379000,8.590379150390625,0.034827232360839844,0.026068568229675293,-0.010606810450553894
1697853786514616000,8.599615966796875,0.030107498168945312,0.04002785682678223,-0.025913789868354797
1697853786524593000,8.609593017578124,0.012192726135253906,0.03258788585662842,-0.020969077944755554
1697853786534608000,8.61960791015625,0.019433021545410156,0.0441899299621582,-0.004176139831542969
1697853786544598000,8.629597900390625,0.038702964782714844,0.05900108814239502,0.0005958080291748047
1697853786554597000,8.63959716796875,0.04356861114501953,0.05129683017730713,0.007670313119888306
1697853786564585000,8.6495849609375,0.0675344467163086,0.03675663471221924,0.014654949307441711
1697853786574590000,8.65958984375,0.07111835479736328,0.01882302761077881,0.01452435553073883
1697853786584669000,8.6696689453125,0.06270408630371094,-0.013293027877807617,0.0035979151725769043
1697853786594635000,8.679635009765626,0.05787944793701172,-0.015479207038879395,0.017746850848197937
1697853786604704000,8.6897041015625,0.06019878387451172,-0.03175663948059082,0.0009703487157821655
1697853786614620000,8.699619873046874,0.061321258544921875,-0.03128039836883545,0.003328084945678711
1697853786624643000,8.70964306640625,0.033736228942871094,-0.035723090171813965,-0.0014331340789794922
1697853786634751000,8.7197509765625,0.04567527770996094,-0.0139617919921875,-0.016924723982810974
1697853786644660000,8.729659912109375,0.022927284240722656,-0.0031889677047729492,0.0033137649297714233
1697853786654676000,8.739676025390626,0.04327964782714844,0.02194058895111084,-0.0015317797660827637
1697853786664974000,8.74997412109375,0.025351524353027344,0.02414524555206299,-0.006343051791191101
1697853786674729000,8.75972900390625,0.011075973510742188,0.04629182815551758,0.003130510449409485
1697853786684592000,8.769592041015626,0.03751659393310547,0.05514967441558838,0.01480729877948761
1697853786694615000,8.779614990234375,0.04719066619873047,0.05208742618560791,0.016900166869163513
1697853786704579000,8.7895791015625,0.06640052795410156,0.04691052436828613,0.013109073042869568
1697853786714591000,8.799591064453125,0.06759262084960938,0.01939105987548828,0.012985408306121826
1697853786724595000,8.809594970703126,0.06278800964355469,-0.002050638198852539,0.008176922798156738
1697853786734610000,8.81960986328125,0.07952499389648438,-0.010291695594787598,-0.005003497004508972
1697853786744595000,8.829594970703125,0.0926513671875,-0.014806866645812988,-0.0013987571001052856
1697853786754757000,8.839757080078124,0.07583045959472656,-0.022786617279052734,-0.004937708377838135
1697853786764824000,8.849823974609375,0.08295917510986328,-0.02360999584197998,-0.013196200132369995
1697853786774769000,8.859768798828124,0.04218101501464844,-0.031536102294921875,0.01883465051651001
1697853786784751000,8.869751220703124,0.02896404266357422,-0.03243887424468994,0.013831257820129395
1697853786794662000,8.879661865234375,0.02175617218017578,-0.03348720073699951,0.008950978517532349
1697853786804755000,8.8897548828125,0.015752792358398438,-0.023810744285583496,0.016001686453819275
1697853786814605000,8.89960498046875,0.021726608276367188,-0.02253711223602295,-0.00431099534034729
1697853786824716000,8.909716064453125,0.03249931335449219,-0.003385305404663086,-0.0031751543283462524
1697853786834601000,8.91960107421875,0.03729820251464844,0.0013434886932373047,-0.003108888864517212
1697853786845769000,8.93076904296875,0.04327678680419922,0.0025981664657592773,-0.004247903823852539
1697853786854736000,8.93973583984375,0.05405139923095703,0.018159151077270508,-0.0006484240293502808
1697853786864677000,8.949677001953125,0.06004905700683594,0.024066448211669922,-0.00897914171218872
1697853786875042000,8.9600419921875,0.052910804748535156,0.04293477535247803,0.002957969903945923
1697853786884640000,8.969639892578124,0.054168701171875,0.0509260892868042,-0.002999722957611084
1697853786894693000,8.979693115234374,0.05663299560546875,0.05645716190338135,-0.0017233937978744507
1697853786904855000,8.98985498046875,0.05793952941894531,0.05693554878234863,0.008972927927970886
1697853786914683000,8.999682861328125,0.05324268341064453,0.05395495891571045,0.002999141812324524
1697853786924625000,9.009625,0.04974555969238281,0.05453503131866455,0.0005891919136047363
1697853786934613000,9.019613037109375,0.021089553833007812,0.04687857627868652,0.001832515001296997
1697853786944739000,9.029739013671875,-0.020755767822265625,0.032172441482543945,-0.0017213821411132812
1697853786954635000,9.039635009765625,-0.032675743103027344,0.03306543827056885,-0.01711520552635193
1697853786964736000,9.049736083984374,-0.036200523376464844,0.03625643253326416,-0.016895025968551636
1697853786974645000,9.05964501953125,-0.00025463104248046875,0.033660054206848145,-0.004821017384529114
1697853786984623000,9.069623046875,0.06319141387939453,0.03604447841644287,0.0034587979316711426
1697853786994622000,9.0796220703125,0.0967264175415039,0.03710317611694336,0.02353234589099884
1697853787004754000,9.08975390625,0.10749149322509766,0.022719621658325195,0.043319910764694214
1697853787014687000,9.09968701171875,0.07993698120117188,0.006034255027770996,0.040504857897758484
1697853787024739000,9.109739013671875,0.07026958465576172,-0.01740741729736328,0.04581110179424286
1697853787034733000,9.119733154296876,0.06420612335205078,-0.027711987495422363,0.021604806184768677
1697853787044736000,9.129736083984374,0.07009315490722656,-0.039014339447021484,-0.014032840728759766
1697853787054734000,9.139734130859376,0.06384468078613281,-0.05983150005340576,-0.06028001010417938
1697853787064715000,9.149715087890625,0.04555225372314453,-0.070456862449646,-0.08271992206573486
1697853787074744000,9.159744140625,-0.006144523620605469,-0.059105515480041504,-0.08505994081497192
1697853787084620000,9.1696201171875,-0.063690185546875,-0.041622281074523926,-0.07060414552688599
1697853787094628000,9.179628173828124,-0.11756038665771484,-0.022420048713684082,-0.044016510248184204
1697853787104681000,9.189680908203124,-0.07085323333740234,0.014565706253051758,-0.0355570912361145
1697853787114727000,9.199726806640625,0.12328243255615234,0.0744713544845581,-0.0701398104429245
1697853787124600000,9.20960009765625,0.24058914184570312,0.09846949577331543,-0.03182503581047058
1697853787134737000,9.21973681640625,0.31124114990234375,0.1031336784362793,0.04617933928966522
1697853787144722000,9.229721923828125,0.22869586944580078,0.04772746562957764,0.13364984095096588
1697853787154732000,9.23973193359375,0.09088325500488281,0.00471186637878418,0.14291344583034515
1697853787164848000,9.24984814453125,-0.006058692932128906,-0.0014522075653076172,0.0924655944108963
1697853787174817000,9.259817138671876,-0.06952381134033203,-0.002531290054321289,0.04448094964027405
1697853787184814000,9.26981396484375,-0.0911092758178711,0.04080486297607422,0.043241068720817566
1697853787194770000,9.27977001953125,-0.03433990478515625,0.10799932479858398,0.03379453718662262
1697853787204742000,9.289741943359376,0.023471832275390625,0.09616219997406006,-0.0031628012657165527
1697853787214810000,9.29981005859375,0.03560638427734375,0.06883740425109863,-0.020653605461120605
1697853787224788000,9.3097880859375,0.022543907165527344,0.046700119972229004,-0.03908708691596985
1697853787234835000,9.3198349609375,0.08475685119628906,-0.020081639289855957,-0.01738634705543518
1697853787244701000,9.329700927734375,0.04284477233886719,-0.019966840744018555,-0.017187029123306274
1697853787254968000,9.339968017578125,0.03684711456298828,-0.01736581325531006,-0.05213704705238342
1697853787264717000,9.349717041015625,0.04269218444824219,-0.049872756004333496,-0.036995381116867065
1697853787274728000,9.35972802734375,0.068878173828125,-0.04880940914154053,-0.03043024241924286
1697853787284858000,9.369858154296875,0.066436767578125,-0.019775986671447754,-0.004063129425048828
1697853787294846000,9.379845947265625,0.0687551498413086,-0.026462197303771973,0.0007214546203613281
1697853787304863000,9.389863037109375,0.08661365509033203,-0.029461383819580078,0.014775007963180542
1697853787314737000,9.39973681640625,0.07699108123779297,-0.018414616584777832,0.013396888971328735
1697853787325045000,9.410044921875,0.04814720153808594,-0.03808319568634033,0.02256356179714203
1697853787334807000,9.41980712890625,0.04680156707763672,-0.041987061500549316,0.034002408385276794
1697853787344782000,9.429781982421876,0.03595924377441406,-0.027232885360717773,0.034778207540512085
1697853787354926000,9.439926025390625,0.03235912322998047,-0.018828511238098145,0.01899378001689911
1697853787364784000,9.4497841796875,0.03716564178466797,0.004997968673706055,0.014163628220558167
1697853787374816000,9.45981591796875,0.0527191162109375,0.0050563812255859375,-0.0013820230960845947
1697853787385361000,9.47036083984375,0.056311607360839844,0.015830516815185547,-0.004895299673080444
1697853787394791000,9.479791015625,0.05272865295410156,0.021769046783447266,-0.0024885237216949463
1697853787404808000,9.489807861328124,0.06113910675048828,0.038338541984558105,-0.01196366548538208
1697853787414798000,9.499798095703126,0.039669036865234375,0.04504954814910889,-0.020107895135879517
1697853787424827000,9.509826904296874,0.043335914611816406,0.04817605018615723,-0.015139266848564148
1697853787434802000,9.519802001953124,0.039809226989746094,0.039388298988342285,-0.016225188970565796
1697853787444792000,9.5297919921875,0.026660919189453125,0.02727651596069336,0.002846628427505493
1697853787454967000,9.539967041015625,0.011137962341308594,0.03177809715270996,0.01579853892326355
1697853787464814000,9.54981396484375,0.01712322235107422,0.019795775413513184,0.0025093555450439453
1697853787474808000,9.55980810546875,0.021917343139648438,0.014957904815673828,-0.013156935572624207
1697853787485137000,9.570136962890626,0.02312183380126953,0.024481773376464844,-0.003605470061302185
1697853787494791000,9.579791015625,0.037474632263183594,0.005393028259277344,0.016676709055900574
1697853787504962000,9.589962158203125,0.05423164367675781,0.00897824764251709,0.02487526834011078
1697853787514798000,9.599798095703125,0.06618213653564453,0.013856291770935059,0.02694803476333618
1697853787524809000,9.60980908203125,0.07215499877929688,0.004356980323791504,0.008910194039344788
1697853787534775000,9.619775146484375,0.06734561920166016,0.0008889436721801758,0.00047679245471954346
1697853787544858000,9.629858154296874,0.06253814697265625,-0.003780364990234375,0.01115100085735321
1697853787554695000,9.63969482421875,0.05057048797607422,0.004560232162475586,0.02303658425807953
1697853787564859000,9.64985888671875,0.05055046081542969,-0.007324099540710449,0.02990637719631195
1697853787574965000,9.659965087890624,0.03976726531982422,-0.003701925277709961,0.029680266976356506
1697853787584965000,9.669965087890626,0.036177635192871094,-0.0073087215423583984,0.00809924304485321
1697853787594955000,9.679955078125,0.038578033447265625,0.015402078628540039,-0.012261733412742615
1697853787604892000,9.689891845703125,0.03738689422607422,0.018947958946228027,-0.0014686882495880127
1697853787614911000,9.699910888671875,0.04695606231689453,0.015414118766784668,0.0021888911724090576
1697853787624598000,9.709597900390625,0.049378395080566406,0.02961885929107666,-0.01681932806968689
1697853787634667000,9.7196669921875,0.048193931579589844,0.015203356742858887,-0.02378559112548828
1697853787644628000,9.7296279296875,0.05179595947265625,0.017560362815856934,-0.035453617572784424
1697853787654724000,9.73972412109375,0.050606727600097656,0.0055370330810546875,-0.013916626572608948
1697853787664784000,9.749783935546875,0.05300140380859375,0.007930159568786621,-0.0019973814487457275
1697853787674650000,9.759650146484375,0.052994728088378906,0.013953089714050293,0.01112857460975647
1697853787684687000,9.76968701171875,0.057778358459472656,0.015163183212280273,0.020557522773742676
1697853787694767000,9.77976708984375,0.05178356170654297,0.005601167678833008,0.022672578692436218
1697853787704973000,9.78997314453125,0.04340171813964844,0.007983922958374023,0.024816617369651794
1697853787714738000,9.799738037109375,0.039809226989746094,0.009166717529296875,0.01750485599040985
1697853787724713000,9.809712890625,0.041011810302734375,0.004326939582824707,0.014998912811279297
1697853787734960000,9.819960205078125,0.04341411590576172,0.004270315170288086,0.006586790084838867
1697853787744714000,9.8297138671875,0.04222583770751953,0.010194659233093262,0.0053884536027908325
1697853787754747000,9.839746826171876,0.060189247131347656,0.019732117652893066,0.007824435830116272
1697853787765015000,9.85001513671875,0.05302143096923828,0.019643545150756836,0.0006458312273025513
1697853787774877000,9.859876953125,0.06259632110595703,0.011263370513916016,-0.007784157991409302
1697853787784983000,9.869983154296875,0.04222583770751953,0.011382818222045898,-0.005442008376121521
1697853787794973000,9.879972900390625,0.043426513671875,0.010176539421081543,-0.011394336819648743
1697853787804786000,9.889785888671875,0.041029930114746094,0.011372685432434082,-0.009052678942680359
1697853787814761000,9.899760986328126,0.047020912170410156,0.01971423625946045,-0.005498841404914856
1697853787824676000,9.909676025390626,0.045813560485839844,0.006605029106140137,0.0028290152549743652
1697853787834691000,9.919691162109375,0.05897235870361328,0.015041351318359375,-0.005600303411483765
1697853787844661000,9.929660888671876,0.06737136840820312,0.004148721694946289,-0.004385992884635925
1697853787857469000,9.942468994140626,0.038651466369628906,0.0064727067947387695,-0.009165048599243164
1697853787870207500,9.95520751953125,0.04460716247558594,-0.007708072662353516,-0.0008602291345596313
1697853787884892000,9.969891845703126,0.03981781005859375,0.005461335182189941,0.007485494017601013
1697853787895452000,9.980451904296874,0.06016254425048828,0.005480170249938965,0.01693001389503479
1697853787904788000,9.9897880859375,0.03981971740722656,0.01739048957824707,0.01684965193271637
1697853787914629000,9.999629150390625,0.04462146759033203,0.01728963851928711,0.010766014456748962
1697853787924636000,10.009635986328124,0.03985404968261719,0.013551831245422363,0.01067228615283966
1697853787934607000,10.019607177734375,0.038674354553222656,0.019422292709350586,0.004688560962677002
1697853787944611000,10.029611083984374,0.029107093811035156,0.009786009788513184,0.0023117512464523315
1697853787954652000,10.03965185546875,0.042275428771972656,0.008588790893554688,-0.0024595260620117188
1697853787964636000,10.049635986328125,0.03509521484375,0.007392168045043945,-0.0035796761512756348
1697853787974655000,10.059655029296875,0.04347515106201172,0.012179851531982422,0.003610849380493164
1697853787984732000,10.06973193359375,0.054230690002441406,0.009903550148010254,0.000027507543563842773
1697853787994759000,10.079759033203125,0.05781745910644531,0.018306732177734375,0.008379384875297546
1697853788004640000,10.089639892578125,0.05901908874511719,0.025443196296691895,0.01425538957118988
1697853788014612000,10.099612060546875,0.0637979507446289,0.01352846622467041,-0.00376051664352417
1697853788024647000,10.10964697265625,0.06620121002197266,0.008680462837219238,-0.0049403756856918335
1697853788034655000,10.119655029296876,0.05781841278076172,-0.0020627975463867188,0.0010659843683242798
1697853788044715000,10.129715087890625,0.05183601379394531,-0.004477143287658691,-0.004890769720077515
1697853788054632000,10.1396318359375,0.043456077575683594,0.0003114938735961914,-0.0037357062101364136
1697853788064667000,10.1496669921875,0.057808876037597656,0.012343168258666992,0.0033441632986068726
1697853788074745000,10.1597451171875,0.041049957275390625,0.008744597434997559,0.010507375001907349
1697853788084639000,10.169638916015625,0.032675743103027344,0.014680981636047363,0.016361132264137268
1697853788094653000,10.17965283203125,0.03865528106689453,0.013503313064575195,0.017417550086975098
1697853788104645000,10.18964501953125,0.03984260559082031,0.012364983558654785,0.001813545823097229
1697853788114653000,10.19965283203125,0.054207801818847656,0.012364029884338379,-0.0005728006362915039
1697853788124601000,10.20960107421875,0.04821205139160156,0.008832097053527832,0.0029764920473098755
1697853788134667000,10.2196669921875,0.05778980255126953,0.0052422285079956055,-0.008967891335487366
1697853788144633000,10.229633056640624,0.06734848022460938,0.011347770690917969,0.000626102089881897
1697853788154671000,10.239671142578125,0.06015777587890625,0.010208606719970703,-0.0004965066909790039
1697853788164634000,10.249634033203124,0.05656623840332031,0.005419254302978516,-0.0016856491565704346
1697853788174650000,10.259650146484375,0.06254386901855469,0.005477190017700195,-0.010057464241981506
1697853788184635000,10.269634765625,0.06374073028564453,0.005475282669067383,-0.006526321172714233
1697853788194640000,10.279639892578125,0.05056285858154297,0.009127140045166016,-0.0029176324605941772
1697853788204617000,10.289616943359375,0.04099273681640625,0.010264873504638672,-0.003019168972969055
1697853788214778000,10.299778076171876,0.041001319885253906,0.003023982048034668,-0.0006665736436843872
1697853788224846000,10.30984619140625,0.03262138366699219,0.007812738418579102,0.0053358376026153564
1697853788234663000,10.319662841796875,0.03261089324951172,0.006673932075500488,0.0016933530569076538
1697853788244900000,10.329900146484375,0.03860187530517578,0.016215920448303223,-0.0031482726335525513
1697853788254656000,10.339656005859375,0.05776023864746094,0.022156715393066406,0.0015659630298614502
1697853788264762000,10.34976220703125,0.06614398956298828,0.018534183502197266,0.011104598641395569
1697853788274632000,10.3596318359375,0.07571983337402344,0.014948368072509766,0.005137354135513306
1697853788284694000,10.369694091796875,0.05894660949707031,0.02102482318878174,0.005079522728919983
1697853788294682000,10.37968212890625,0.06852149963378906,0.0066661834716796875,0.0026469379663467407
1697853788304607000,10.38960693359375,0.05654716491699219,0.0042885541915893555,0.009822532534599304
1697853788314676000,10.399676025390624,0.05533313751220703,-0.0027860403060913086,-0.008146524429321289
1697853788324607000,10.40960693359375,0.04215526580810547,0.009248614311218262,-0.008135125041007996
1697853788334654000,10.419654052734375,0.048140525817871094,0.002072572708129883,0.0002651512622833252
1697853788344631000,10.429631103515625,0.03258037567138672,0.015228271484375,0.00029255449771881104
1697853788354635000,10.439635009765626,0.03977394104003906,0.02235269546508789,-0.004402250051498413
1697853788364620000,10.4496201171875,0.0326080322265625,0.013859152793884277,0.002750024199485779
1697853788374665000,10.4596650390625,0.03500652313232422,0.01383662223815918,-0.011604845523834229
1697853788384644000,10.46964404296875,0.03981304168701172,0.012526154518127441,-0.007992863655090332
1697853788394626000,10.4796259765625,0.04818439483642578,0.011394500732421875,-0.0031172186136245728
1697853788404653000,10.489653076171875,0.054160118103027344,0.004278421401977539,0.0005035251379013062
1697853788414616000,10.499615966796876,0.050566673278808594,0.013861298561096191,0.0028589963912963867
1697853788424691000,10.50969091796875,0.0565338134765625,0.012775421142578125,0.011211976408958435
1697853788434663000,10.519662841796874,0.06011676788330078,0.014038324356079102,-0.0019353926181793213
1697853788444619000,10.529618896484376,0.05772113800048828,0.016440272331237793,0.0004296600818634033
1697853788454639000,10.53963916015625,0.05411720275878906,0.008126139640808105,0.006316736340522766
1697853788464713000,10.549712890625,0.04335212707519531,0.004481673240661621,-0.00443662703037262
1697853788474621000,10.559620849609376,0.044548988342285156,0.005685925483703613,0.005169764161109924
1697853788484583000,10.5695830078125,0.033766746520996094,0.002161383628845215,0.0004704296588897705
1697853788494640000,10.57964013671875,0.054096221923828125,0.0023087263107299805,-0.011374294757843018
1697853788504611000,10.589611083984375,0.055283546447753906,0.010755777359008789,-0.0005703866481781006
1697853788514744000,10.599744140625,0.04928779602050781,0.010820627212524414,0.00657382607460022
1697853788524764000,10.609763916015625,0.0636444091796875,0.009688854217529297,0.0030623823404312134
1697853788534839000,10.619839111328124,0.04448986053466797,0.0025125741958618164,0.007871508598327637
1697853788544815000,10.629815185546875,0.06123924255371094,0.012152433395385742,0.006685569882392883
1697853788554682000,10.63968212890625,0.03849029541015625,0.016964435577392578,0.0066165924072265625
1697853788564735000,10.64973486328125,0.04326438903808594,0.017063379287719727,-0.005310773849487305
1697853788574972000,10.659971923828126,0.04805183410644531,0.014676570892333984,-0.000551566481590271
1697853788584675000,10.669675048828125,0.05882072448730469,0.01948845386505127,-0.010129913687705994
1697853788594763000,10.679762939453125,0.046840667724609375,0.005187630653381348,-0.004124313592910767
1697853788604997000,10.6899970703125,0.04921531677246094,0.012494683265686035,-0.0029659271240234375
1697853788614813000,10.69981298828125,0.04441642761230469,0.008970379829406738,-0.0017479360103607178
1697853788624745000,10.709744873046875,0.056395530700683594,0.004130005836486816,-0.008910417556762695
1697853788635033000,10.720033203125,0.05040931701660156,0.008924603462219238,0.007869496941566467
1697853788644794000,10.729794189453125,0.04681682586669922,-0.0018433332443237305,-0.002943068742752075
1697853788654765000,10.73976513671875,0.04322528839111328,0.008930444717407227,0.011411696672439575
1697853788664692000,10.74969189453125,0.032482147216796875,0.024261951446533203,0.025556549429893494
1697853788675044000,10.760044189453126,0.06839275360107422,0.009904146194458008,-0.003262355923652649
1697853788685047000,10.770047119140624,0.008562088012695312,0.026499509811401367,0.0003368258476257324
1697853788694869000,10.779868896484375,0.07320404052734375,0.01934993267059326,-0.01390238106250763
1697853788704924000,10.789923828125,0.045665740966796875,0.024178028106689453,-0.009053155779838562
1697853788714816000,10.79981591796875,0.07916545867919922,0.01472628116607666,0.0017413198947906494
1697853788724749000,10.8097490234375,0.04684162139892578,0.008746862411499023,0.005294084548950195
1697853788735188000,10.82018798828125,0.06839656829833984,0.0134812593460083,0.00400426983833313
1697853788745056000,10.830055908203125,0.0504302978515625,-0.004416346549987793,0.009960472583770752
1697853788755116000,10.840115966796875,0.058811187744140625,0.01474463939666748,0.006457462906837463
1697853788765103000,10.85010302734375,0.04681873321533203,-0.007871389389038086,0.0004267394542694092
1697853788775101000,10.860100830078125,0.06834697723388672,0.012602806091308594,0.0015947520732879639
1697853788785160000,10.870159912109376,0.046807289123535156,-0.001820206642150879,-0.0008324682712554932
1697853788795109000,10.880109130859376,0.05041694641113281,0.018421292304992676,-0.01752886176109314
1697853788805121000,10.89012109375,0.046845436096191406,0.017107605934143066,-0.01982825994491577
1697853788815100000,10.900099853515625,0.06120872497558594,0.008736133575439453,-0.011459514498710632
1697853788825101000,10.91010107421875,0.04085731506347656,0.007537484169006348,-0.01749342679977417
1697853788835044000,10.920044189453124,0.04683685302734375,0.00038826465606689453,-0.015146017074584961
1697853788844803000,10.929802978515625,0.03365135192871094,0.008880615234375,-0.014005333185195923
1697853788855582500,10.94058251953125,0.039630889892578125,0.013697981834411621,0.014674708247184753
1697853788866991000,10.9519912109375,0.054027557373046875,0.031419992446899414,0.020436376333236694
1697853788884699000,10.969698974609376,0.056385040283203125,0.022076010704040527,0.007242336869239807
1697853788894876000,10.9798759765625,0.04442882537841797,0.023190736770629883,-0.013026624917984009
1697853788904638000,10.989637939453125,0.07196235656738281,0.017204880714416504,-0.005843937397003174
1697853788914646000,10.99964599609375,0.06476020812988281,0.0029546022415161133,-0.004697874188423157
1697853788924596000,11.009595947265625,0.04561042785644531,-0.0006592273712158203,-0.011868834495544434
1697853788934622000,11.0196220703125,0.05758094787597656,0.01131749153137207,-0.0034686625003814697
1697853788944845000,11.029844970703126,0.056374549865722656,0.006596684455871582,-0.004575997591018677
1697853788954708000,11.0397080078125,0.05397224426269531,0.011452078819274902,0.00628700852394104
1697853788964853000,11.04985302734375,0.05277538299560547,0.011458158493041992,0.005110576748847961
1697853788974757000,11.059757080078125,0.03959465026855469,0.011522412300109863,0.003817439079284668
1697853788984735000,11.06973486328125,0.041977882385253906,0.012786507606506348,-0.004601866006851196
1697853788994730000,11.07972998046875,0.04317951202392578,0.013965368270874023,-0.011716529726982117
1697853789004705000,11.089705078125,0.039577484130859375,0.008044719696044922,0.00021597743034362793
1697853789014834000,11.099833984375,0.03959465026855469,0.021085739135742188,0.008509591221809387
1697853789024735000,11.10973486328125,0.05635356903076172,0.009120464324951172,0.010893523693084717
1697853789034778000,11.119778076171874,0.04917335510253906,0.013893604278564453,-0.009466409683227539
1697853789044872000,11.129871826171875,0.056342124938964844,0.007978439331054688,0.020363464951515198
1697853789054681000,11.13968115234375,0.0898590087890625,0.010391950607299805,0.01202380657196045
1697853789064645000,11.14964501953125,0.08147907257080078,0.01634681224822998,0.03207117319107056
1697853789074614000,11.159614013671876,0.0994253158569336,0.011591076850891113,0.02589823305606842
1697853789084732000,11.16973193359375,0.08626651763916016,0.01631605625152588,0.011455312371253967
1697853789094732000,11.17973193359375,0.09704780578613281,0.017462611198425293,-0.010121434926986694
1697853789104834000,11.189833984375,0.08028793334960938,0.009105801582336426,-0.020716369152069092
1697853789114735000,11.199735107421875,0.07431221008300781,0.01388084888458252,-0.03351013362407684
1697853789124843000,11.209843017578125,0.05158424377441406,0.011454105377197266,-0.042496904730796814
1697853789134800000,11.2197998046875,0.06118202209472656,0.013799309730529785,-0.04781563580036163
1697853789144619000,11.229618896484375,0.04084300994873047,0.0018352270126342773,-0.047183409333229065
1697853789154629000,11.239629150390625,0.03607463836669922,0.0029387474060058594,-0.028994768857955933
1697853789164630000,11.249630126953125,0.0049457550048828125,-0.0078078508377075195,-0.00987870991230011
1697853789174724000,11.25972412109375,0.014497756958007812,-0.024417400360107422,0.010390684008598328
1697853789184724000,11.269723876953124,0.025228500366210938,-0.02297055721282959,0.01973097026348114
1697853789194783000,11.279782958984375,0.05265617370605469,-0.021213173866271973,0.048755303025245667
1697853789204773000,11.289773193359375,0.062091827392578125,-0.025296330451965332,0.0650871992111206
1697853789214710000,11.2997099609375,0.09437084197998047,0.004777073860168457,0.04982884228229523
1697853789225035000,11.310034912109375,0.047682762145996094,0.009481549263000488,0.046669214963912964
1697853789234862000,11.319862060546875,0.0692281723022461,0.014252781867980957,0.02728573977947235
1697853789245323000,11.330322998046874,0.01058197021484375,0.01894986629486084,0.009210243821144104
1697853789255325000,11.340324951171874,-0.12108516693115234,0.006886720657348633,-0.0063657015562057495
1697853789265042000,11.3500419921875,-0.045642852783203125,0.02350592613220215,-0.015751510858535767
1697853789274753000,11.3597529296875,0.009604454040527344,0.05839836597442627,-0.05056041479110718
1697853789284778000,11.369778076171874,0.11394691467285156,0.0883321762084961,-0.03197966516017914
1697853789294739000,11.379739013671875,0.1606149673461914,0.09444820880889893,-0.029573485255241394
1697853789304788000,11.3897880859375,0.1043386459350586,0.01192009449005127,-0.011655628681182861
1697853789314963000,11.399962890625,0.09832763671875,-0.010678887367248535,0.010938197374343872
1697853789324762000,11.40976220703125,0.0695037841796875,-0.03644752502441406,0.018986359238624573
1697853789334995000,11.419994873046875,0.09460830688476562,-0.017100811004638672,0.012806028127670288
1697853789344751000,11.429751220703125,0.08623313903808594,0.0020323991775512695,-0.00034449994564056396
1697853789354778000,11.439778076171875,0.0706644058227539,0.011666178703308105,-0.024113565683364868
1697853789365079000,11.4500791015625,0.0431671142578125,0.03182351589202881,-0.02626827359199524
1697853789374780000,11.45977978515625,0.024057388305664062,0.031600117683410645,-0.036542728543281555
1697853789385081000,11.4700810546875,-0.007045745849609375,0.01951420307159424,-0.02555471658706665
1697853789394786000,11.4797861328125,-0.014225006103515625,0.01590883731842041,-0.005208820104598999
1697853789404772000,11.489772216796876,-0.015424728393554688,-0.0032385587692260742,0.007921263575553894
1697853789415101000,11.500100830078125,-0.001071929931640625,-0.01036536693572998,0.01491914689540863
1697853789425096000,11.510095947265626,0.010877609252929688,-0.006655335426330566,0.02310323715209961
1697853789435096000,11.520095947265625,0.0395965576171875,0.006511211395263672,0.040502846240997314
1697853789445100000,11.53010009765625,0.07788753509521484,0.01255488395690918,0.031770333647727966
1697853789454804000,11.539803955078124,0.08270072937011719,0.029132723808288574,0.020860493183135986
1697853789465092000,11.550092041015626,0.0982828140258789,0.0349808931350708,0.015972793102264404
1697853789474821000,11.559821044921875,0.10427379608154297,0.030154705047607422,-0.0019542425870895386
1697853789485113000,11.570113037109374,0.09111499786376953,0.027716398239135742,-0.01145334541797638
1697853789495634000,11.580634033203125,0.08275222778320312,0.018050670623779297,-0.026803508400917053
1697853789504786000,11.589785888671875,0.057625770568847656,0.014422774314880371,-0.030141934752464294
1697853789515094000,11.600093994140625,0.05521392822265625,-0.000997304916381836,-0.027453213930130005
1697853789525228000,11.61022802734375,0.05281829833984375,0.0026494264602661133,-0.03194423019886017
1697853789535328000,11.620327880859374,0.04562187194824219,-0.0008548498153686523,-0.010413110256195068
1697853789545078000,11.630078125,0.040825843811035156,0.012357950210571289,-0.010431677103042603
1697853789554770000,11.63977001953125,0.03602790832519531,-0.004340767860412598,-0.0188075453042984
1697853789565131000,11.650131103515625,0.040808677673339844,-0.004280567169189453,-0.015180692076683044
1697853789574846000,11.659845947265625,0.05635833740234375,-0.0078018903732299805,-0.0020468831062316895
1697853789585069000,11.670069091796876,0.05277061462402344,-0.0030192136764526367,-0.009155258536338806
1697853789595095000,11.680094970703125,0.053974151611328125,-0.000675201416015625,0.00039261579513549805
1697853789605107000,11.69010693359375,0.05157279968261719,0.014923930168151855,0.013470083475112915
1697853789614972000,11.699971923828125,0.046799659729003906,0.020783424377441406,0.010912582278251648
1697853789624803000,11.709802978515626,0.05040168762207031,0.015903353691101074,0.014332249760627747
1697853789634789000,11.7197890625,0.05520439147949219,0.018201589584350586,0.014287903904914856
1697853789644774000,11.72977392578125,0.04444313049316406,0.0288851261138916,0.010624825954437256
1697853789654810000,11.73981005859375,0.057608604431152344,0.01813197135925293,0.013021096587181091
1697853789664781000,11.749781005859376,0.060004234313964844,0.015726089477539062,0.009472399950027466
1697853789675076000,11.760076171875,0.060006141662597656,0.018126249313354492,-0.0012224912643432617
1697853789685040000,11.7700400390625,0.056423187255859375,0.0049054622650146484,0.002459302544593811
1697853789694813000,11.77981298828125,0.0492401123046875,0.006109952926635742,-0.0035557597875595093
1697853789708904000,11.793904052734375,0.0492401123046875,0.006125211715698242,-0.01779758930206299
1697853789724994000,11.809994140625,0.06239128112792969,0.009846925735473633,-0.016458168625831604
1697853789734653000,11.81965283203125,0.052806854248046875,0.012293457984924316,-0.014007121324539185
1697853789744650000,11.82964990234375,0.05878162384033203,-0.005579471588134766,-0.012727707624435425
1697853789754621000,11.839620849609375,0.049218177795410156,-0.0008759498596191406,-0.011476367712020874
1697853789764584000,11.849583984375,0.05041217803955078,0.0027360916137695312,-0.011485427618026733
1697853789774733000,11.859733154296874,0.0503997802734375,0.009984731674194336,0.0003975480794906616
1697853789784738000,11.869738037109375,0.05159568786621094,0.012385249137878418,-0.0008390098810195923
1697853789794739000,11.879739013671875,0.06475639343261719,0.014828205108642578,0.012308761477470398
1697853789804744000,11.889743896484376,0.061173439025878906,0.014754652976989746,0.011032640933990479
1697853789814865000,11.899864990234375,0.06357765197753906,0.01829361915588379,0.00027891993522644043
1697853789824719000,11.909718994140626,0.044426918029785156,0.01587808132171631,0.008657947182655334
1697853789834717000,11.919717041015625,0.05757617950439453,0.011205792427062988,0.0014302432537078857
1697853789844722000,11.929721923828126,0.04920482635498047,0.0039653778076171875,0.004970446228981018
1697853789854699000,11.939698974609374,0.04562854766845703,0.008645057678222656,0.0025304704904556274
1697853789864685000,11.94968505859375,0.05640220642089844,0.008652687072753906,0.0037570148706436157
1697853789875130000,11.960130126953125,0.05878639221191406,0.0075228214263916016,-0.001001402735710144
1697853789884645000,11.96964501953125,0.05639934539794922,0.013452887535095215,-0.005838826298713684
1697853789894826000,11.979825927734375,0.05040454864501953,0.00991511344909668,0.009641662240028381
1697853789904605000,11.98960498046875,0.06116771697998047,0.003994941711425781,-0.00949147343635559
1697853789914591000,11.999591064453124,0.057585716247558594,0.009928703308105469,-0.009521067142486572
1697853789924573000,12.009572998046876,0.042021751403808594,0.005148887634277344,-0.009482339024543762
1697853789934793000,12.01979296875,0.04800987243652344,0.017103075981140137,-0.0035297423601150513
1697853789944728000,12.02972802734375,0.051598548889160156,0.017109394073486328,0.0012193173170089722
1697853789954645000,12.03964501953125,0.048003196716308594,0.0195310115814209,0.0012238025665283203
1697853789964584000,12.049583984375,0.03722953796386719,0.008763313293457031,0.002500683069229126
1697853789974721000,12.059720947265625,0.045609474182128906,0.014753937721252441,-0.0010792165994644165
1697853789984658000,12.069657958984376,0.057590484619140625,0.00991213321685791,0.007380545139312744
1697853789994705000,12.079704833984374,0.061181068420410156,0.006327986717224121,0.002681344747543335
1697853790004740000,12.089739990234374,0.07195758819580078,0.01591205596923828,0.006360843777656555
1697853790014815000,12.09981494140625,0.05279350280761719,0.006401419639587402,0.0063813477754592896
1697853790024855000,12.10985498046875,0.05877685546875,0.004014134407043457,0.006351858377456665
1697853790034752000,12.119751953125,0.06716346740722656,0.003960728645324707,-0.0021268129348754883
1697853790044820000,12.129820068359376,0.07434844970703125,0.0003457069396972656,0.0002241581678390503
1697853790054834000,12.139833984375,0.0731515884399414,0.005141139030456543,-0.006929248571395874
1697853790064856000,12.14985595703125,0.06238079071044922,0.00034940242767333984,-0.016387179493904114
1697853790074851000,12.15985107421875,0.045619964599609375,0.0063419342041015625,-0.004386469721794128
1697853790084678000,12.169677978515624,0.0252685546875,0.0063478946685791016,0.0016192644834518433
