time,seconds_elapsed,z,y,x
1699665526394793700,0.135793701171875,0.0615234375,0.0002598762512207031,-0.001155845820903778
1699665526410707000,0.15170703125,0.050749778747558594,-0.0009372234344482422,-0.013126853853464127
1699665526423586000,0.1645859375,0.04596138000488281,0.007442474365234375,0.0000412575900554657
1699665526435161300,0.176161376953125,0.030399322509765625,0.0026540756225585938,-0.005944248288869858
1699665526445818600,0.186818603515625,0.04257488250732422,0.007176995277404785,-0.000699855387210846
1699665526456166000,0.197165771484375,0.03539276123046875,-0.000005602836608886719,0.0016943477094173431
1699665526466526000,0.20752587890625,0.042575836181640625,0.0035790205001831055,0.008945323526859283
1699665526476497400,0.217497314453125,0.040424346923828125,0.007354140281677246,-0.00037591904401779175
1699665526486550800,0.22755078125,0.041179656982421875,0.008601069450378418,-0.00000858306884765625
1699665526496545300,0.237545166015625,0.046077728271484375,0.007685422897338867,-0.0005296505987644196
1699665526506611200,0.247611083984375,0.04377460479736328,0.007015109062194824,0.020186973735690117
1699665526516547600,0.257547607421875,0.04137992858886719,0.015394806861877441,0.013004368171095848
1699665526526526200,0.267526123046875,0.040183067321777344,0.01300060749053955,0.009413065388798714
1699665526536933600,0.27793359375,0.02581787109375,0.014197707176208496,0.0034275632351636887
1699665526546763800,0.287763671875,0.04377460479736328,0.016591906547546387,0.015398571267724037
1699665526556577800,0.297577880859375,0.027014732360839844,0.005818009376525879,0.011807268485426903
1699665526566482400,0.307482421875,0.04377460479736328,0.007015109062194824,-0.00016373954713344574
1699665526576574200,0.31757421875,0.029603958129882812,0.016901135444641113,0.0002584680914878845
1699665526586539000,0.3275390625,0.03319549560546875,0.02288663387298584,0.0062439702451229095
1699665526596485000,0.337485107421875,0.030800819396972656,0.003733038902282715,0.0002584680914878845
1699665526606442000,0.34744189453125,0.023630142211914062,0.013227701187133789,0.001881428062915802
1699665526616438500,0.3574384765625,0.026015281677246094,0.009688496589660645,0.00321037694811821
1699665526626442200,0.367442138671875,0.03080463409423828,0.010878443717956543,0.0009601525962352753
1699665526636435700,0.377435791015625,0.024595260620117188,0.004026651382446289,0.00007942318916320801
1699665526646432300,0.387432373046875,0.0206146240234375,0.003588080406188965,-0.0004215128719806671
1699665526656411100,0.3974111328125,0.02422618865966797,-0.003719329833984375,0.004507869482040405
1699665526666404000,0.407404052734375,0.02543354034423828,0.006988525390625,0.0034422874450683594
1699665526676417500,0.41741748046875,0.03382396697998047,0.003330707550048828,0.0072249118238687515
1699665526686437400,0.427437255859375,0.03262901306152344,0.009296536445617676,0.009650090709328651
1699665526696565800,0.437565673828125,0.02664470672607422,0.0009096860885620117,0.0085824616253376
1699665526706684400,0.447684326171875,0.027841567993164062,0.003305196762084961,0.025298727676272392
1699665526716693800,0.45769384765625,0.031434059143066406,0.004495859146118164,0.00393010675907135
1699665526726668800,0.467668701171875,0.03143501281738281,0.005684494972229004,0.012402860447764397
1699665526736679000,0.477678955078125,0.026642799377441406,0.010496377944946289,0.017240947112441063
1699665526746711000,0.4877109375,0.009900093078613281,-0.00277554988861084,0.019601795822381973
1699665526756670500,0.49767041015625,0.017083168029785156,0.0067942142486572266,0.008958930149674416
1699665526766712300,0.50771240234375,0.015897750854492188,0.0031353235244750977,0.005501957610249519
1699665526776718600,0.517718505859375,0.02668476104736328,0.013826608657836914,0.005617400631308556
1699665526786586400,0.52758642578125,0.017118453979492188,0.0053789615631103516,0.0044851843267679214
1699665526796530200,0.5375302734375,0.02310466766357422,0.005371570587158203,-0.004956673830747604
1699665526806493200,0.5474931640625,0.02911090850830078,0.0016573667526245117,-0.0012453608214855194
1699665526816558000,0.55755810546875,0.03030872344970703,0.0004533529281616211,-0.007115494459867477
1699665526826607000,0.567607177734375,0.030300140380859375,0.004094958305358887,0.004982501268386841
1699665526836524500,0.577524658203125,0.08056926727294922,0.011328339576721191,0.007506027817726135
1699665526846529300,0.587529296875,0.017203330993652344,0.026377558708190918,-0.061785753816366196
1699665526856573200,0.5975732421875,0.023077011108398438,-0.03278183937072754,0.04873758181929588
1699665526866492700,0.60749267578125,0.01706981658935547,-0.01948535442352295,0.02109740488231182
1699665526876620300,0.617620361328125,-0.08588314056396484,-0.025449514389038086,-0.0038993097841739655
1699665526886701000,0.627701171875,-0.04757213592529297,0.0020530223846435547,0.0033562518656253815
1699665526896850700,0.6378505859375,0.11285209655761719,0.03668951988220215,-0.0037378352135419846
1699665526906773200,0.647773193359375,-0.015187263488769531,0.012442946434020996,0.0390898659825325
1699665526916650800,0.657650634765625,0.05068778991699219,0.012229204177856445,-0.032373782247304916
1699665526926623700,0.667623779296875,-0.0570220947265625,0.0060721635818481445,0.02036222070455551
1699665526936670500,0.67767041015625,0.04593086242675781,0.010839700698852539,0.014389285817742348
1699665526946659300,0.687659423828125,0.03155326843261719,0.012115716934204102,0.015643302351236343
1699665526956741600,0.69774169921875,0.06627368927001953,0.02046048641204834,0.008505010977387428
1699665526966787300,0.707787353515625,0.03276634216308594,0.012013912200927734,0.001513911411166191
1699665526976745700,0.717745849609375,0.03874683380126953,-0.0023217201232910156,-0.015108540654182434
1699665526986765300,0.727765380859375,-0.009136199951171875,-0.004724740982055664,0.004203625023365021
1699665526997423000,0.738423095703125,0.01718902587890625,-0.016635656356811523,0.005475983023643494
1699665527007036700,0.74803662109375,-0.0067539215087890625,-0.008244872093200684,0.007863756269216537
1699665527016783400,0.757783447265625,0.018360137939453125,-0.022459030151367188,0.01617291569709778
1699665527026698200,0.7676982421875,0.007595062255859375,-0.0009635686874389648,0.020791150629520416
1699665527036718600,0.777718505859375,0.019585609436035156,0.013286471366882324,0.0148631501942873
1699665527046676700,0.7876767578125,0.03036975860595703,0.0048427581787109375,0.020916638895869255
1699665527056668000,0.79766796875,0.024405479431152344,0.005907297134399414,0.01501176506280899
1699665527066544400,0.80754443359375,0.039981842041015625,0.00941932201385498,0.0185875054448843
1699665527076602000,0.81760205078125,0.025632858276367188,0.010515332221984863,0.017371846362948418
1699665527086737200,0.827737060546875,0.02443695068359375,0.0009303092956542969,0.005495673045516014
1699665527097253000,0.838253173828125,0.0292205810546875,-0.0014338493347167969,0.021005304530262947
1699665527106936600,0.8479365234375,0.028031349182128906,-0.003878355026245117,0.009109005331993103
1699665527116857900,0.85785791015625,0.02805042266845703,0.007966756820678711,0.01165514811873436
1699665527126733800,0.86773388671875,0.011293411254882812,0.005565047264099121,0.008254399523139
1699665527136722000,0.877721923828125,0.008925437927246094,0.010188817977905273,0.015450119972229004
1699665527146678500,0.887678466796875,0.01610565185546875,-0.004160046577453613,0.012032419443130493
1699665527156656000,0.89765625,0.019697189331054688,0.001818537712097168,0.0073739998042583466
1699665527166658600,0.907658447265625,0.020904541015625,-0.0006418228149414062,0.007505809888243675
1699665527176636000,0.917635986328125,0.019718170166015625,-0.0030999183654785156,0.005172397941350937
1699665527186634500,0.927634521484375,0.019728660583496094,-0.0019649267196655273,0.010137837380170822
1699665527196633000,0.937633056640625,0.025712013244628906,-0.012729287147521973,0.004244944080710411
1699665527206645500,0.9476455078125,0.016145706176757812,0.0015687942504882812,0.0007967762649059296
1699665527216648200,0.957648193359375,0.010174751281738281,0.007465243339538574,0.010518580675125122
1699665527226657000,0.967656982421875,0.03053569793701172,0.005003690719604492,0.0034510530531406403
1699665527236663600,0.97766357421875,0.02337360382080078,0.004875659942626953,0.004712488502264023
1699665527246652200,0.987652099609375,0.01739501953125,0.012021541595458984,0.005953501909971237
1699665527256615200,0.997615234375,0.03295707702636719,0.0012407302856445312,-0.00714486837387085
1699665527266752000,1.007751953125,0.02936840057373047,0.0024302005767822266,0.006037015467882156
1699665527276960500,1.01796044921875,0.0389556884765625,-0.00003063678741455078,-0.002328917384147644
1699665527286719200,1.02771923828125,0.024593353271484375,-0.009620308876037598,0.02619720995426178
1699665527296612000,1.037612060546875,0.03534889221191406,-0.014296650886535645,0.023671017959713936
1699665527306554000,1.04755419921875,0.007813453674316406,-0.009495735168457031,0.024758849292993546
1699665527316481000,1.05748095703125,0.0030488967895507812,0.005924701690673828,0.01635601930320263
1699665527326500000,1.0675,0.0030651092529296875,0.00463259220123291,0.022256875410676003
1699665527336511000,1.077510986328125,0.0030870437622070312,0.010479092597961426,0.0209946371614933
1699665527346491000,1.087490966796875,-0.001659393310546875,0.021006107330322266,0.03272847831249237
1699665527356504600,1.097504638671875,-0.0016422271728515625,0.017317771911621094,0.038379814475774765
1699665527366511400,1.107511474609375,0.012719154357910156,0.010160326957702637,0.03461301326751709
1699665527376516000,1.11751611328125,0.015139579772949219,0.013601183891296387,0.023713979870080948
1699665527386596000,1.12759619140625,0.018766403198242188,0.014574408531188965,0.023689977824687958
1699665527396685600,1.137685546875,0.029562950134277344,0.010853409767150879,0.008280299603939056
1699665527406605800,1.147605712890625,0.034346580505371094,-0.004687309265136719,0.0012268368154764175
1699665527416581400,1.157581298828125,0.03912162780761719,-0.009395360946655273,-0.010485555976629257
1699665527426642200,1.16764208984375,0.027133941650390625,-0.00930476188659668,-0.023327793926000595
1699665527436769000,1.17776904296875,0.025915145874023438,-0.015163421630859375,-0.01581292413175106
1699665527446812200,1.187812255859375,0.03307628631591797,-0.0126420259475708,-0.019107071682810783
1699665527456710400,1.19771044921875,0.028278350830078125,-0.007807493209838867,-0.010541561059653759
1699665527466683000,1.207682861328125,0.021063804626464844,-0.01957857608795166,-0.006786957383155823
1699665527476583000,1.2175830078125,0.016267776489257812,-0.009955525398254395,-0.00555182620882988
1699665527486648800,1.22764892578125,0.012696266174316406,0.0006926059722900391,0.005235746502876282
1699665527497512400,1.238512451171875,0.00432586669921875,-0.0017598867416381836,0.011249123141169548
1699665527507658800,1.24865869140625,0.006741523742675781,0.004097461700439453,0.020852016285061836
1699665527517061400,1.258061279296875,0.019910812377929688,0.004092693328857422,0.019542723894119263
1699665527526798000,1.267798095703125,0.01753711700439453,0.006368041038513184,0.03485898673534393
1699665527536655600,1.277655517578125,0.025936126708984375,0.002664804458618164,0.034604720771312714
1699665527546552800,1.287552734375,0.01998424530029297,0.0048569440841674805,0.028461210429668427
1699665527556517400,1.297517333984375,0.03315448760986328,-0.003535628318786621,0.021222637966275215
1699665527566546700,1.307546630859375,0.03555011749267578,0.006033182144165039,0.019996201619505882
1699665527576569300,1.3175693359375,0.030760765075683594,0.00005221366882324219,0.010504953563213348
1699665527586606600,1.327606689453125,0.02357959747314453,0.004830002784729004,0.011728871613740921
1699665527596710400,1.33771044921875,0.014008522033691406,-0.00597691535949707,0.009351363405585289
1699665527606731300,1.347731201171875,0.017610549926757812,-0.003648996353149414,0.0022513587027788162
1699665527616665600,1.35766552734375,0.017627716064453125,-0.004947662353515625,-0.00842292420566082
1699665527626632200,1.367632080078125,0.010455131530761719,0.008154153823852539,0.002551766112446785
1699665527636543700,1.377543701171875,0.011652946472167969,-0.0014297962188720703,0.0014883019030094147
1699665527646606800,1.38760693359375,0.01883983612060547,0.01290595531463623,0.002871645614504814
1699665527656782800,1.397782958984375,0.022441864013671875,0.0020662546157836914,0.0030022505670785904
1699665527666757400,1.40775732421875,0.015270233154296875,0.004393935203552246,0.005450120195746422
1699665527676750800,1.417750732421875,0.030843734741210938,0.0043256282806396484,0.004308255389332771
1699665527686634800,1.427634765625,0.0224609375,-0.005231142044067383,0.009188612923026085
1699665527696631600,1.437631591796875,0.02724742889404297,-0.01001286506652832,0.011596255004405975
1699665527706641200,1.44764111328125,0.01765727996826172,-0.018308401107788086,0.016398288309574127
1699665527716692500,1.4576923828125,0.012867927551269531,-0.007533431053161621,0.022366255521774292
1699665527726716400,1.46771630859375,0.012866973876953125,-0.008722662925720215,0.02352890372276306
1699665527736705500,1.47770556640625,0.010481834411621094,-0.008775115013122559,0.023543260991573334
1699665527746675700,1.48767578125,0.009312629699707031,0.0066176652908325195,0.023447729647159576
1699665527756674300,1.49767431640625,0.017731666564941406,0.018352150917053223,0.00915120355784893
1699665527766712800,1.507712890625,0.01657581329345703,0.021697044372558594,0.013862082734704018
1699665527776756000,1.517755859375,0.017789840698242188,0.013207554817199707,0.013871032744646072
1699665527786748000,1.527747802734375,0.01660442352294922,0.007150769233703613,-0.000352540984749794
1699665527796716000,1.537716064453125,0.016614913940429688,0.0034941434860229492,0.004556348547339439
1699665527806687000,1.54768701171875,0.026212692260742188,0.005766749382019043,0.004626855254173279
1699665527816758500,1.557758544921875,0.017843246459960938,0.0045021772384643555,0.0011699572205543518
1699665527826738200,1.56773828125,0.01904010772705078,-0.0014899969100952148,0.008472424000501633
1699665527836722200,1.57772216796875,0.020249366760253906,-0.003950238227844238,0.0025991499423980713
1699665527846686000,1.58768603515625,0.01786518096923828,0.001968979835510254,0.0027213525027036667
1699665527856695000,1.597695068359375,0.01787567138671875,-0.005279660224914551,-0.0007876064628362656
1699665527866705000,1.607704833984375,0.022665023803710938,-0.011269688606262207,0.001731719821691513
1699665527876717000,1.617717041015625,0.020246505737304688,-0.017107725143432617,0.016162212938070297
1699665527886739000,1.627739013671875,0.008255958557128906,-0.011011481285095215,0.011464446783065796
1699665527896754400,1.63775439453125,0.0094451904296875,-0.008565306663513184,0.018663711845874786
1699665527906710800,1.647710693359375,0.016632080078125,-0.006197571754455566,0.01512603834271431
1699665527916704300,1.657704345703125,0.025020599365234375,-0.008639335632324219,0.018674634397029877
1699665527926709800,1.667709716796875,0.014257431030273438,-0.007519841194152832,0.012698518112301826
1699665527936943900,1.67794384765625,0.02024078369140625,-0.0003211498260498047,0.022261809557676315
1699665527946850300,1.687850341796875,0.02025127410888672,0.0020117759704589844,0.015143025666475296
1699665527956831700,1.697831787109375,0.013088226318359375,-0.0005059242248535156,0.00928746722638607
1699665527966761700,1.70776171875,0.010686874389648438,0.005531787872314453,0.015216091647744179
1699665527976770000,1.71777001953125,0.013089179992675781,0.007874369621276855,0.0044594258069992065
1699665527986862000,1.727862060546875,0.02266407012939453,0.007881641387939453,0.004417048767209053
1699665527996803000,1.737802978515625,0.02506542205810547,0.0006595849990844727,0.01396605558693409
1699665528006730000,1.74772998046875,0.038222312927246094,-0.0016685724258422852,0.0008152611553668976
1699665528016719600,1.7577197265625,0.015466690063476562,0.0031870603561401367,0.0056606922298669815
1699665528026711300,1.767711181640625,0.014272689819335938,-0.007608175277709961,0.006795249879360199
1699665528036710100,1.777710205078125,0.014258384704589844,-0.013506650924682617,0.009169137105345726
1699665528046680600,1.7876806640625,0.01544952392578125,-0.009875059127807617,0.00075531005859375
1699665528056740900,1.797740966796875,0.015438079833984375,-0.008608818054199219,0.013920646160840988
1699665528066699300,1.80769921875,0.017830848693847656,-0.007404446601867676,0.018559373915195465
1699665528076633600,1.817633544921875,0.021424293518066406,-0.005020856857299805,0.016103431582450867
1699665528086765300,1.827765380859375,0.021416664123535156,-0.0037794113159179688,0.016037708148360252
1699665528096746800,1.837746826171875,0.028588294982910156,0.0010756254196166992,0.0016800984740257263
1699665528106790400,1.847790283203125,0.02260112762451172,-0.0025075674057006836,0.007672945037484169
1699665528116730000,1.857730224609375,0.023787498474121094,-0.0072296857833862305,0.017103953287005424
1699665528126676500,1.867676513671875,0.011807441711425781,0.0036051273345947266,0.019471921026706696
1699665528136825300,1.877825439453125,0.015377044677734375,0.00014412403106689453,0.020598407834768295
1699665528146683100,1.88768310546875,0.0057926177978515625,0.004984617233276367,0.013323446735739708
1699665528156741600,1.89774169921875,0.02374744415283203,0.0049877166748046875,0.01803615316748619
1699665528166721800,1.9077216796875,0.014179229736328125,-0.0010480880737304688,0.007211795076727867
1699665528176751400,1.91775146484375,0.017769813537597656,0.007339835166931152,0.007209420204162598
1699665528186727200,1.92772705078125,0.01775836944580078,0.00022149085998535156,0.008432639762759209
1699665528196783600,1.93778369140625,0.015350341796875,-0.004475235939025879,0.011994315311312675
1699665528206812000,1.94781201171875,0.018949508666992188,-0.0009344816207885742,0.0047707948833703995
1699665528216758800,1.9577587890625,0.012972831726074219,-0.0069730281829833984,0.0023335572332143784
1699665528226674000,1.967673828125,0.017754554748535156,-0.008128166198730469,0.0059133898466825485
1699665528236646400,1.977646484375,0.02850818634033203,-0.013995766639709473,0.010717317461967468
1699665528246607400,1.987607421875,0.02490234375,-0.010313272476196289,0.015485299751162529
1699665528256609000,1.997609130859375,0.012935638427734375,-0.007943034172058105,0.00948825292289257
1699665528266622000,2.0076220703125,0.020116806030273438,-0.0007534027099609375,0.0059133898466825485
1699665528276609000,2.017609130859375,0.016524314880371094,-0.005533933639526367,0.003537416458129883
1699665528286666500,2.02766650390625,0.022512435913085938,0.010010123252868652,0.013131724670529366
1699665528296643300,2.037643310546875,0.021326065063476562,0.00396573543548584,0.015485445037484169
1699665528306694100,2.047694091796875,0.02012157440185547,-0.005566000938415527,0.011791704222559929
1699665528316656600,2.05765673828125,0.02729320526123047,0.0028765201568603516,0.009311068803071976
1699665528326622700,2.067622802734375,0.020110130310058594,0.002886176109313965,0.01637275144457817
1699665528336695300,2.0776953125,0.030877113342285156,-0.0006672143936157227,0.017444873228669167
1699665528346725600,2.0877255859375,0.02248668670654297,-0.006589174270629883,0.016174709424376488
1699665528356683800,2.097683837890625,0.018899917602539062,0.008951902389526367,0.016052179038524628
1699665528366639400,2.107639404296875,0.02248096466064453,0.005423307418823242,0.016004430130124092
1699665528376643300,2.117643310546875,0.016493797302246094,-0.002941131591796875,0.008766915649175644
1699665528386619600,2.12761962890625,0.026068687438964844,-0.006521344184875488,0.01711209863424301
1699665528396609800,2.13760986328125,0.01767730712890625,0.0007256269454956055,0.008691878989338875
1699665528406612000,2.147612060546875,0.015273094177246094,0.0031882524490356445,0.007451556622982025
1699665528416630500,2.157630615234375,0.028425216674804688,-0.006296873092651367,0.0038650408387184143
1699665528426625300,2.167625244140625,0.02600860595703125,-0.009750127792358398,0.014569425955414772
1699665528436623000,2.177623046875,0.0343780517578125,-0.009683728218078613,0.00731612928211689
1699665528446591500,2.187591552734375,0.02836132049560547,-0.01428985595703125,0.009657397866249084
1699665528456614400,2.197614501953125,0.03194713592529297,-0.0058710575103759766,0.003680223599076271
1699665528466633700,2.2076337890625,0.03554248809814453,-0.0011078119277954102,0.016731062904000282
1699665528476651800,2.21765185546875,0.019989013671875,0.0060204267501831055,0.007109940052032471
1699665528486634000,2.227634033203125,0.022383689880371094,0.006020545959472656,0.013074366375803947
1699665528496778500,2.237778564453125,0.02000141143798828,0.008344650268554688,0.013040866702795029
1699665528506985200,2.247985107421875,0.014017105102539062,0.005940914154052734,0.015366753563284874
1699665528516794600,2.257794677734375,0.008040428161621094,0.0023027658462524414,0.012934848666191101
1699665528526653200,2.267653076171875,0.017625808715820312,0.003445863723754883,0.019960911944508553
1699665528536643600,2.2776435546875,0.014032363891601562,0.0022563934326171875,-0.0027663595974445343
1699665528546546400,2.28754638671875,0.0020513534545898438,0.007110714912414551,-0.0003647059202194214
1699665528556503600,2.297503662109375,0.03437328338623047,0.008307814598083496,0.012782873585820198
1699665528566509300,2.30750927734375,0.02719879150390625,0.004666686058044434,0.010385345667600632
1699665528577181700,2.318181640625,0.015226364135742188,-0.00010907649993896484,-0.003950564190745354
1699665528587006700,2.3280068359375,0.015226364135742188,-0.00010907649993896484,-0.003950564190745354
1699665528596776000,2.33777587890625,0.022401809692382812,-0.006060004234313965,0.004511669278144836
1699665528606910000,2.347909912109375,0.0271759033203125,-0.003575563430786133,0.012794490903615952
1699665528616708400,2.357708251953125,0.027154922485351562,-0.001055598258972168,0.006826227530837059
1699665528626601200,2.367601318359375,0.0175628662109375,-0.004549860954284668,0.013967441394925117
1699665528636539600,2.37753955078125,0.017543792724609375,-0.0056345462799072266,0.01867006905376911
1699665528648522800,2.389522705078125,0.006766319274902344,-0.003216385841369629,0.011450419202446938
1699665528657540900,2.398540771484375,0.015146255493164062,0.005164980888366699,0.011373957619071007
1699665528667026400,2.4080263671875,0.019942283630371094,0.006315708160400391,0.007736768573522568
1699665528676747300,2.417747314453125,0.02113819122314453,0.003930807113647461,0.010137215256690979
1699665528686714600,2.427714599609375,0.01874256134033203,0.0015416145324707031,0.013682158663868904
1699665528696733200,2.437733154296875,0.01636219024658203,0.00744020938873291,0.004134470596909523
1699665528706690000,2.44768994140625,0.022357940673828125,0.009778141975402832,0.007690994068980217
1699665528716729600,2.4577294921875,0.022362709045410156,0.010946035385131836,0.014750776812434196
1699665528726688800,2.467688720703125,0.034317970275878906,-0.00451815128326416,0.008687200024724007
1699665528736758800,2.4777587890625,0.02833271026611328,-0.008112907409667969,0.0062286630272865295
1699665528746707000,2.48770703125,0.011572837829589844,0.00027823448181152344,0.012207046151161194
1699665528756773400,2.4977734375,0.029511451721191406,-0.00680088996887207,0.008546257391571999
1699665528766703600,2.50770361328125,0.019916534423828125,-0.0042945146560668945,0.019229674711823463
1699665528776765000,2.517764892578125,0.030676841735839844,0.0005810260772705078,0.01671900600194931
1699665528786606300,2.5276064453125,0.019891738891601562,-0.008933544158935547,0.010694194585084915
1699665528796676000,2.537676025390625,0.013896942138671875,-0.011267781257629395,0.008272774517536163
1699665528806659600,2.54765966796875,0.0066986083984375,-0.006379961967468262,0.013011310249567032
1699665528816668000,2.55766796875,0.019842147827148438,-0.0026394128799438477,0.012910187244415283
1699665528826679300,2.56767919921875,0.025812149047851562,-0.0013554096221923828,0.010491548106074333
1699665528836697600,2.577697509765625,0.025809288024902344,-0.0013297796249389648,0.01047949306666851
1699665528846663400,2.587663330078125,0.02820301055908203,0.004655718803405762,0.008085289970040321
1699665528856774100,2.597774169921875,0.025785446166992188,-0.001185297966003418,0.018796179443597794
1699665528866707700,2.607707763671875,0.01979541778564453,-0.0023518800735473633,0.015099003911018372
1699665528876736300,2.617736328125,0.023385047912597656,0.007231593132019043,0.007877456024289131
1699665528886680600,2.6276806640625,0.024596214294433594,0.019122004508972168,0.01610708422958851
1699665528896694800,2.63769482421875,0.040144920349121094,-0.01072394847869873,-0.0018240008503198624
1699665528906670800,2.6476708984375,0.015016555786132812,0.007167816162109375,0.008881991729140282
1699665528916662000,2.657662109375,0.03177928924560547,0.017914533615112305,0.002915704622864723
1699665528926709500,2.66770947265625,0.023383140563964844,0.004848122596740723,0.006639402359724045
1699665528936730000,2.677730224609375,0.019792556762695312,0.002453923225402832,0.00783650204539299
1699665528946691000,2.687691162109375,0.012607574462890625,0.00964820384979248,0.005366310477256775
1699665528956795100,2.697795166015625,0.011400222778320312,0.0025311708450317383,0.005325211212038994
1699665528966727400,2.7077275390625,0.026983261108398438,0.0024012327194213867,0.004090629518032074
1699665528976729300,2.717729248046875,0.01861095428466797,-0.0024306774139404297,0.007696399465203285
1699665528986762200,2.72776220703125,0.022192001342773438,-0.009555220603942871,0.004126321524381638
1699665528996754700,2.737754638671875,0.030574798583984375,-0.007170438766479492,0.005331750959157944
1699665529006604300,2.747604248046875,0.011419296264648438,-0.0023747682571411133,0.007625343278050423
1699665529016569600,2.757569580078125,0.019789695739746094,-0.009493350982666016,0.012317592278122902
1699665529026541800,2.767541748046875,0.03174781799316406,-0.002240896224975586,0.0015734229236841202
1699665529036523500,2.7775234375,0.02215576171875,-0.004543185234069824,0.008754456415772438
1699665529046467600,2.787467529296875,0.012568473815917969,0.00031280517578125,0.008713137358427048
1699665529056641800,2.797641845703125,0.02094745635986328,-0.0008769035339355469,0.005130201578140259
1699665529066630000,2.8076298828125,0.028128623962402344,0.006309628486633301,0.009964894503355026
1699665529076646400,2.817646484375,0.017353057861328125,0.0027265548706054688,0.012285370379686356
1699665529086652700,2.827652587890625,0.029313087463378906,-0.005578517913818359,0.02048935368657112
1699665529096656400,2.837656494140625,0.011365890502929688,0.00873255729675293,0.006081622093915939
1699665529106877700,2.847877685546875,0.014955520629882812,0.007542967796325684,0.008436914533376694
1699665529116788000,2.8577880859375,0.022136688232421875,0.00515592098236084,0.008455581963062286
1699665529126694000,2.86769384765625,0.028120994567871094,0.005161881446838379,0.013220133259892464
1699665529136754000,2.87775390625,0.028123855590820312,0.013525843620300293,0.004845831543207169
1699665529236149500,2.9771494140625,0.017348289489746094,-0.005620121955871582,0.004864536225795746
1699665529291397600,3.032397705078125,0.019704818725585938,-0.007778644561767578,0.0012469682842493057
1699665529324332300,3.065332275390625,0.022083282470703125,-0.005291342735290527,0.007156556472182274
1699665529394941700,3.135941650390625,0.03149223327636719,0.0005292892456054688,0.006405884400010109
1699665529441011500,3.182011474609375,0.03026580810546875,0.0007103681564331055,0.005066856741905212
1699665529464272100,3.205272216796875,0.03026580810546875,0.0007103681564331055,0.005066856741905212
1699665529481146600,3.222146728515625,0.0278778076171875,0.006653428077697754,0.006230857223272324
1699665529498923300,3.23992333984375,0.023108482360839844,0.008931756019592285,0.0025890301913022995
1699665529509638100,3.25063818359375,0.023108482360839844,0.008931756019592285,0.0025890301913022995
1699665529540061200,3.281061279296875,0.032668113708496094,-0.0005369186401367188,-0.004608007147908211
1699665529560655000,3.301655029296875,0.020697593688964844,-0.0029314756393432617,0.004968876019120216
1699665529571757000,3.312757080078125,0.020697593688964844,-0.0029311180114746094,0.004968838766217232
1699665529580769500,3.32176953125,0.018278121948242188,0.006793856620788574,0.006163600832223892
1699665529591558700,3.33255859375,0.026681900024414062,-0.00412595272064209,0.002624429762363434
1699665529608778000,3.349778076171875,0.03266620635986328,0.004259228706359863,0.012144539505243301
1699665529626759000,3.367759033203125,0.02190876007080078,0.002966642379760742,0.009793883189558983
1699665529637507000,3.378507080078125,0.017128944396972656,0.002915024757385254,0.0026394072920084
1699665529646524000,3.38752392578125,0.030289649963378906,-0.0042269229888916016,0.011084871366620064
1699665529660281000,3.401281005859375,0.020728111267089844,0.005261421203613281,0.003933940082788467
1699665529676860000,3.41785986328125,0.027907371520996094,0.0004857778549194336,0.002751162275671959
1699665529689958000,3.4309580078125,0.020725250244140625,0.001682877540588379,0.007539564743638039
1699665529707472000,3.448471923828125,0.018342971801757812,0.004005551338195801,0.0062394049018621445
1699665529717273000,3.458273193359375,0.03391551971435547,0.005146145820617676,0.008653847500681877
1699665529726543000,3.467543212890625,0.04469490051269531,0.003914952278137207,0.012220710515975952
1699665529736504000,3.477504150390625,0.020750999450683594,-0.003260493278503418,0.005065029487013817
1699665529750162400,3.491162353515625,0.011137962341308594,0.0029450654983520508,0.003937849774956703
1699665529764176000,3.50517578125,0.011137962341308594,0.0029450654983520508,0.003937849774956703
1699665529776590000,3.517590087890625,0.033883094787597656,-0.0006462335586547852,0.000346476212143898
1699665529786639000,3.52763916015625,0.021892547607421875,0.0018616914749145508,0.007560716941952705
1699665529796640000,3.537639892578125,0.005137443542480469,0.009024739265441895,0.00874682329595089
1699665529806623000,3.547623046875,0.0290679931640625,0.010290145874023438,0.002780277281999588
1699665529816690000,3.55768994140625,0.018294334411621094,0.0054972171783447266,0.0170903243124485
1699665529826662000,3.567661865234375,0.019491195678710938,0.004305124282836914,0.009915318340063095
1699665529836662000,3.577662109375,0.02188396453857422,0.011495351791381836,0.003948662430047989
1699665529846673000,3.5876728515625,0.02187347412109375,0.004378318786621094,0.005105691030621529
1699665529856635000,3.597634765625,0.033843040466308594,0.004385828971862793,0.007518703117966652
1699665529866678000,3.607677978515625,0.04103374481201172,0.0055294036865234375,-0.003236023709177971
1699665529876820000,3.617820068359375,0.033850669860839844,0.004339814186096191,-0.002030409872531891
1699665529886647000,3.62764697265625,0.03503608703613281,0.0008181333541870117,0.0003213416785001755
1699665529896650000,3.63764990234375,0.018283843994140625,-0.00042700767517089844,0.003865588456392288
1699665529906696000,3.647696044921875,0.02545642852783203,0.0068242549896240234,-0.001035444438457489
1699665529916639000,3.657638916015625,0.030234336853027344,0.0009039640426635742,0.006165463477373123
1699665529926735000,3.667735107421875,0.024247169494628906,0.00570070743560791,0.00969630479812622
1699665529936424000,3.677423828125,0.02663898468017578,0.0009272098541259766,0.009683957323431969
1699665529946446000,3.687446044921875,0.012262344360351562,0.0009940862655639648,0.0036577899008989334
1699665529956849000,3.697848876953125,0.017043113708496094,-0.007340431213378906,0.006047207862138748
1699665529966581000,3.7075810546875,0.03379535675048828,-0.008489251136779785,0.0012833178043365479
1699665529976505000,3.717505126953125,0.038567543029785156,-0.0024024248123168945,0.009583821520209312
1699665529986398000,3.72739794921875,0.04094982147216797,0.004846096038818359,0.0071494318544864655
1699665529996534000,3.737533935546875,0.025377273559570312,0.00012373924255371094,-0.00006382167339324951
1699665530006417000,3.7474169921875,0.025376319885253906,0.007313728332519531,0.005890665575861931
1699665530016425000,3.757425048828125,0.018201828002929688,0.003670334815979004,0.0047120507806539536
1699665530026527000,3.76752685546875,0.03016948699951172,0.013271808624267578,0.015415012836456299
1699665530036390000,3.777389892578125,0.020590782165527344,0.008491158485412598,0.008251551538705826
1699665530046730000,3.78772998046875,0.027774810791015625,0.01087653636932373,0.008238216862082481
1699665530056640000,3.797639892578125,0.018209457397460938,0.009607791900634766,0.008172165602445602
1699665530066614000,3.807614013671875,0.01820850372314453,0.00602412223815918,0.008180823177099228
1699665530076601000,3.81760107421875,0.03016948699951172,0.00728762149810791,0.009337371215224266
1699665530086559000,3.82755908203125,0.028961181640625,0.006158351898193359,0.003310583531856537
1699665530096798000,3.8377978515625,0.025368690490722656,0.00018036365509033203,0.0009345412254333496
1699665530106792000,3.8477919921875,0.026554107666015625,-0.0009493827819824219,0.0009433459490537643
1699665530116588000,3.857588134765625,0.016976356506347656,0.00025582313537597656,0.0009639132767915726
1699665530126644000,3.86764404296875,0.03133201599121094,-0.008067965507507324,-0.0049764737486839294
1699665530136584000,3.877583984375,0.04209613800048828,-0.0068122148513793945,-0.0014194753021001816
1699665530146610000,3.88760986328125,0.03491497039794922,-0.006816387176513672,0.008038235828280449
1699665530157081000,3.8980810546875,0.03012561798095703,-0.0020203590393066406,0.006869921460747719
1699665530166742000,3.907741943359375,0.0277252197265625,-0.003183603286743164,0.009250534698367119
1699665530177344000,3.918343994140625,0.033710479736328125,0.002808809280395508,0.008071482181549072
1699665530186617000,3.9276171875,0.021753311157226562,0.014691352844238281,0.0020882412791252136
1699665530196774000,3.93777392578125,0.01815032958984375,0.007575392723083496,-0.006332270801067352
1699665530206634000,3.947634033203125,0.01813983917236328,0.010035157203674316,0.003204602748155594
1699665530216640000,3.957639892578125,0.01812267303466797,-0.007815837860107422,0.005547696724534035
1699665530226807000,3.96780712890625,0.019324302673339844,0.011316299438476562,0.010328501462936401
1699665530236624000,3.977623779296875,0.027710914611816406,0.0028907060623168945,0.010266980156302452
1699665530246780000,3.98777978515625,0.02890777587890625,0.011277914047241211,0.0030445531010627747
1699665530256648000,3.99764794921875,0.03129768371582031,0.0005260705947875977,0.010222703218460083
1699665530266686000,4.00768603515625,0.024114608764648438,0.004124641418457031,0.008994769304990768
1699665530276786000,4.017785888671875,0.04086112976074219,0.004196286201477051,0.011317148804664612
1699665530286621000,4.027620849609375,0.03725910186767578,0.0030677318572998047,0.004143493250012398
1699665530296973000,4.03797314453125,0.039641380310058594,0.003144979476928711,0.011298956349492073
1699665530307013000,4.04801318359375,0.0348358154296875,-0.005132436752319336,-0.001844095066189766
1699665530316792000,4.0577919921875,0.02765178680419922,0.006846070289611816,-0.004278920590877533
1699665530326773000,4.06777294921875,0.027650833129882812,-0.005117654800415039,-0.0007281322032213211
1699665530336635000,4.077634765625,0.022859573364257812,-0.002708911895751953,0.000501338392496109
1699665530346696000,4.087696044921875,0.03483867645263672,0.00682222843170166,0.004055814817547798
1699665530356544000,4.0975439453125,0.024082183837890625,0.004323363304138184,0.011159949004650116
1699665530366672000,4.107671875,0.028885841369628906,0.0006393194198608398,0.009843457490205765
1699665530376688000,4.117688232421875,0.02171611785888672,0.011338591575622559,0.010970674455165863
1699665530386636000,4.127635986328125,0.021730422973632812,0.014841914176940918,0.007373524829745293
1699665530397069000,4.138069091796875,0.01694965362548828,0.002826213836669922,0.0049332547932863235
1699665530406765000,4.14776513671875,0.018144607543945312,0.0064318180084228516,0.007282668724656105
1699665530416839000,4.1578388671875,0.025330543518066406,0.01359260082244873,0.012104608118534088
1699665530427012000,4.16801220703125,0.03130340576171875,0.008878111839294434,0.006142556667327881
1699665530436605000,4.17760498046875,0.032497406005859375,0.004110455513000488,0.01679733209311962
1699665530446790000,4.187789794921875,0.037283897399902344,0.006519436836242676,0.0072438716888427734
1699665530457013000,4.198012939453125,0.033690452575683594,-0.004239916801452637,-0.0011130385100841522
1699665530466677000,4.207677001953125,0.048048973083496094,-0.0006035566329956055,-0.005905315279960632
1699665530476843000,4.217843017578125,0.06239604949951172,-0.006482601165771484,-0.012969298288226128
1699665530486662000,4.227661865234375,0.057608604431152344,-0.0005061626434326172,-0.010524317622184753
1699665530496702000,4.237701904296875,0.03486061096191406,-0.000491023063659668,-0.004584295675158501
1699665530506677000,4.247677001953125,0.020493507385253906,-0.004067420959472656,-0.0046295225620269775
1699665530516708000,4.2577080078125,0.010913848876953125,-0.00046062469482421875,0.00018313899636268616
1699665530526664000,4.267663818359375,0.0073108673095703125,0.005594849586486816,0.0073878467082977295
1699665530536858000,4.277858154296875,0.0049304962158203125,0.007910490036010742,0.015605567023158073
1699665530546777000,4.287777099609375,0.010919570922851562,0.00789034366607666,0.020229462534189224
1699665530556650000,4.29764990234375,0.024102210998535156,0.01379537582397461,0.010577546432614326
1699665530566774000,4.30777392578125,0.03606986999511719,0.005433082580566406,0.016450418159365654
1699665530576781000,4.317781005859375,0.03367042541503906,-0.005306601524353027,0.0008603427559137344
1699665530586620000,4.327619873046875,0.033667564392089844,0.003087282180786133,0.005680602043867111
1699665530597102000,4.33810205078125,0.03365516662597656,0.0043582916259765625,-0.0038631409406661987
1699665530606577000,4.347576904296875,0.0288543701171875,0.0020394325256347656,-0.00376841239631176
1699665530616783000,4.357783203125,0.027673721313476562,0.00552821159362793,0.0033787209540605545
1699665530626787000,4.367787109375,0.02767467498779297,0.013901114463806152,0.0081013273447752
1699665530636666000,4.377666015625,0.03606414794921875,0.02102804183959961,0.012783383950591087
1699665530646684000,4.387683837890625,0.038471221923828125,0.013773798942565918,0.007920563220977783
1699665530659429000,4.40042919921875,0.027713775634765625,0.001699209213256836,0.00435282476246357
1699665530676680000,4.417679931640625,0.0277099609375,-0.0030698776245117188,0.00438321940600872
1699665530686735000,4.427735107421875,0.016916275024414062,-0.001749277114868164,0.0021267812699079514
1699665530696718000,4.437718017578125,0.012134552001953125,0.0006003379821777344,0.00216006301343441
1699665530707682000,4.44868212890625,0.013331413269042969,0.01855325698852539,-0.002522796392440796
1699665530717555000,4.458554931640625,0.0061588287353515625,0.02447819709777832,0.0010875016450881958
1699665530726653000,4.46765283203125,0.025310516357421875,0.018511533737182617,0.00820840522646904
1699665530736604000,4.47760400390625,0.016945838928222656,0.014828681945800781,0.009389100596308708
1699665530746875000,4.487875,0.06602096557617188,-0.0030956268310546875,0.015313269570469856
1699665530756609000,4.497609130859375,0.03129768371582031,-0.0054367780685424805,0.011634031310677528
1699665530766666000,4.507666015625,0.04560279846191406,-0.03021526336669922,0.005660435184836388
1699665530776735000,4.51773486328125,0.05994224548339844,-0.013298869132995605,0.0009519308805465698
1699665530786702000,4.5277021484375,0.07663249969482422,-0.0224609375,-0.02370619960129261
1699665530796948000,4.537947998046875,0.057473182678222656,0.0062988996505737305,-0.017615627497434616
1699665530806630000,4.5476298828125,0.06347370147705078,0.01817190647125244,-0.025737082585692406
1699665530816729000,4.55772900390625,0.03594398498535156,0.01575016975402832,-0.013625424355268478
1699665530826874000,4.5678740234375,0.06347274780273438,-0.0057675838470458984,-0.004014642909169197
1699665530836605000,4.57760498046875,0.03714275360107422,0.00017511844635009766,-0.006386047229170799
1699665530846816000,4.58781591796875,0.044333457946777344,-0.0010672807693481445,-0.001715097576379776
1699665530856767000,4.59776708984375,0.043129920959472656,-0.0022145509719848633,0.011299101635813713
1699665530866718000,4.607718017578125,0.028766632080078125,0.00017023086547851562,0.027734357863664627
1699665530876749000,4.6177490234375,0.013203620910644531,0.002576589584350586,0.03565744683146477
1699665530886602000,4.62760205078125,0.022821426391601562,0.013112664222717285,0.05154818296432495
1699665530897104000,4.638103759765625,0.012067794799804688,0.004639387130737305,0.059918537735939026
1699665530906638000,4.64763818359375,-0.008265495300292969,0.004556536674499512,0.061190199106931686
1699665530916636000,4.657635986328125,-0.008259773254394531,0.002162933349609375,0.0739174634218216
1699665530926698000,4.667697998046875,-0.02260112762451172,0.002057194709777832,0.07351543009281158
1699665530936593000,4.677593017578125,-0.018987655639648438,0.007926702499389648,0.05936850234866142
1699665530946978000,4.68797802734375,-0.05486869812011719,0.017313718795776367,0.014938153326511383
1699665530956842000,4.697842041015625,-0.06909656524658203,0.04401445388793945,0.014925293624401093
1699665530966709000,4.707708984375,-0.06261062622070312,0.07439136505126953,-0.11080175638198853
1699665530976718000,4.717718017578125,0.011201858520507812,0.10302519798278809,-0.1267363280057907
1699665530986599000,4.727598876953125,0.06923580169677734,0.09949254989624023,-0.12241371721029282
1699665530996765000,4.737764892578125,0.12202930450439453,0.0532374382019043,-0.096897654235363
1699665531006880000,4.7478798828125,0.13037586212158203,0.013917922973632812,-0.05426464229822159
1699665531016952000,4.7579521484375,0.12428665161132812,-0.020172595977783203,-0.040544118732213974
1699665531026705000,4.767704833984375,0.11926555633544922,-0.04870617389678955,-0.021162796765565872
1699665531036511000,4.777510986328125,0.09868049621582031,-0.05327010154724121,0.0143250972032547
1699665531047156000,4.788156005859375,0.08157062530517578,-0.06311309337615967,0.04751425236463547
1699665531056453000,4.797453125,0.058503150939941406,-0.05993211269378662,0.07395031303167343
1699665531066438000,4.80743798828125,0.027037620544433594,-0.05543363094329834,0.0966559574007988
1699665531076573000,4.817572998046875,0.014822959899902344,-0.047928452491760254,0.08206260204315186
1699665531086656000,4.827656005859375,-0.011655807495117188,-0.04225325584411621,0.06385909020900726
1699665531096662000,4.837662109375,-0.022500991821289062,-0.031024456024169922,0.05096767842769623
1699665531106914000,4.8479140625,-0.02135753631591797,-0.02470707893371582,0.04788008704781532
1699665531116652000,4.857652099609375,-0.032146453857421875,-0.011421442031860352,0.061227425932884216
1699665531126664000,4.867663818359375,-0.020154953002929688,0.0016311407089233398,0.05097611993551254
1699665531136608000,4.87760791015625,0.007381439208984375,0.0063991546630859375,0.023361623287200928
1699665531147433000,4.888432861328125,0.03610992431640625,0.011202812194824219,0.004292108118534088
1699665531157848000,4.89884814453125,0.06125068664550781,0.015969514846801758,-0.02182908169925213
1699665531166695000,4.90769482421875,0.06367301940917969,0.018192172050476074,-0.03344038873910904
1699665531176646000,4.91764599609375,0.05292320251464844,0.020433425903320312,-0.033048611134290695
1699665531186710000,4.9277099609375,0.05774497985839844,0.020223140716552734,-0.036238785833120346
1699665531196665000,4.9376650390625,0.05058479309082031,0.03325009346008301,-0.02165639027953148
1699665531206623000,4.947623046875,0.033867835998535156,0.0329890251159668,-0.022589944303035736
1699665531216609000,4.957609130859375,0.02909088134765625,0.025734663009643555,-0.014075104147195816
1699665531226609000,4.96760888671875,0.024306297302246094,0.014939427375793457,-0.009292254224419594
1699665531236774000,4.97777392578125,-0.010412216186523438,0.012560248374938965,0.0002673100680112839
1699665531247374000,4.9883740234375,0.018320083618164062,0.02092766761779785,0.002622930333018303
1699665531256776000,4.99777587890625,0.020697593688964844,-0.0017096996307373047,0.02398267760872841
1699665531266647000,5.00764697265625,0.03141212463378906,-0.025287389755249023,0.028344379737973213
1699665531277501000,5.0185009765625,0.041985511779785156,-0.04320180416107178,0.05336301401257515
1699665531286681000,5.02768115234375,0.048870086669921875,-0.06169760227203369,0.06927613914012909
1699665531296742000,5.037741943359375,0.06057453155517578,-0.057665467262268066,0.044307891279459
1699665531306678000,5.047677978515625,0.0592803955078125,-0.030729055404663086,0.02484433725476265
1699665531316779000,5.057779052734375,0.04848670959472656,-0.011454224586486816,0.006875988095998764
1699665531326653000,5.06765283203125,0.037711143493652344,0.01369929313659668,-0.0014813616871833801
1699665531336816000,5.077816162109375,0.013814926147460938,0.02777731418609619,-0.022713281214237213
1699665531347012000,5.08801220703125,0.021093368530273438,0.03675699234008789,-0.03878653421998024
1699665531356634000,5.097634033203125,-0.0027456283569335938,0.03371727466583252,-0.047563716769218445
1699665531366630000,5.1076298828125,0.015269279479980469,0.027370691299438477,-0.03634900599718094
1699665531377118000,5.118117919921875,0.009333610534667969,0.02706003189086914,-0.02547653391957283
1699665531386682000,5.12768212890625,0.03808879852294922,0.025721073150634766,-0.00400240533053875
1699665531396979000,5.13797900390625,0.029720306396484375,0.01966536045074463,0.015027545392513275
1699665531406936000,5.14793603515625,0.06085681915283203,0.0148085355758667,0.019617579877376556
1699665531417141000,5.15814111328125,0.01299285888671875,0.018282055854797363,0.009958717972040176
1699665531426661000,5.1676611328125,0.030945777893066406,0.003932476043701172,0.00279032438993454
1699665531436758000,5.177758056640625,0.021347999572753906,0.010044574737548828,-0.0007786564528942108
1699665531446651000,5.18765087890625,0.028519630432128906,0.006528258323669434,0.00038227811455726624
1699665531456752000,5.197752197265625,-0.0002231597900390625,-0.0005810260772705078,0.008804690092802048
1699665531466721000,5.207720947265625,0.032085418701171875,0.00547945499420166,0.007561706006526947
1699665531476907000,5.217906982421875,0.03207206726074219,0.003172636032104492,0.017026793211698532
1699665531486779000,5.22777880859375,0.04881095886230469,0.008086681365966797,0.022836249321699142
1699665531496933000,5.23793310546875,0.038023948669433594,-0.008585691452026367,0.0072024427354335785
1699665531506667000,5.2476669921875,0.03800201416015625,-0.008447766304016113,0.02604088932275772
1699665531516631000,5.257631103515625,0.029618263244628906,0.0035457611083984375,0.021162688732147217
1699665531526890000,5.267889892578125,0.015255928039550781,-0.006045222282409668,0.00919109582901001
1699665531537239000,5.278239013671875,0.04398345947265625,0.007136821746826172,-0.0039443522691726685
1699665531547438000,5.28843798828125,0.04157829284667969,0.009595036506652832,-0.019350633025169373
1699665531557030000,5.29802978515625,0.05951118469238281,0.001353621482849121,-0.02865637093782425
1699665531566538000,5.3075380859375,0.04512310028076172,-0.015270590782165527,-0.021334610879421234
1699665531576444000,5.31744384765625,0.036731719970703125,-0.006827354431152344,-0.02588522434234619
1699665531586899000,5.32789892578125,0.0104217529296875,-0.0021942853927612305,-0.01607292704284191
1699665531597117000,5.338116943359375,0.003238677978515625,0.021747708320617676,-0.01846712827682495
1699665531606786000,5.3477861328125,0.0032682418823242188,0.021564722061157227,-0.006570354104042053
1699665531616611000,5.357611083984375,0.03799152374267578,0.016739487648010254,0.015981923788785934
1699665531626735000,5.367735107421875,0.017714500427246094,0.03425562381744385,0.031035151332616806
1699665531636687000,5.37768701171875,0.035696983337402344,0.02572488784790039,0.022431138902902603
1699665531646995000,5.387994873046875,0.060814857482910156,0.016277790069580078,0.004574175924062729
1699665531659613000,5.400613037109375,0.018894195556640625,0.003245711326599121,0.0033505894243717194
1699665531677599000,5.418598876953125,0.03680133819580078,-0.008435368537902832,-0.00026193633675575256
1699665531686525000,5.42752490234375,0.029596328735351562,-0.003508925437927246,0.005837839096784592
1699665531696436000,5.43743603515625,0.03557109832763672,0.0001499652862548828,0.0046621449291706085
1699665531706468000,5.447468017578125,0.03796958923339844,0.0013278722763061523,0.016557861119508743
1699665531716691000,5.45769091796875,0.053531646728515625,0.01210033893585205,0.016498606652021408
1699665531726616000,5.467615966796875,0.030803680419921875,0.008404850959777832,-0.00023713335394859314
1699665531736808000,5.477807861328125,0.029613494873046875,0.003573179244995117,-0.007347803562879562
1699665531746620000,5.487619873046875,0.02363872528076172,0.019069552421569824,-0.009664449840784073
1699665531756674000,5.497674072265625,0.02483844757080078,0.011865496635437012,-0.014352094382047653
1699665531766748000,5.507747802734375,0.03920269012451172,0.008280754089355469,-0.02019873820245266
1699665531777032000,5.518031982421875,0.03679656982421875,0.007147073745727539,-0.0140647292137146
1699665531786800000,5.527800048828125,0.03679370880126953,0.004767775535583496,-0.004464397206902504
1699665531797051000,5.53805078125,0.05115318298339844,0.0012170076370239258,-0.012891227379441261
1699665531807015000,5.548014892578125,0.04755973815917969,-0.0011627674102783203,0.0026946067810058594
1699665531816759000,5.557759033203125,0.03557872772216797,-0.004697084426879883,0.012245915830135345
1699665531826747000,5.567746826171875,0.02241802215576172,0.002441883087158203,0.008609533309936523
1699665531836808000,5.577807861328125,0.023626327514648438,0.008365869522094727,0.015634026378393173
1699665531847004000,5.58800390625,0.023636817932128906,0.01668870449066162,0.015488699078559875
1699665531856665000,5.5976650390625,0.02604389190673828,0.013015508651733398,0.0143008753657341
1699665531866753000,5.6077529296875,0.03324413299560547,0.026076078414916992,0.007108848541975021
1699665531877020000,5.61802001953125,0.038025856018066406,0.01893472671508789,-0.0011678747832775116
1699665531887057000,5.628056884765625,0.05238151550292969,0.005827069282531738,-0.0070856474339962006
1699665531897005000,5.638005126953125,0.04998016357421875,0.002267599105834961,-0.011864809319376945
1699665531906779000,5.64777880859375,0.04395866394042969,-0.021456360816955566,-0.017708640545606613
1699665531916649000,5.65764892578125,0.04991722106933594,-0.020092368125915527,-0.003409259021282196
1699665531926747000,5.667746826171875,0.06425094604492188,-0.011518239974975586,0.00007770583033561707
1699665531937042000,5.6780419921875,-0.0027942657470703125,-0.009071946144104004,0.014274533838033676
1699665531947077000,5.6880771484375,0.04630565643310547,0.024330973625183105,0.007075019180774689
1699665531956647000,5.69764697265625,0.029592514038085938,0.03482389450073242,0.0022932589054107666
1699665531966534000,5.707533935546875,0.02004718780517578,0.02266860008239746,0.01650061458349228
1699665531976669000,5.7176689453125,-0.0074558258056640625,0.02606964111328125,0.0033311545848846436
1699665531986616000,5.727615966796875,-0.0014743804931640625,0.01412200927734375,0.004544619470834732
1699665531996438000,5.73743798828125,0.0021343231201171875,0.014021992683410645,-0.0038984306156635284
1699665532006602000,5.74760205078125,0.022472381591796875,-0.00026667118072509766,-0.006319448351860046
1699665532016443000,5.75744287109375,0.028455734252929688,0.0045359134674072266,-0.0003589317202568054
1699665532026484000,5.76748388671875,0.04880332946777344,0.014127969741821289,-0.0014476440846920013
1699665532036943000,5.777943115234375,0.035633087158203125,-0.0026175975799560547,-0.0026690736413002014
1699665532046502000,5.787501953125,0.053577423095703125,0.005839109420776367,0.002092331647872925
1699665532056927000,5.797927001953125,0.03920936584472656,-0.00731205940246582,0.008074257522821426
1699665532066551000,5.807551025390625,0.04040813446044922,-0.007321000099182129,0.0008685998618602753
1699665532076681000,5.817680908203125,0.03320598602294922,-0.007208347320556641,-0.0027318373322486877
1699665532087126000,5.8281259765625,0.051138877868652344,-0.005865693092346191,-0.009911850094795227
1699665532096685000,5.83768505859375,0.037941932678222656,-0.004492521286010742,-0.011089295148849487
1699665532106560000,5.84756005859375,0.03554534912109375,0.006294965744018555,-0.0075713470578193665
1699665532116735000,5.85773486328125,0.025976181030273438,-0.004523038864135742,-0.00041811540722846985
1699665532126785000,5.867784912109375,0.023601531982421875,0.0061370134353637695,0.0055240243673324585
1699665532136761000,5.877760986328125,0.017650604248046875,0.025075674057006836,0.017337538301944733
1699665532146716000,5.8877158203125,0.010491371154785156,0.02254939079284668,0.014797646552324295
1699665532156599000,5.89759912109375,0.015302658081054688,0.020018696784973145,0.00760466605424881
1699665532166611000,5.90761083984375,0.02368927001953125,0.017580389976501465,0.00760258361697197
1699665532176940000,5.91793994140625,0.021300315856933594,0.023532867431640625,0.0028271153569221497
1699665532187744000,5.928743896484375,0.02608203887939453,0.016385555267333984,-0.0019152238965034485
1699665532196590000,5.937590087890625,0.035655975341796875,0.012810230255126953,0.0052355267107486725
1699665532206669000,5.9476689453125,0.03925514221191406,0.01396322250366211,-0.004370726644992828
1699665532216604000,5.95760400390625,0.04520893096923828,-0.0061953067779541016,-0.0031393207609653473
1699665532226836000,5.9678359375,0.043984413146972656,-0.014403343200683594,0.012361541390419006
1699665532236651000,5.977651123046875,0.037962913513183594,-0.014184713363647461,-0.015100646764039993
1699665532246875000,5.987875,0.03913593292236328,-0.01045215129852295,0.0040614791214466095
1699665532256641000,5.99764111328125,0.04150581359863281,-0.01030731201171875,-0.019705548882484436
1699665532266856000,6.00785595703125,0.03911018371582031,-0.0031110048294067383,-0.00053410604596138
1699665532276617000,6.017616943359375,0.040291786193847656,0.0041615962982177734,0.01502067968249321
1699665532286818000,6.027818115234375,0.03788566589355469,0.004235386848449707,0.010172255337238312
1699665532296610000,6.037610107421875,0.027108192443847656,0.0018624067306518555,0.012506101280450821
1699665532306615000,6.047614990234375,0.023514747619628906,-0.0029109716415405273,-0.005470430478453636
1699665532316830000,6.057829833984375,0.00914764404296875,0.0030900239944458008,-0.0043137334287166595
1699665532327813000,6.068813232421875,0.028284072875976562,-0.0027909278869628906,-0.006653394550085068
1699665532336795000,6.077794921875,0.02709197998046875,-0.0016347169876098633,-0.004240669310092926
1699665532346618000,6.0876181640625,0.047451019287109375,0.01627969741821289,-0.0006209798157215118
1699665532356810000,6.09781005859375,0.03069782257080078,0.010249614715576172,-0.004123251885175705
1699665532366807000,6.10780712890625,0.03070545196533203,0.01379692554473877,-0.0017090700566768646
1699665532376620000,6.1176201171875,0.02952098846435547,0.02329552173614502,0.0018338263034820557
1699665532386446000,6.127446044921875,0.024740219116210938,0.011281013488769531,-0.0018550902605056763
1699665532396621000,6.13762109375,0.023543357849121094,0.008885622024536133,0.008869241923093796
1699665532406672000,6.147671875,0.04149055480957031,0.012534379959106445,0.008886996656656265
1699665532416617000,6.157616943359375,0.03190135955810547,0.007821202278137207,-0.006695479154586792
1699665532426979000,6.16797900390625,0.040268898010253906,0.004304409027099609,0.0053052641451358795
1699665532436530000,6.177530029296875,0.040256500244140625,0.006769657135009766,-0.0018489174544811249
1699665532446661000,6.1876611328125,0.022287368774414062,-0.0015352964401245117,-0.0018089525401592255
1699665532456609000,6.197609130859375,0.02227497100830078,0.006921648979187012,0.005353085696697235
1699665532466767000,6.20776708984375,0.035430908203125,0.001009225845336914,-0.001858636736869812
1699665532476841000,6.217841064453125,0.03183746337890625,0.002220749855041504,0.0029584504663944244
1699665532486649000,6.227649169921875,0.021051406860351562,0.009478211402893066,0.0006539337337017059
1699665532496654000,6.237654052734375,0.03780555725097656,-0.00006651878356933594,-0.010061230510473251
1699665532506642000,6.247641845703125,0.021042823791503906,0.003539443016052246,-0.004036597907543182
1699665532516699000,6.257698974609375,0.03300285339355469,0.006006717681884766,0.0019782036542892456
1699665532526820000,6.267820068359375,0.038985252380371094,0.013204455375671387,0.0007513649761676788
1699665532536652000,6.277652099609375,0.04378032684326172,0.009567856788635254,-0.0028097257018089294
1699665532546702000,6.2877021484375,0.03179740905761719,0.013230204582214355,-0.0016223415732383728
1699665532557086000,6.2980859375,0.03419971466064453,0.008397817611694336,-0.006440117955207825
1699665532566805000,6.307804931640625,0.029443740844726562,0.022566914558410645,0.005537576973438263
1699665532576478000,6.31747802734375,0.023462295532226562,0.016563057899475098,0.0019240975379943848
1699665532586651000,6.32765087890625,0.02106475830078125,0.01777505874633789,0.0030790790915489197
1699665532596765000,6.337764892578125,0.029433250427246094,0.005875945091247559,0.011461853981018066
1699665532606760000,6.347760009765625,0.036591529846191406,0.008412003517150879,0.0043212249875068665
1699665532616822000,6.357822021484375,0.02341747283935547,0.010846614837646484,0.011427365243434906
1699665532626784000,6.367783935546875,0.040154457092285156,-0.008170127868652344,0.0006825029850006104
1699665532636624000,6.377623779296875,0.02099323272705078,-0.0033348798751831055,0.01736636459827423
1699665532646642000,6.387641845703125,0.03415870666503906,0.006256222724914551,-0.002945736050605774
1699665532658991000,6.3999912109375,0.03178119659423828,0.006151556968688965,0.0030698366463184357
1699665532676706000,6.4177060546875,0.040169715881347656,-0.0010846853256225586,0.0031173676252365112
1699665532686682000,6.42768212890625,0.03178691864013672,0.006117582321166992,-0.001645103096961975
1699665532696650000,6.43764990234375,0.04616260528564453,0.006052136421203613,0.00796140730381012
1699665532707340000,6.448340087890625,0.03778076171875,0.002475738525390625,-0.008768012747168541
1699665532717028000,6.458028076171875,0.030594825744628906,0.0012947320938110352,-0.0027399100363254547
1699665532726659000,6.4676591796875,0.022212982177734375,0.010884761810302734,-0.005098162218928337
1699665532736618000,6.477617919921875,0.038969993591308594,0.008505105972290039,0.004507541656494141
1699665532746666000,6.487666015625,0.01863384246826172,0.015604496002197266,0.0020234324038028717
1699665532756604000,6.49760400390625,0.024626731872558594,0.017954707145690918,0.0019960328936576843
1699665532766659000,6.5076591796875,0.029402732849121094,0.0012687444686889648,0.005558144301176071
1699665532776743000,6.517742919921875,0.03776073455810547,0.013371109962463379,0.0019863881170749664
1699665532786624000,6.5276240234375,0.025793075561523438,0.014547586441040039,-0.0004458427429199219
1699665532796715000,6.537715087890625,0.0293731689453125,0.0014524459838867188,0.009160116314888
1699665532806719000,6.547718994140625,0.04013347625732422,0.009906649589538574,-0.0003867708146572113
1699665532816636000,6.557635986328125,0.04012107849121094,0.005191445350646973,-0.00035743415355682373
1699665532826720000,6.567719970703125,0.032937049865722656,0.008797645568847656,-0.0027221553027629852
1699665532836689000,6.57768896484375,0.026927947998046875,0.004143476486206055,-0.013360744342207909
1699665532846730000,6.58772998046875,0.041291236877441406,0.008947610855102539,-0.00255575031042099
1699665532856666000,6.597666015625,0.03530311584472656,0.0077648162841796875,-0.0001897476613521576
1699665532866664000,6.607663818359375,0.03770637512207031,0.010103464126586914,-0.010962050408124924
1699665532876838000,6.617837890625,0.026935577392578125,0.013677477836608887,0.006950259208679199
1699665532886868000,6.627867919921875,0.04490375518798828,0.015999197959899902,-0.00742708146572113
1699665532896442000,6.637442138671875,0.004200935363769531,0.013621807098388672,0.012884140014648438
1699665532906690000,6.64768994140625,0.018543243408203125,0.010165572166442871,0.0022002123296260834
1699665532916542000,6.6575419921875,0.05682945251464844,0.013883829116821289,-0.002616211771965027
1699665532926444000,6.667444091796875,0.07358551025390625,0.004323124885559082,0.004524674266576767
1699665532936877000,6.677876953125,0.04721832275390625,-0.008647441864013672,0.0020288005471229553
1699665532946536000,6.687535888671875,0.016069412231445312,-0.01688408851623535,0.01511497050523758
1699665532956565000,6.69756494140625,0.07231426239013672,-0.008383631706237793,-0.006426345556974411
1699665532966536000,6.707535888671875,0.017244338989257812,0.004800200462341309,-0.006447680294513702
1699665532976582000,6.717581787109375,0.05558300018310547,0.032142043113708496,-0.0028082989156246185
1699665532986602000,6.72760205078125,-0.015007972717285156,0.02713024616241455,0.004416026175022125
1699665532996717000,6.737717041015625,0.01853179931640625,0.019817233085632324,0.0008409805595874786
1699665533006602000,6.74760205078125,0.017377853393554688,0.03511524200439453,0.0031230635941028595
1699665533016609000,6.757609130859375,0.004233360290527344,0.02420353889465332,0.0006481967866420746
1699665533027365000,6.768365234375,-0.0041408538818359375,0.01459348201751709,0.016067374497652054
1699665533036572000,6.777572021484375,0.023395538330078125,-0.00457608699798584,0.014854710549116135
1699665533046734000,6.787734130859375,-0.01730060577392578,-0.0022215843200683594,0.010064557194709778
1699665533056541000,6.797541015625,0.07366561889648438,0.007441520690917969,-0.0102277472615242
1699665533066579000,6.807578857421875,0.05808544158935547,0.005149960517883301,-0.017289062961935997
1699665533076737000,6.817737060546875,0.08920001983642578,0.0064040422439575195,-0.016025690361857414
1699665533086772000,6.82777197265625,0.05087566375732422,-0.0018682479858398438,0.004381284117698669
1699665533097095000,6.838094970703125,0.054398536682128906,-0.02778327465057373,0.024386875331401825
1699665533106627000,6.847626953125,0.02321624755859375,-0.028617382049560547,0.022906865924596786
1699665533116804000,6.85780419921875,0.0028476715087890625,-0.011750102043151855,0.025075223296880722
1699665533126821000,6.867821044921875,0.06269359588623047,-0.0009196996688842773,0.008305143564939499
1699665533136779000,6.877779052734375,-0.0007352828979492188,0.02052450180053711,-0.0024214573204517365
1699665533146661000,6.8876611328125,0.013640403747558594,0.013273477554321289,-0.002379588782787323
1699665533156773000,6.897773193359375,0.014882087707519531,0.029758691787719727,-0.013009922578930855
1699665533166641000,6.907640869140625,0.03285980224609375,0.02244865894317627,0.00494801253080368
1699665533176799000,6.917799072265625,0.0077686309814453125,0.02574014663696289,-0.014190582558512688
1699665533186581000,6.9275810546875,0.002986907958984375,0.011342048645019531,0.008488427847623825
1699665533196635000,6.937634765625,0.04607105255126953,0.019791603088378906,0.008426282554864883
1699665533206632000,6.9476318359375,-0.020946502685546875,0.023259282112121582,0.009518537670373917
1699665533216799000,6.957799072265625,0.024654388427734375,0.054911017417907715,0.008231602609157562
1699665533226606000,6.967606201171875,0.059478759765625,0.061437010765075684,0.008197516202926636
1699665533237127000,6.978126953125,0.025945663452148438,0.012443780899047852,0.011757951229810715
1699665533246565000,6.987565185546875,0.02111530303955078,-0.010050535202026367,-0.008526932448148727
1699665533256551000,6.997551025390625,0.05573749542236328,-0.031032204627990723,-0.002482868731021881
1699665533266769000,7.007768798828125,0.07958126068115234,-0.028045177459716797,-0.020135536789894104
1699665533276710000,7.0177099609375,0.11176681518554688,-0.03320574760437012,-0.022163208574056625
1699665533286615000,7.027614990234375,0.08528995513916016,-0.03715169429779053,-0.03815039247274399
1699665533296809000,7.03780908203125,0.08168315887451172,-0.0035434961318969727,-0.022435374557971954
1699665533306836000,7.0478359375,0.04340648651123047,0.013033032417297363,-0.009345408529043198
1699665533316710000,7.0577099609375,0.018262863159179688,-0.012076497077941895,0.012096460908651352
1699665533326519000,7.06751904296875,-0.07270145416259766,-0.007371783256530762,0.03680441901087761
1699665533336671000,7.0776708984375,-0.027019500732421875,0.0620805025100708,-0.006201375275850296
1699665533346710000,7.0877099609375,-0.056761741638183594,0.050203919410705566,0.04083820804953575
1699665533356613000,7.097613037109375,-0.03271675109863281,0.049576640129089355,0.00006539374589920044
1699665533366488000,7.107488037109375,-0.04228496551513672,0.019594788551330566,0.00005395710468292236
1699665533376519000,7.117518798828125,0.04985523223876953,0.004256606101989746,0.025121986865997314
1699665533386733000,7.127733154296875,0.09645271301269531,-0.025125622749328613,-0.010754875838756561
1699665533396830000,7.137829833984375,0.048485755920410156,-0.028219223022460938,-0.004699300974607468
1699665533406828000,7.147828125,0.20047950744628906,-0.0016481876373291016,-0.008196603506803513
1699665533416757000,7.157757080078125,0.05668163299560547,-0.04624509811401367,0.010794658213853836
1699665533427229000,7.16822900390625,0.07689666748046875,-0.04302239418029785,0.016568563878536224
1699665533436826000,7.177826171875,0.0708780288696289,-0.004510045051574707,0.003397934138774872
1699665533446674000,7.187673828125,0.05053234100341797,0.005028247833251953,-0.009721366688609123
1699665533456768000,7.19776806640625,0.03624916076660156,0.03803145885467529,-0.04489128291606903
1699665533466652000,7.20765185546875,-0.0342864990234375,0.03385913372039795,-0.03936247527599335
1699665533476700000,7.217699951171875,-0.011495590209960938,0.022791624069213867,-0.038896165788173676
1699665533486847000,7.227846923828125,-0.0006647109985351562,0.0236361026763916,-0.039534248411655426
1699665533496527000,7.237527099609375,-0.05690574645996094,-0.0004506111145019531,-0.017911795526742935
1699665533506554000,7.24755419921875,-0.023372650146484375,0.005450129508972168,-0.011968342587351799
1699665533516510000,7.257510009765625,-0.028176307678222656,-0.00043010711669921875,0.022462189197540283
1699665533526539000,7.2675390625,0.004169464111328125,0.016193270683288574,0.045609764754772186
1699665533536447000,7.277447021484375,0.03657054901123047,0.028908967971801758,0.06802760064601898
1699665533546514000,7.287513916015625,0.06660175323486328,0.03790783882141113,0.08154551684856415
1699665533556746000,7.29774609375,0.04873371124267578,0.032631754875183105,0.08179741352796555
1699665533566551000,7.307551025390625,0.047565460205078125,0.025279760360717773,0.03601484373211861
1699665533577204000,7.318203857421875,0.06790447235107422,0.007392168045043945,-0.002209492027759552
1699665533587077000,7.3280771484375,0.04871559143066406,-0.01155543327331543,-0.016372237354516983
1699665533596701000,7.337700927734375,0.08216571807861328,-0.015932440757751465,-0.03266417980194092
1699665533606578000,7.347577880859375,0.034214019775390625,-0.026307106018066406,-0.027438335120677948
1699665533616662000,7.357662109375,0.06286811828613281,-0.02345407009124756,-0.02354494482278824
1699665533626610000,7.36760986328125,0.05802726745605469,-0.018356919288635254,-0.024454934522509575
1699665533636580000,7.377580078125,0.008938789367675781,-0.015915393829345703,-0.01000971719622612
1699665533646798000,7.387798095703125,0.02206134796142578,-0.012062668800354004,-0.03824051842093468
1699665533656800000,7.397800048828125,-0.01982402801513672,0.007016301155090332,-0.007113412022590637
1699665533668332000,7.40933203125,-0.00785064697265625,0.01297461986541748,-0.018954621627926826
1699665533676767000,7.41776708984375,0.010129928588867188,0.020017266273498535,-0.014101114124059677
1699665533686784000,7.427783935546875,0.018526077270507812,0.016326427459716797,-0.010541267693042755
1699665533696475000,7.437474853515625,0.016144752502441406,0.021034717559814453,-0.00337272509932518
1699665533706837000,7.4478369140625,0.020956993103027344,0.019695162773132324,0.013212021440267563
1699665533716447000,7.457447021484375,0.035355567932128906,0.025483369827270508,0.022520791739225388
1699665533726554000,7.46755419921875,0.048554420471191406,0.030098438262939453,0.03289828076958656
1699665533736475000,7.477474853515625,0.025862693786621094,0.028583407402038574,0.0302019901573658
1699665533746463000,7.487462890625,0.02347278594970703,0.017792820930480957,0.029893070459365845
1699665533756551000,7.497551025390625,0.04500770568847656,0.011878490447998047,0.0059795863926410675
1699665533766512000,7.50751220703125,0.04141426086425781,0.0023169517517089844,0.005958765745162964
1699665533776499000,7.5174990234375,0.04738330841064453,0.002415776252746582,-0.017816664651036263
1699665533786648000,7.52764794921875,0.02101898193359375,-0.0022122859954833984,-0.01882156729698181
1699665533796641000,7.53764111328125,0.022211074829101562,0.0014081001281738281,-0.023425444960594177
1699665533806483000,7.54748291015625,-0.0065250396728515625,-0.00216066837310791,-0.026720430701971054
1699665533816815000,7.557815185546875,-0.0053348541259765625,-0.012885332107543945,-0.02416427992284298
1699665533826865000,7.567864990234375,0.025732994079589844,-0.028109073638916016,-0.01446954533457756
1699665533836785000,7.577784912109375,0.030473709106445312,-0.019448041915893555,-0.020237023010849953
1699665533846671000,7.587671142578125,0.04243183135986328,0.012952089309692383,-0.0009789280593395233
1699665533856710000,7.5977099609375,0.049602508544921875,0.016613364219665527,-0.0033449269831180573
1699665533866610000,7.60760986328125,0.0029115676879882812,0.014246702194213867,0.025153949856758118
1699665533876830000,7.617829833984375,0.032860755920410156,0.009334325790405273,0.017845414578914642
1699665533886637000,7.627636962890625,0.04365348815917969,0.0343555212020874,-0.003635067492723465
1699665533896681000,7.637680908203125,0.030483245849609375,0.010428786277770996,-0.003664441406726837
1699665533907119000,7.648119140625,0.05322074890136719,-0.00029850006103515625,-0.00964377075433731
1699665533916602000,7.65760205078125,0.03884315490722656,-0.0074040889739990234,0.010568775236606598
1699665533926584000,7.667583984375,0.05918312072753906,-0.0037479400634765625,0.006892502307891846
1699665533936803000,7.677802978515625,0.035239219665527344,0.003449678421020508,0.008042071014642715
1699665533946699000,7.687698974609375,0.03765296936035156,0.006931304931640625,0.03178637474775314
1699665533956694000,7.697694091796875,0.012516975402832031,0.014088988304138184,0.006537146866321564
1699665533966620000,7.707619873046875,0.0029697418212890625,0.003139495849609375,0.016011260449886322
1699665533976950000,7.717949951171875,-0.014979362487792969,-0.004087090492248535,0.004069879651069641
1699665533986757000,7.727757080078125,0.024538040161132812,0.010201334953308105,-0.016215039417147636
1699665533996648000,7.73764794921875,-0.055619239807128906,0.031449317932128906,-0.005341727286577225
1699665534006767000,7.74776708984375,0.017441749572753906,0.03241229057312012,-0.002940218895673752
1699665534016611000,7.757611083984375,0.009067535400390625,0.013230085372924805,-0.011238675564527512
1699665534026825000,7.767824951171875,0.06767845153808594,-0.016414284706115723,0.0006892606616020203
1699665534036731000,7.77773095703125,0.035325050354003906,-0.01861870288848877,-0.009922076016664505
1699665534046706000,7.787705810546875,0.09756660461425781,0.022123098373413086,-0.02055668644607067
1699665534056659000,7.797658935546875,0.023355484008789062,0.014890432357788086,0.017603497952222824
1699665534066700000,7.807699951171875,0.048468589782714844,-0.004091501235961914,0.0445721335709095
1699665534076760000,7.817760009765625,0.05205345153808594,0.0031325817108154297,0.015863265842199326
1699665534086648000,7.82764794921875,0.04247474670410156,0.003147125244140625,-0.004506882280111313
1699665534096787000,7.837786865234375,-0.012604713439941406,-0.00875866413116455,-0.027024127542972565
1699665534106774000,7.84777392578125,0.03647422790527344,0.006810545921325684,-0.03265395015478134
1699665534116615000,7.857614990234375,0.020920753479003906,0.012733817100524902,-0.028836000710725784
1699665534126734000,7.867734130859375,0.04367351531982422,0.01865983009338379,-0.039115987718105316
1699665534136721000,7.877720947265625,0.025714874267578125,-0.0064650774002075195,-0.017557941377162933
1699665534146740000,7.887739990234375,0.05318260192871094,-0.024025559425354004,-0.014990976080298424
1699665534156787000,7.897786865234375,0.04355335235595703,-0.02609848976135254,-0.004253678023815155
1699665534166626000,7.9076259765625,0.02679157257080078,-0.01052403450012207,-0.004256527870893478
1699665534176793000,7.91779296875,0.02441120147705078,0.009751677513122559,0.0195489339530468
1699665534186659000,7.9276591796875,0.023242950439453125,0.028732776641845703,0.026491697877645493
1699665534196645000,7.93764501953125,0.006557464599609375,0.03786587715148926,0.023764651268720627
1699665534206663000,7.947662841796875,0.005423545837402344,0.03628957271575928,0.01643412560224533
1699665534216684000,7.95768408203125,0.007863044738769531,0.030025124549865723,0.009213525801897049
1699665534226557000,7.967556884765625,0.01745319366455078,0.020368337631225586,0.007953479886054993
1699665534237158000,7.978157958984375,0.018659591674804688,0.016726374626159668,0.007953882217407227
1699665534246804000,7.987803955078125,0.029440879821777344,0.0035130977630615234,0.004402618855237961
1699665534256786000,7.997785888671875,0.03899955749511719,0.000029087066650390625,0.013951331377029419
1699665534266864000,8.007864013671876,0.04615020751953125,-0.006956815719604492,0.012706849724054337
1699665534276921000,8.017921142578125,0.049716949462890625,-0.006808042526245117,0.0019341446459293365
1699665534286749000,8.0277490234375,0.04851055145263672,-0.004358649253845215,0.004335507750511169
1699665534296827000,8.037826904296875,0.055667877197265625,-0.007801175117492676,-0.0004216209053993225
1699665534306755000,8.047755126953126,0.053256988525390625,0.0006830692291259766,-0.01106269657611847
1699665534316900000,8.057900146484375,0.04727458953857422,0.0018590688705444336,-0.01450619101524353
1699665534327244000,8.068244140625,0.02332782745361328,0.0030785799026489258,-0.03323649987578392
1699665534336882000,8.0778818359375,0.005382537841796875,-0.0029829740524291992,-0.027074581012129784
1699665534346702000,8.0877021484375,-0.037703514099121094,0.006531119346618652,-0.022106032818555832
1699665534357067000,8.09806689453125,0.030527114868164062,0.017329692840576172,-0.012513592839241028
1699665534366870000,8.1078701171875,0.014955520629882812,0.01619124412536621,-0.008908919990062714
1699665534376797000,8.117796875,0.036499977111816406,0.0018416643142700195,0.004169762134552002
1699665534386672000,8.127672119140625,0.01853656768798828,0.009072303771972656,0.017282266169786453
1699665534396751000,8.137751220703125,0.023316383361816406,-0.0016415119171142578,0.03017696738243103
1699665534406735000,8.147735107421875,0.0029554367065429688,0.0032073259353637695,0.02287961170077324
1699665534416950000,8.157949951171876,-0.0305328369140625,0.01739370822906494,0.02259371057152748
1699665534427266000,8.16826611328125,0.024567604064941406,0.03155350685119629,-0.0048669129610061646
1699665534436785000,8.177784912109376,0.07485675811767578,0.0338740348815918,-0.014371529221534729
1699665534446932000,8.187931884765625,0.11317157745361328,0.03502535820007324,-0.0011078901588916779
1699665534457184000,8.19818408203125,0.09760475158691406,0.009909629821777344,0.009741056710481644
1699665534467132000,8.2081318359375,0.04610919952392578,-0.012711882591247559,0.007386092096567154
1699665534477599000,8.218598876953125,0.012548446655273438,-0.026819467544555664,0.0074135661125183105
1699665534486672000,8.227671875,-0.009030342102050781,-0.027825236320495605,-0.008190212771296501
1699665534496493000,8.2374931640625,-0.01982879638671875,-0.024086356163024902,-0.014168445020914078
1699665534506564000,8.247564208984375,0.005299568176269531,0.004707455635070801,-0.012954648584127426
1699665534516556000,8.25755615234375,0.012503623962402344,0.029714107513427734,-0.003371264785528183
1699665534526557000,8.267556884765625,0.025686264038085938,0.0212479829788208,0.010919451713562012
1699665534536891000,8.277890869140625,0.023305892944335938,0.013988733291625977,0.009610489010810852
1699665534546575000,8.2875751953125,0.026892662048339844,-0.0015496015548706055,-0.008362242951989174
1699665534556730000,8.297730224609374,0.00534820556640625,-0.009947657585144043,-0.0012062713503837585
1699665534566717000,8.307717041015625,0.029288291931152344,-0.007542252540588379,-0.0083793755620718
1699665534576917000,8.3179169921875,0.047242164611816406,0.002050161361694336,0.0023444779217243195
1699665534586601000,8.32760107421875,0.061600685119628906,-0.0002988576889038086,0.004683881998062134
1699665534597046000,8.3380458984375,0.06159496307373047,0.01889026165008545,0.01302727684378624
1699665534606774000,8.34777392578125,0.05802631378173828,0.02832615375518799,0.004585392773151398
1699665534616551000,8.357551025390626,0.025751113891601562,0.03402829170227051,0.001014363020658493
1699665534626618000,8.3676181640625,0.00301361083984375,0.005254268646240234,0.0009754560887813568
1699665534636571000,8.37757080078125,0.01618480682373047,0.014811873435974121,0.0033303163945674896
1699665534646692000,8.387692138671875,0.0030050277709960938,0.010100483894348145,-0.0014887042343616486
1699665534656608000,8.39760791015625,0.025754928588867188,0.014858245849609375,-0.011045161634683609
1699665534673459000,8.414458984375,0.019766807556152344,0.0076912641525268555,-0.008681794628500938
1699665534687377000,8.428376953125,0.022146224975585938,0.008976101875305176,-0.012282924726605415
1699665534696629000,8.43762890625,0.019748687744140625,-0.0017756223678588867,0.0033235549926757812
1699665534706485000,8.447485107421874,0.026923179626464844,-0.0005300045013427734,0.023541107773780823
1699665534716506000,8.457506103515625,0.037690162658691406,-0.011255502700805664,0.005527239292860031
1699665534726713000,8.467713134765624,0.034076690673828125,-0.008728623390197754,0.0031516700983047485
1699665534736650000,8.47764990234375,0.03168010711669922,-0.0003350973129272461,0.0007301047444343567
1699665534746689000,8.48768896484375,0.0472412109375,0.0020738840103149414,0.0006921850144863129
1699665534756617000,8.497616943359375,0.05082511901855469,0.000910639762878418,0.010281920433044434
1699665534766558000,8.507557861328126,0.046034812927246094,0.009305477142333984,0.009114779531955719
1699665534776593000,8.517593017578125,0.028077125549316406,0.0057294368743896484,0.0030988454818725586
1699665534786461000,8.5274609375,0.02210712432861328,0.0020383596420288086,-0.00529986247420311
1699665534796469000,8.537468994140625,0.01732921600341797,0.00915074348449707,-0.014783181250095367
1699665534806406000,8.547406005859376,0.012556076049804688,0.013845682144165039,-0.009922333061695099
1699665534816638000,8.557637939453125,0.018543243408203125,0.011441230773925781,-0.011063355952501297
1699665534826529000,8.567529052734375,0.01615428924560547,0.012604594230651855,-0.01574018783867359
1699665534836927000,8.577927001953125,0.02213764190673828,0.004237174987792969,-0.011003479361534119
1699665534846522000,8.587522216796875,0.034107208251953125,0.009041190147399902,-0.007442716509103775
1699665534856976000,8.597975830078125,0.03889274597167969,0.006661653518676758,-0.001476246863603592
1699665534866595000,8.607594970703126,0.03769111633300781,0.0019032955169677734,-0.012175334617495537
1699665534876613000,8.617613037109376,0.025709152221679688,-0.006419181823730469,-0.006134338676929474
1699665534886725000,8.62772509765625,0.017334938049316406,0.01509714126586914,-0.006140109151601791
1699665534896551000,8.637551025390625,0.026889801025390625,-0.0003314018249511719,-0.006110299378633499
1699665534906591000,8.647591064453126,0.013719558715820312,0.0020781755447387695,0.011784546077251434
1699665534916445000,8.65744482421875,0.020923614501953125,0.025889158248901367,0.00692136213183403
1699665534926885000,8.667885009765625,0.018527984619140625,-0.0028257369995117188,0.005684439092874527
1699665534936749000,8.6777490234375,0.049648284912109375,0.005579113960266113,0.015226174145936966
1699665534946734000,8.687734130859376,0.05203723907470703,0.004419445991516113,0.021073218435049057
1699665534956747000,8.6977470703125,-0.0030841827392578125,-0.037148356437683105,0.007792260497808456
1699665534966705000,8.707704833984375,0.03403282165527344,0.0035092830657958984,0.007888853549957275
1699665534976676000,8.717676025390626,0.029140472412109375,-0.038954854011535645,0.007875155657529831
1699665534987188000,8.72818798828125,0.08307266235351562,0.050443291664123535,-0.013430450111627579
1699665534996745000,8.737744873046875,-0.056929588317871094,0.017779946327209473,0.03273457661271095
1699665535006653000,8.74765283203125,0.0532989501953125,0.030312299728393555,-0.08440002799034119
1699665535016626000,8.7576259765625,0.038786888122558594,-0.03100764751434326,0.0623442642390728
1699665535026742000,8.767741943359376,-0.14429664611816406,0.011632323265075684,-0.04027125611901283
1699665535036679000,8.777678955078125,0.26508617401123047,0.020144939422607422,-0.05246482044458389
1699665535046448000,8.7874482421875,-0.18502140045166016,0.04290449619293213,0.10787796974182129
1699665535056688000,8.797688232421875,0.04120349884033203,0.0011420249938964844,0.09362666308879852
1699665535066775000,8.807775146484374,-0.07133293151855469,-0.027515649795532227,-0.025670666247606277
1699665535076602000,8.81760205078125,0.08789825439453125,-0.06233620643615723,-0.03264397755265236
1699665535086901000,8.82790087890625,-0.018523216247558594,0.04467594623565674,0.04005640745162964
1699665535096721000,8.837720947265625,-0.03882884979248047,0.025269389152526855,0.008123941719532013
1699665535106646000,8.84764599609375,0.20400047302246094,-0.02989828586578369,-0.016430435702204704
1699665535116965000,8.857965087890625,-0.133575439453125,-0.05148959159851074,0.0879831463098526
1699665535127001000,8.8680009765625,0.14414024353027344,0.038368821144104004,-0.08012866973876953
1699665535136820000,8.877820068359375,0.03759479522705078,-0.06217312812805176,0.036420173943042755
1699665535146781000,8.887781005859376,0.00287628173828125,0.12698328495025635,-0.009098630398511887
1699665535156778000,8.897778076171875,0.005291938781738281,-0.007208704948425293,0.020341288298368454
1699665535166649000,8.907649169921875,0.1560831069946289,0.2564103603363037,-0.07252959907054901
1699665535176760000,8.917760009765624,0.4685640335083008,-0.20349955558776855,0.1771579533815384
1699665535186878000,8.9278779296875,-0.8709926605224609,-0.09574568271636963,-0.024449164047837257
1699665535196887000,8.937886962890625,0.005375862121582031,0.009076476097106934,-0.28181496262550354
1699665535206789000,8.9477890625,0.40039634704589844,-0.11892962455749512,0.14450126886367798
1699665535216649000,8.95764892578125,-0.4591789245605469,0.13283586502075195,0.1443030834197998
1699665535226783000,8.967782958984374,0.5451240539550781,0.13923907279968262,-0.20522432029247284
1699665535236651000,8.977651123046876,0.027955055236816406,0.11776602268218994,0.07522080838680267
1699665535246813000,8.98781298828125,0.12614059448242188,0.01590573787689209,-0.006783083081245422
1699665535256668000,8.99766796875,0.1308279037475586,-0.07563936710357666,-0.09713084250688553
1699665535267065000,9.008065185546876,-0.3981962203979492,-0.04033243656158447,0.0334172248840332
1699665535276663000,9.0176630859375,0.02562427520751953,0.01565074920654297,-0.017255084589123726
1699665535286771000,9.02777099609375,0.618133544921875,0.050719618797302246,-0.0404055155813694
1699665535296777000,9.03777685546875,-0.6400327682495117,-0.16109097003936768,0.21825973689556122
1699665535306727000,9.047726806640625,0.1273202896118164,0.0663137435913086,-0.22562266886234283
1699665535316741000,9.0577412109375,0.26385974884033203,0.04551494121551514,0.06867851316928864
1699665535326695000,9.06769482421875,-0.4628114700317383,-0.12542033195495605,0.201608806848526
1699665535336561000,9.077560791015625,0.38113975524902344,0.10437953472137451,-0.23603355884552002
1699665535346789000,9.0877890625,-0.0031585693359375,0.2410428524017334,0.13900135457515717
1699665535357110000,9.098110107421874,0.503169059753418,-0.12375771999359131,-0.020520225167274475
1699665535366655000,9.107655029296875,-0.5214805603027344,0.07810318470001221,0.036963995546102524
1699665535376743000,9.117742919921875,0.2603750228881836,0.012538552284240723,-0.2422788441181183
1699665535386672000,9.127672119140625,-0.5082855224609375,-0.4643296003341675,0.2650655210018158
1699665535396777000,9.13777685546875,0.06516361236572266,0.2944049835205078,-0.14201945066452026
1699665535406781000,9.147781005859375,0.7449884414672852,-0.19090032577514648,-0.14798963069915771
1699665535416760000,9.157760009765624,-0.8219928741455078,0.3250058889389038,0.20722733438014984
1699665535426770000,9.16777001953125,0.7437534332275391,0.2918013334274292,-0.1745486855506897
1699665535436714000,9.1777138671875,0.1726980209350586,-0.3388240337371826,0.19119536876678467
1699665535446685000,9.187684814453124,-0.6136560440063477,0.09968364238739014,-0.1488085389137268
1699665535456762000,9.19776220703125,0.5474309921264648,0.11699175834655762,-0.1795109063386917
1699665535466624000,9.2076240234375,-0.2546224594116211,-0.2815701961517334,0.4424355626106262
1699665535476748000,9.217748046875,0.8180723190307617,0.10806512832641602,-0.36471784114837646
1699665535486707000,9.22770703125,-1.1285600662231445,0.13046061992645264,0.25138795375823975
1699665535496678000,9.237677978515626,0.7892475128173828,0.25239503383636475,-0.3339126408100128
1699665535506703000,9.247703125,0.2912006378173828,-0.39384734630584717,0.3919554054737091
1699665535516629000,9.25762890625,-0.5659942626953125,0.35481810569763184,-0.2826378345489502
1699665535526660000,9.26766015625,0.2829141616821289,-0.25543713569641113,0.06666939705610275
1699665535536726000,9.27772607421875,0.06723403930664062,0.2149343490600586,0.01638619601726532
1699665535546662000,9.287661865234375,-0.06070518493652344,-0.43589353561401367,-0.027640506625175476
1699665535556652000,9.297652099609374,0.025379180908203125,0.5630671977996826,0.014529131352901459
1699665535566624000,9.3076240234375,0.18105602264404297,-0.4032728672027588,0.0042692385613918304
1699665535576597000,9.317596923828125,-0.3720121383666992,0.396404504776001,-0.012347258627414703
1699665535586668000,9.32766796875,0.888554573059082,-0.5948981046676636,0.0014238208532333374
1699665535596741000,9.3377412109375,-1.1741142272949219,0.7558038234710693,-0.10220682621002197
1699665535606698000,9.347697998046876,0.683903694152832,-0.41919875144958496,0.1670227199792862
1699665535616678000,9.357677978515625,0.14510345458984375,0.12123918533325195,-0.2219693809747696
1699665535626796000,9.367796142578126,-0.4019775390625,0.3284132480621338,0.3414173722267151
1699665535636630000,9.377630126953125,0.5136575698852539,-1.0173840522766113,-0.2238515019416809
1699665535646779000,9.38777880859375,-0.5348634719848633,1.3077607154846191,-0.3243783116340637
1699665535658575000,9.3995751953125,0.41901111602783203,-0.2076859474182129,0.568566620349884
1699665535666750000,9.40775,0.1771097183227539,-1.7058985233306885,0.003816962242126465
1699665535676484000,9.417484130859375,-1.053497314453125,1.0677393674850464,-0.7145609855651855
1699665535686581000,9.4275810546875,1.4230146408081055,1.7159767150878906,0.08027122169733047
1699665535696480000,9.43747998046875,-0.4997568130493164,-0.48292553424835205,0.6711285710334778
1699665535706484000,9.44748388671875,-0.2880277633666992,-1.230125904083252,0.2754743695259094
1699665535716988000,9.45798779296875,0.2828378677368164,-0.07757914066314697,0.04037909954786301
1699665535726456000,9.4674560546875,0.001422882080078125,0.6963462829589844,0.017258264124393463
1699665535737056000,9.478055908203125,0.14499855041503906,0.17249739170074463,-0.3804817199707031
1699665535746503000,9.4875029296875,0.1019124984741211,0.04196774959564209,-0.36068037152290344
1699665535756519000,9.497518798828125,-0.13393115997314453,-0.36976075172424316,-0.2654434144496918
1699665535766535000,9.507534912109374,0.004929542541503906,-0.3302417993545532,0.12124964594841003
1699665535776768000,9.51776806640625,0.15697669982910156,-0.3411215543746948,0.19945552945137024
1699665535786450000,9.527449951171874,-0.2200918197631836,0.45484793186187744,0.24240435659885406
1699665535796533000,9.537532958984375,0.2982215881347656,0.5555980205535889,0.053094975650310516
1699665535806536000,9.547535888671876,-0.2356548309326172,-0.6225091218948364,-0.1523832082748413
1699665535816446000,9.557446044921875,-0.0058155059814453125,-0.0395050048828125,-0.1041414886713028
1699665535826689000,9.56768896484375,0.5029096603393555,0.5712541341781616,0.04014408588409424
1699665535836736000,9.577736083984375,-0.5181961059570312,-0.7049598693847656,-0.14285096526145935
1699665535847090000,9.58808984375,-0.15428829193115234,0.022951841354370117,-0.03875168412923813
1699665535856965000,9.597965087890625,0.7949724197387695,0.8132431507110596,0.09552866220474243
1699665535866863000,9.607863037109375,-0.706141471862793,-0.964728832244873,-0.008618921041488647
1699665535877029000,9.618029052734375,0.22279739379882812,0.4431391954421997,-0.06618201732635498
1699665535886812000,9.62781201171875,0.15689945220947266,0.35724329948425293,0.08773305267095566
1699665535896989000,9.637989013671875,-0.14236068725585938,-0.44486069679260254,0.13028229773044586
1699665535906842000,9.647842041015625,-0.7397565841674805,-0.36917293071746826,0.04131792113184929
1699665535916842000,9.657842041015625,0.8811254501342773,0.6566435098648071,0.19888974726200104
1699665535926842000,9.667842041015625,-0.41057872772216797,-0.6132490634918213,-0.3493402898311615
1699665535936850000,9.677849853515625,-0.15197086334228516,0.04140126705169678,0.29929229617118835
1699665535947012000,9.68801220703125,0.7422323226928711,0.59459388256073,-0.21587982773780823
1699665535957029000,9.698029052734375,-1.066584587097168,-0.6216459274291992,0.11445041745901108
1699665535966826000,9.707825927734374,0.9769105911254883,0.2316521406173706,-0.1403302550315857
1699665535976840000,9.71783984375,-1.1060800552368164,-0.3331993818283081,-0.02066197246313095
1699665535986903000,9.727903076171875,0.967341423034668,0.6948728561401367,0.08157199621200562
1699665535997224000,9.738223876953125,-0.5315093994140625,-0.7950213551521301,-0.18664905428886414
1699665536006847000,9.747846923828124,0.12813568115234375,0.3024560213088989,0.25503435730934143
1699665536016919000,9.7579189453125,0.2478179931640625,0.2332230806350708,-0.20087073743343353
1699665536026874000,9.7678740234375,-0.1867656707763672,-0.19753551483154297,0.47524845600128174
1699665536038843000,9.7798427734375,0.31484317779541016,-0.21683824062347412,-0.4225149154663086
1699665536056638000,9.797637939453125,1.103682518005371,0.48973703384399414,-0.21107488870620728
1699665536066432000,9.807431884765625,-0.9722118377685547,-0.6048427820205688,-0.06838329136371613
1699665536076688000,9.81768798828125,1.7403926849365234,0.4236491918563843,-0.16728515923023224
1699665536086449000,9.827448974609375,-1.1794013977050781,-0.1278477907180786,0.03276350721716881
1699665536096565000,9.83756494140625,1.1394939422607422,0.5694247484207153,0.08029116690158844
1699665536106643000,9.847642822265625,-1.071554183959961,-0.8407415151596069,-0.028724027797579765
1699665536116621000,9.85762109375,0.31120967864990234,0.3436851501464844,0.09860366582870483
1699665536126645000,9.86764501953125,-0.36156654357910156,0.11990082263946533,-0.16721957921981812
1699665536137680000,9.878679931640624,0.30156993865966797,0.2028191089630127,0.4647233486175537
1699665536146875000,9.887875,0.004685401916503906,-0.28917598724365234,-0.41123872995376587
1699665536156829000,9.897828857421874,-0.1377849578857422,0.18741261959075928,0.3090698719024658
1699665536166593000,9.907593017578124,0.7420215606689453,0.5253342390060425,-0.19936397671699524
1699665536176648000,9.91764794921875,-0.9363126754760742,-0.4862027168273926,0.1052655577659607
1699665536186635000,9.927635009765625,1.114339828491211,0.008093833923339844,-0.35718798637390137
1699665536196650000,9.93764990234375,-1.4593839645385742,-0.13937127590179443,0.0737396627664566
1699665536207577000,9.9485771484375,1.4422674179077148,0.6155310869216919,-0.1366260051727295
1699665536216748000,9.957748046875,-1.144613265991211,-0.7471102476119995,0.10778050124645233
1699665536227076000,9.968076171875,0.8425273895263672,0.395260214805603,-0.04097209870815277
1699665536236945000,9.97794482421875,-0.5593290328979492,-0.04977905750274658,-0.015852272510528564
1699665536246920000,9.987919921875,0.661712646484375,0.3668254613876343,0.44358938932418823
1699665536256971000,9.997970947265625,-0.4180469512939453,-0.4437227249145508,-0.2964947819709778
1699665536266916000,10.007916015625,0.03921794891357422,0.034041523933410645,0.36569857597351074
1699665536276941000,10.017941162109375,0.3385143280029297,0.48165369033813477,-0.2118808925151825
1699665536286880000,10.0278798828125,-0.7915534973144531,-0.5310788154602051,0.20015177130699158
1699665536297010000,10.038010009765625,1.0699224472045898,0.24232852458953857,-0.19887547194957733
1699665536307219000,10.048218994140624,-1.2703733444213867,-0.24269723892211914,0.0278187096118927
1699665536316697000,10.057697021484374,1.211125373840332,0.6329050064086914,-0.030983641743659973
1699665536327144000,10.06814404296875,-0.012219429016113281,0.08525359630584717,0.05550225451588631
1699665536336915000,10.0779150390625,0.5779428482055664,0.46242618560791016,-0.2258283793926239
1699665536347034000,10.0880341796875,-0.6275863647460938,-0.4770292043685913,0.31031525135040283
1699665536357104000,10.098104248046875,0.9071922302246094,0.2322690486907959,-0.29665884375572205
1699665536366904000,10.107904052734375,-0.9339914321899414,-0.3240913152694702,0.09983140975236893
1699665536376896000,10.11789599609375,0.8904018402099609,0.6191154718399048,0.1967942714691162
1699665536386918000,10.12791796875,-0.42403507232666016,-0.565880298614502,-0.21539372205734253
1699665536396564000,10.13756396484375,-0.17263126373291016,-0.07989931106567383,0.14519955217838287
1699665536406556000,10.147555908203126,0.7814245223999023,0.715142011642456,-0.10043726861476898
1699665536416581000,10.1575810546875,-0.9974756240844727,-0.7775683999061584,-0.005268879234790802
1699665536426806000,10.167805908203125,0.7419214248657227,0.3584369421005249,-0.024858437478542328
1699665536436829000,10.177828857421876,-0.3342914581298828,0.15022265911102295,-0.08605605363845825
1699665536446808000,10.18780810546875,-0.2923908233642578,-0.35254549980163574,-0.04730488359928131
1699665536456652000,10.197652099609375,0.7478723526000977,0.37302863597869873,-0.09596545994281769
1699665536466784000,10.207783935546875,-0.8646183013916016,-0.2387382984161377,0.07950415462255478
1699665536476966000,10.2179658203125,0.3169240951538086,0.03421497344970703,-0.0938986986875534
1699665536486661000,10.2276611328125,0.49283504486083984,0.32069098949432373,0.030012097209692
1699665536496586000,10.2375859375,-0.8359050750732422,-0.4277677536010742,0.09258420765399933
1699665536506632000,10.2476318359375,0.525202751159668,0.14566004276275635,-0.19242186844348907
1699665536516767000,10.25776708984375,0.338409423828125,0.31589949131011963,0.17228345572948456
1699665536526479000,10.26747900390625,-0.7090063095092773,-0.4134395122528076,0.03266012668609619
1699665536536798000,10.2777978515625,0.43541812896728516,0.02117180824279785,-0.21259765326976776
1699665536546719000,10.287718994140626,0.31566905975341797,0.41880524158477783,0.2565113306045532
1699665536556597000,10.297596923828126,-0.5581684112548828,-0.2865692377090454,-0.06288746744394302
1699665536566573000,10.307572998046876,0.25343990325927734,-0.27321040630340576,-0.18009057641029358
1699665536576589000,10.317589111328125,0.2510080337524414,0.5015074014663696,0.2437412142753601
1699665536586767000,10.32776708984375,-0.19908618927001953,0.10396730899810791,-0.05428856611251831
1699665536596762000,10.33776220703125,0.09059333801269531,-0.5279514789581299,-0.1882755607366562
1699665536606870000,10.3478701171875,0.023563385009765625,0.33152198791503906,0.2545815706253052
1699665536616618000,10.357617919921875,0.21266841888427734,0.4502960443496704,0.03581884875893593
1699665536626617000,10.3676171875,-0.07222175598144531,-0.5278939008712769,-0.1797938495874405
1699665536636899000,10.377899169921875,-0.19789886474609375,-0.09105420112609863,0.13483954966068268
1699665536647201000,10.388200927734376,0.5239171981811523,0.6250432729721069,0.13541194796562195
1699665536657092000,10.398092041015625,-0.1428537368774414,-0.13283252716064453,-0.12715262174606323
1699665536667842000,10.408842041015625,-0.23744869232177734,-0.4355602264404297,-0.06599727272987366
1699665536676491000,10.417490966796874,0.25212764739990234,0.30690526962280273,0.2325671911239624
1699665536689571000,10.430571044921875,-0.23748302459716797,-0.23183321952819824,-0.11764541268348694
1699665536706440000,10.44743994140625,-0.18003082275390625,-0.4029421806335449,0.07915088534355164
1699665536716514000,10.45751416015625,0.37303638458251953,0.39667558670043945,0.0005384199321269989
1699665536726443000,10.467443115234374,0.07975006103515625,0.32121551036834717,0.0010287612676620483
1699665536736842000,10.477842041015625,-0.3894929885864258,-0.6138209104537964,-0.08354805409908295
1699665536746462000,10.4874619140625,0.040259361267089844,-0.16722726821899414,-0.10351565480232239
1699665536757389000,10.49838916015625,0.01869487762451172,-0.07497692108154297,0.02177552506327629
1699665536766670000,10.507670166015625,-0.5032186508178711,-0.4461866617202759,0.020949814468622208
1699665536776439000,10.51743896484375,0.21383285522460938,-0.016355037689208984,-0.14805983006954193
1699665536786527000,10.52752685546875,0.3466835021972656,0.39079749584198,0.1091185212135315
1699665536796547000,10.537547119140624,-0.2853670120239258,0.21831512451171875,0.09666195511817932
1699665536806526000,10.54752587890625,-0.00046539306640625,-0.5669100284576416,-0.13127535581588745
1699665536816449000,10.557448974609375,0.06658458709716797,-0.0007892847061157227,0.012132514268159866
1699665536826509000,10.567509033203125,0.25813865661621094,0.6539223194122314,0.18059968948364258
1699665536836829000,10.577828857421874,0.05579090118408203,0.017310023307800293,0.10115815699100494
1699665536846665000,10.5876650390625,-0.17763042449951172,-0.3275560140609741,0.01681359112262726
1699665536856763000,10.597762939453125,0.04981708526611328,-0.10487997531890869,-0.06707118451595306
1699665536866699000,10.607698974609375,0.3430767059326172,0.519013524055481,0.06993764638900757
1699665536876765000,10.617764892578125,-0.02921772003173828,0.21371090412139893,0.07404404878616333
1699665536887278000,10.628278076171876,-0.2542858123779297,-0.5451788902282715,-0.11364143341779709
1699665536896614000,10.63761376953125,-0.035202980041503906,-0.28425729274749756,-0.2870299518108368
1699665536906696000,10.647696044921876,0.1778573989868164,0.3994208574295044,-0.08925148844718933
1699665536916644000,10.65764404296875,0.009050369262695312,0.11458408832550049,0.09337829053401947
1699665536926661000,10.6676611328125,-0.26505374908447266,-0.28780245780944824,-0.09911277890205383
1699665536937016000,10.67801611328125,0.004271507263183594,-0.37266016006469727,-0.24513854086399078
1699665536946657000,10.687656982421874,0.2975654602050781,0.28450465202331543,0.10029324889183044
1699665536956710000,10.6977099609375,-0.03283500671386719,0.5490792989730835,0.2433190941810608
1699665536967177000,10.708177001953125,-0.041243553161621094,-0.3617234230041504,-0.0430021807551384
1699665536976799000,10.717799072265626,-0.050787925720214844,-0.261388897895813,0.029545940458774567
1699665536986789000,10.7277890625,0.2867746353149414,0.3684171438217163,0.04711710289120674
1699665536996732000,10.73773193359375,0.17660236358642578,0.4069812297821045,0.1543431282043457
1699665537007189000,10.74818896484375,-0.13822364807128906,-0.10188686847686768,0.039101261645555496
1699665537016706000,10.7577060546875,-0.12024688720703125,-0.4575381278991699,-0.13590054214000702
1699665537027079000,10.768078857421875,0.23649215698242188,0.2056112289428711,-0.0849970132112503
1699665537036876000,10.7778759765625,0.11797523498535156,0.413921594619751,0.05898663029074669
1699665537046491000,10.787490966796875,-0.23395347595214844,-0.32238566875457764,-0.036436498165130615
1699665537056627000,10.797626953125,-0.24834251403808594,-0.4635108709335327,-0.27187174558639526
1699665537066674000,10.807673828125,0.20294952392578125,0.1470855474472046,-0.15026625990867615
1699665537076713000,10.817712890625,0.16704750061035156,0.2823132276535034,0.11098884046077728
1699665537086714000,10.827714111328126,-0.29624271392822266,0.04656267166137695,0.06787219643592834
1699665537096756000,10.837755859375,0.09161090850830078,-0.4993000030517578,-0.15625610947608948
1699665537107089000,10.8480888671875,0.1311349868774414,0.12309479713439941,0.07402947545051575
1699665537116505000,10.857505126953125,0.1466541290283203,0.6836040019989014,0.18647336959838867
1699665537126845000,10.867844970703125,0.05570220947265625,-0.13900744915008545,0.0617181695997715
1699665537136680000,10.877679931640625,-0.1621694564819336,-0.3748202323913574,0.08146215230226517
1699665537146619000,10.887618896484375,0.175384521484375,0.1425163745880127,-0.03502503037452698
1699665537156785000,10.897784912109374,0.31427764892578125,0.4846729040145874,0.09759978204965591
1699665537166667000,10.9076669921875,-0.15259265899658203,-0.0025315284729003906,0.046986281871795654
1699665537176636000,10.917635986328126,-0.1633739471435547,-0.535171389579773,-0.1798466145992279
1699665537186661000,10.9276611328125,0.16461467742919922,0.17358779907226562,-0.1359533965587616
1699665537196625000,10.937625,-0.23882102966308594,0.46455633640289307,0.016292452812194824
1699665537206887000,10.947886962890625,-0.2364044189453125,-0.45851683616638184,-0.23831918835639954
1699665537216815000,10.957815185546876,0.16819190979003906,0.13896989822387695,-0.10751965641975403
1699665537226720000,10.967719970703126,0.2687234878540039,0.32945096492767334,0.09531401097774506
1699665537236661000,10.977660888671876,-0.3561525344848633,-0.0488743782043457,0.04064173251390457
1699665537246695000,10.98769482421875,0.06521415710449219,-0.5108811855316162,-0.16995930671691895
1699665537256655000,10.997655029296874,0.13464927673339844,0.179803729057312,0.07973979413509369
1699665537266652000,11.00765185546875,0.2567434310913086,0.6144288778305054,0.17132392525672913
1699665537276815000,11.017815185546874,-0.12874507904052734,-0.2557312250137329,0.03010518103837967
1699665537287048000,11.0280478515625,-0.1191253662109375,-0.28474199771881104,0.06423588842153549
1699665537296612000,11.037612060546875,0.2507591247558594,0.31035125255584717,0.013452008366584778
1699665537306877000,11.047876953125,0.25791072845458984,0.3919532299041748,0.09692221134901047
1699665537317616000,11.0586162109375,-0.26879310607910156,-0.23068571090698242,0.02461925894021988
1699665537326971000,11.067970947265625,-0.16224288940429688,-0.3624091148376465,-0.05702770873904228
1699665537336828000,11.077827880859376,0.40157222747802734,0.4469757080078125,-0.0242378581315279
1699665537346688000,11.08768798828125,-0.004261016845703125,0.28064680099487305,-0.0007191821932792664
1699665537356556000,11.09755615234375,-0.32747936248779297,-0.6051933765411377,-0.12409834563732147
1699665537366630000,11.1076298828125,0.0831289291381836,-0.07366597652435303,-0.11770159006118774
1699665537376647000,11.11764697265625,0.25548553466796875,0.6495170593261719,0.02304452285170555
1699665537387239000,11.128239013671875,-0.11322593688964844,-0.3189215660095215,-0.1107356995344162
1699665537396611000,11.137611083984375,-0.38735008239746094,-0.5057129859924316,-0.15466342866420746
1699665537406761000,11.147760986328125,0.3536396026611328,0.48076891899108887,0.05286003276705742
1699665537416646000,11.15764599609375,0.1453104019165039,0.15056204795837402,-0.012357670813798904
1699665537426854000,11.16785400390625,-0.5705327987670898,-0.4636582136154175,-0.18934834003448486
1699665537436842000,11.177842041015625,0.33924007415771484,-0.061295509338378906,0.055194612592458725
1699665537446884000,11.187884033203124,0.3116722106933594,0.46800875663757324,0.16490188241004944
1699665537456835000,11.1978349609375,-0.28806114196777344,-0.0647437572479248,-0.1678335964679718
1699665537466714000,11.207714111328125,0.02677154541015625,-0.51723313331604,-0.004762757569551468
1699665537476786000,11.217785888671875,0.19557476043701172,0.3817451000213623,0.2326126992702484
1699665537486788000,11.2277880859375,0.1273365020751953,0.4104909896850586,-0.03312339633703232
1699665537497010000,11.238010009765626,-0.2054271697998047,-0.6240197420120239,-0.10413099825382233
1699665537506976000,11.24797607421875,-0.03185462951660156,-0.014620423316955566,0.17052173614501953
1699665537516736000,11.257736083984375,0.46491146087646484,0.7277747392654419,0.1020207330584526
1699665537526690000,11.26768994140625,-0.049811363220214844,-0.22294414043426514,-0.09794256091117859
1699665537536479000,11.27747900390625,-0.3419027328491211,-0.42524003982543945,0.05822579935193062
1699665537546624000,11.2876240234375,0.29014110565185547,0.483534574508667,0.15557266771793365
1699665537556450000,11.297449951171876,0.31049156188964844,0.3087579011917114,-0.07666490972042084
1699665537566445000,11.307445068359375,-0.38259410858154297,-0.36538195610046387,-0.052640434354543686
1699665537576404000,11.317404052734375,-0.053420066833496094,-0.1556943655014038,0.03896762430667877
1699665537586547000,11.327546875,0.4433574676513672,0.5051800012588501,-0.0018398165702819824
1699665537596615000,11.337614990234375,-0.04385185241699219,0.1352320909500122,-0.06333418935537338
1699665537606579000,11.347578857421874,-0.33714962005615234,-0.6284448504447937,-0.0747809186577797
1699665537616508000,11.3575078125,0.20872116088867188,0.00842905044555664,-0.10274433344602585
1699665537626965000,11.367965087890624,-0.18634319305419922,-0.3649402856826782,-0.004488509148359299
1699665537636471000,11.377470947265625,-0.3155984878540039,-0.44531071186065674,-0.12277327477931976
1699665537646517000,11.38751708984375,0.2554140090942383,0.42739033699035645,0.013115685433149338
1699665537656568000,11.397568115234375,0.18115901947021484,0.18217766284942627,0.025541923940181732
1699665537667579000,11.408578857421874,-0.5251073837280273,-0.4128861427307129,-0.13710325956344604
1699665537676494000,11.417494140625,0.2805366516113281,-0.18661797046661377,-0.04583532363176346
1699665537686482000,11.42748193359375,0.3068504333496094,0.4467676877975464,0.16083379089832306
1699665537696674000,11.437674072265626,-0.22104930877685547,0.17252862453460693,-0.014844588935375214
1699665537706547000,11.447546875,-0.041497230529785156,-0.6102988719940186,-0.07342132180929184
1699665537716431000,11.45743115234375,0.017171859741210938,0.06715512275695801,0.125027596950531
1699665537726469000,11.46746923828125,0.32123756408691406,0.6669172048568726,0.12926533818244934
1699665537736405000,11.477405029296875,-0.023558616638183594,-0.09664559364318848,0.03814176842570305
1699665537746738000,11.487738037109375,-0.22583770751953125,-0.3554353713989258,0.052138183265924454
1699665537756751000,11.497751220703124,0.17758560180664062,0.10187256336212158,-0.017751526087522507
1699665537767041000,11.508041015625,0.28052616119384766,0.5149441957473755,0.016535170376300812
1699665537776748000,11.517748046875,-0.12168693542480469,0.03719496726989746,0.02344626933336258
1699665537786720000,11.527719970703124,-0.20427894592285156,-0.5422452688217163,-0.13243888318538666
1699665537797129000,11.53812890625,0.17760753631591797,0.14364862442016602,-0.14388960599899292
1699665537806722000,11.54772216796875,0.1345062255859375,0.5315248966217041,-0.02117185667157173
1699665537816664000,11.5576640625,-0.07860088348388672,-0.2656126022338867,-0.020908784121274948
1699665537826625000,11.567625,-0.22821426391601562,-0.49556827545166016,-0.21223069727420807
1699665537836704000,11.5777041015625,0.0865926742553711,0.09357833862304688,-0.14010269939899445
1699665537846809000,11.58780908203125,0.20868396759033203,0.3163142204284668,0.08881334960460663
1699665537856743000,11.597742919921876,-0.2617664337158203,0.014601469039916992,0.0882047563791275
1699665537866721000,11.607720947265625,-0.006796836853027344,-0.5599308013916016,-0.1235804557800293
1699665537876770000,11.61777001953125,0.1308736801147461,0.11878156661987305,0.09233945608139038
1699665537886735000,11.627735107421875,0.2242279052734375,0.6228930950164795,0.21641477942466736
1699665537896817000,11.63781689453125,0.035065650939941406,-0.12755513191223145,0.12295188009738922
1699665537906736000,11.647736083984375,-0.19716262817382812,-0.3023761510848999,0.07110430300235748
1699665537916649000,11.65764892578125,0.11166000366210938,0.0006815195083618164,-0.0727342888712883
1699665537926569000,11.66756884765625,0.23617076873779297,0.5057560205459595,0.1194639578461647
1699665537936702000,11.677701904296875,-0.042736053466796875,0.16088378429412842,0.072685107588768
1699665537946875000,11.687875,-0.13491439819335938,-0.564544677734375,-0.1261608600616455
1699665537956794000,11.697794189453125,-0.017592430114746094,-0.1432095766067505,-0.2252534031867981
1699665537966654000,11.707654052734375,0.11287784576416016,0.543999433517456,-0.07170429080724716
1699665537976793000,11.71779296875,0.06383609771728516,-0.01048266887664795,-0.03378584235906601
1699665537986746000,11.72774609375,-0.29411983489990234,-0.42813801765441895,-0.15938308835029602
1699665537996769000,11.73776904296875,0.0422515869140625,-0.15512466430664062,-0.18659086525440216
1699665538006793000,11.74779296875,0.2804737091064453,0.32492733001708984,0.005937647074460983
1699665538016792000,11.7577919921875,-0.15052318572998047,0.3838369846343994,0.18068495392799377
1699665538027260000,11.768260009765624,0.0027008056640625,-0.5055931806564331,-0.07762505114078522
1699665538037001000,11.7780009765625,0.007477760314941406,-0.14997780323028564,0.02044610306620598
1699665538046664000,11.787663818359375,0.1594533920288086,0.5387088060379028,0.1256113052368164
1699665538056679000,11.797678955078124,-0.11704349517822266,-0.20371198654174805,0.06122048571705818
1699665538066685000,11.807684814453125,-0.03803730010986328,-0.35692596435546875,-0.10771602392196655
1699665538076475000,11.817474853515625,0.19180774688720703,0.3062824010848999,-0.03034103475511074
1699665538086779000,11.82777880859375,-0.01169586181640625,0.4319339990615845,0.062278468161821365
1699665538096653000,11.837653076171875,-0.10268878936767578,-0.45384693145751953,-0.07852672040462494
1699665538106663000,11.847662841796875,-0.13618755340576172,-0.44557058811187744,-0.2659434378147125
1699665538116892000,11.857891845703126,0.08166980743408203,0.2655808925628662,-0.11358904838562012
1699665538127088000,11.868088134765625,0.17864131927490234,0.2080763578414917,0.056715432554483414
1699665538136555000,11.877554931640624,-0.27503013610839844,-0.04108786582946777,0.058785587549209595
1699665538146805000,11.887804931640625,-0.015262603759765625,-0.4828035831451416,-0.17940855026245117
1699665538156770000,11.89777001953125,0.16428852081298828,0.1505357027053833,0.013760596513748169
1699665538166754000,11.907754150390625,0.13558578491210938,0.6316056251525879,0.22190646827220917
1699665538176594000,11.917593994140624,0.033809661865234375,-0.1164480447769165,0.0866335928440094
1699665538187070000,11.928070068359375,-0.07269859313964844,-0.26750218868255615,0.018653523176908493
1699665538196642000,11.93764208984375,0.14758586883544922,0.14180314540863037,-0.059375662356615067
1699665538206775000,11.947775146484375,0.22896957397460938,0.4555763006210327,0.12351496517658234
1699665538216742000,11.957741943359375,-0.1002187728881836,0.04965806007385254,0.02093341201543808
1699665538226778000,11.967778076171875,-0.1840381622314453,-0.5200271606445312,-0.15137919783592224
1699665538236767000,11.97776708984375,0.09127521514892578,0.010422468185424805,-0.1519443839788437
1699665538247047000,11.988046875,0.1379384994506836,0.5528455972671509,-0.019941367208957672
1699665538256774000,11.99777392578125,-0.09192752838134766,-0.2059851884841919,-0.023154594004154205
1699665538266785000,12.007784912109376,-0.2953958511352539,-0.4767465591430664,-0.1758977621793747
1699665538276785000,12.017784912109375,0.13315391540527344,0.03808331489562988,-0.11720909923315048
1699665538286698000,12.027697998046875,0.28276538848876953,0.3267267942428589,0.08450348675251007
1699665538296650000,12.03764990234375,-0.4115438461303711,0.034592628479003906,0.04215418919920921
1699665538306788000,12.0477880859375,0.08284854888916016,-0.554308295249939,-0.14964322745800018
1699665538316723000,12.057722900390624,0.18220043182373047,0.17593812942504883,0.14688728749752045
1699665538326780000,12.06777978515625,0.1702289581298828,0.5949385166168213,0.13812121748924255
1699665538336696000,12.077696044921876,-0.045228004455566406,-0.37487363815307617,-0.04407835751771927
1699665538346652000,12.08765185546875,-0.15776538848876953,-0.29100489616394043,0.05365987867116928
1699665538356661000,12.097660888671875,0.3940591812133789,0.4490612745285034,0.12020140886306763
1699665538366699000,12.107698974609375,0.13431072235107422,0.3818635940551758,0.07309669256210327
1699665538376783000,12.117783203125,-0.22600936889648438,-0.2322942018508911,-0.0024105682969093323
1699665538386704000,12.127703857421874,-0.0668039321899414,-0.36988365650177,-0.045020900666713715
1699665538396653000,12.137653076171874,0.2803678512573242,0.37102246284484863,-0.0407831147313118
1699665538406831000,12.1478310546875,-0.022521018981933594,0.4322082996368408,0.004973549395799637
1699665538416704000,12.1577041015625,-0.19968032836914062,-0.4955892562866211,-0.0892484188079834
1699665538426774000,12.16777392578125,-0.12668132781982422,-0.31828510761260986,-0.2288065254688263
1699665538436834000,12.177833984375,0.15342426300048828,0.3749103546142578,-0.057001225650310516
1699665538446674000,12.187673828125,0.15943241119384766,0.12102103233337402,0.06419529765844345
1699665538456678000,12.197677978515625,-0.4726600646972656,-0.2750861644744873,-0.10557601600885391
1699665538466782000,12.207781982421874,0.16418075561523438,-0.3528240919113159,-0.18494445085525513
1699665538476798000,12.2177978515625,-0.10636234283447266,0.5007239580154419,0.18901322782039642
1699665538486791000,12.227791015625,0.03246116638183594,-0.46867454051971436,-0.0734102874994278
1699665538496612000,12.237612060546875,-0.09679508209228516,-0.17081224918365479,0.07830990105867386
1699665538506717000,12.247717041015624,0.2874755859375,0.4744400978088379,0.10647793114185333
1699665538516490000,12.257489990234374,0.21442222595214844,0.29148101806640625,0.1191486120223999
1699665538526556000,12.267555908203125,-0.3026866912841797,-0.14932143688201904,0.0626085102558136
1699665538536881000,12.277880859375,0.02532958984375,-0.40196144580841064,-0.10056140273809433
1699665538546660000,12.28766015625,0.2647438049316406,0.2936176061630249,-0.06297993659973145
1699665538556538000,12.2975380859375,-0.1111440658569336,0.4204674959182739,0.048100050538778305
1699665538566607000,12.307607177734376,-0.16623401641845703,-0.45447254180908203,-0.08840049803256989
1699665538576795000,12.317794921875,-0.03692626953125,-0.35760498046875,-0.19938871264457703
1699665538586527000,12.32752685546875,0.1126852035522461,0.36198723316192627,-0.044276148080825806
1699665538596646000,12.33764599609375,0.10788345336914062,0.120247483253479,0.03869998827576637
1699665538606570000,12.347570068359374,-0.3865089416503906,-0.2820225954055786,-0.09491806477308273
1699665538616675000,12.357675048828124,0.11507797241210938,-0.323905348777771,-0.1363830268383026
1699665538626726000,12.367725830078125,0.29103565216064453,0.33098411560058594,0.10372947156429291
1699665538636534000,12.377533935546875,-0.05012702941894531,0.459026575088501,0.12706688046455383
1699665538646729000,12.38772900390625,-0.017816543579101562,-0.5332956314086914,-0.06569591164588928
1699665538656825000,12.3978251953125,-0.10040473937988281,-0.11680006980895996,0.07857644557952881
1699665538667649000,12.40864892578125,0.3006143569946289,0.6422405242919922,0.1103607714176178
1699665538676663000,12.4176630859375,0.17127418518066406,0.09190309047698975,0.06477715820074081
1699665538687080000,12.428079833984375,-0.36142444610595703,-0.31520116329193115,0.01399652287364006
1699665538696550000,12.4375498046875,0.1629161834716797,-0.05427658557891846,0.006274368613958359
1699665538706515000,12.447514892578125,0.33047008514404297,0.448760986328125,0.008417624980211258
1699665538716758000,12.457758056640625,-0.16629600524902344,0.12173807621002197,-0.023245304822921753
1699665538726542000,12.4675419921875,-0.20935726165771484,-0.601495623588562,-0.09224161505699158
1699665538736439000,12.47743896484375,0.13782787322998047,-0.034209251403808594,-0.11077339947223663
1699665538746518000,12.48751806640625,0.13303375244140625,0.5966782569885254,-0.0059795863926410675
1699665538756441000,12.497441162109375,-0.14712047576904297,-0.2626519203186035,-0.0691562071442604
1699665538766670000,12.507670166015625,-0.28362560272216797,-0.46596038341522217,-0.22408783435821533
1699665538776456000,12.5174560546875,0.2490701675415039,0.21885287761688232,0.004931464791297913
1699665538786547000,12.527546875,0.27425193786621094,0.35030508041381836,0.07105447351932526
1699665538796522000,12.53752197265625,-0.5361909866333008,-0.1608419418334961,-0.08526245504617691
1699665538806448000,12.5474482421875,0.1437673568725586,-0.4601600170135498,-0.0740654245018959
1699665538816752000,12.557752197265625,0.2503213882446289,0.3203049898147583,0.1549675017595291
1699665538826635000,12.567635009765626,-0.010669708251953125,0.563446044921875,0.0438382662832737
1699665538836611000,12.577611083984374,-0.005847930908203125,-0.520156741142273,-0.03920242190361023
1699665538846648000,12.58764794921875,-0.13872432708740234,-0.18256020545959473,0.11199480295181274
1699665538856682000,12.597681884765626,0.34484386444091797,0.6090962886810303,0.08570800721645355
