time,seconds_elapsed,z,y,x
1700516546617543000,0.06354296875,-0.7994827372282743,2.3451018214225767,-0.13183482056558132
1700516546627554000,0.073553955078125,0.8311515486896037,-1.4839892881028354,0.5038991142356768
1700516546637564000,0.08356396484375,1.5041951869159935,-0.6329713016875088,-0.7823051001951098
1700516546647574000,0.093573974609375,-0.7635194434434175,0.4117003942161798,0.4522561668904498
1700516546657583900,0.103583984375,-1.5513783783733843,0.5375286678433417,-0.2000598867362365
1700516546667594000,0.113593994140625,-0.7693921348690986,0.4147589050039649,0.21439039070997387
1700516546677603800,0.123603759765625,1.4197066394150257,-0.38158626485094427,-0.08224986519608646
1700516546687615000,0.133614990234375,1.9990712924689054,-0.555779194805026,-0.2881675745824352
1700516546697624800,0.143624755859375,-2.1577561260372398,-0.15604776306301354,0.05971592529416084
1700516546707635000,0.153635009765625,-0.878005654323101,2.3927729425273836,-0.3665205784704536
1700516546717645000,0.16364501953125,0.7769312982022761,-1.2149513979367912,0.6381569606970995
1700516546727655000,0.173655029296875,1.6162351736873388,-0.7522178588367998,-0.9112927146360278
1700516546737665800,0.183665771484375,-0.7941098120182752,0.2972409252129495,0.4273527213782072
1700516546747676000,0.193676025390625,-1.3858517160862684,0.4793626023396849,-0.32109895332548766
1700516546757686000,0.20368603515625,-0.8246066570907831,0.3821820387870073,0.29328447920475154
1700516546767696000,0.21369580078125,1.1355799011886119,-0.34692324000969527,-0.107731366324611
1700516546777706000,0.2237060546875,2.274880284205079,-0.645645489821583,-0.2328705982416868
1700516546787716900,0.233716796875,-1.9479495925188064,-0.2673769712164998,0.0242302954910323
1700516546797727000,0.24372705078125,-1.1018167477965355,2.3136361313179132,-0.2538974580489099
1700516546807736800,0.25373681640625,0.734137281614542,-1.0724240645736456,0.6670328535042703
1700516546817747000,0.263746826171875,1.4038140737563372,-0.9892064137913286,-0.6336570919945835
1700516546827756800,0.2737568359375,-0.4529512730151415,0.3644624038316309,0.334468759040907
1700516546837767000,0.283766845703125,-1.2593629327237605,0.40286315389648075,-0.1386201698567718
1700516546847778000,0.293778076171875,-0.9757727855920791,0.4079351964637637,0.3370480349443853
1700516546857788200,0.3037880859375,1.1490274117827415,-0.45222763491570944,-0.08018084036968648
1700516546867798000,0.313798095703125,2.4475679241627453,-0.6182023332312703,-0.271181368468143
1700516546877807900,0.323807861328125,-1.6243080055058001,-0.3139494834296405,0.049145760234631596
1700516546887818000,0.33381787109375,-1.1192056894928217,2.2881392864897845,-0.29052151729743925
1700516546897829000,0.3438291015625,0.5191752650290727,-0.961113122729212,0.6685580903101712
1700516546907839000,0.3538388671875,1.6799796238452196,-1.0081189117930829,-0.6442825309053063
1700516546917849000,0.36384912109375,-0.3466998065173626,0.3382699779547751,0.21776870803665369
1700516546927859000,0.37385888671875,-1.308148883202672,0.46833691206499933,-0.2280745961368084
1700516546937869000,0.383869140625,-1.1913760226905346,0.5991133096188307,0.35369072485063224
1700516546947879200,0.393879150390625,1.1258318296343088,-0.5912267941527068,-0.14255294272843747
1700516546957890000,0.40389013671875,2.3546721983224153,-0.40558571072816846,-0.27274160352218896
1700516546967900200,0.413900146484375,-1.691622130843997,-0.13311784611344338,-0.06683394060581922
1700516546977910000,0.423909912109375,-1.0277630850702524,2.213607777118683,-0.4612067313915118
1700516546987920100,0.433920166015625,0.29264906737804414,-0.8633062439717352,0.7081549182917922
1700516546997930000,0.443929931640625,1.7665911548495292,-0.9019080695666373,-0.8502455407381058
1700516547007941000,0.453941162109375,-0.7186269932717084,0.6390244642466306,0.2114499168112874
1700516547017951000,0.463950927734375,-1.6240835491001604,0.5769660674795508,-0.21305384487658738
1700516547027961000,0.473961181640625,-1.0499515360027551,0.40991219562515613,0.21871497591082006
1700516547037971000,0.483970947265625,1.6519973919421433,-0.464203611652553,-0.13879454004298894
1700516547047981000,0.49398095703125,1.8286089273452757,-0.5205563441239297,-0.242919844699651
1700516547057991000,0.503990966796875,-2.0838649603962898,-0.12426979213878511,0.09247885213512927
1700516547068002000,0.514001953125,-1.0274497813373804,2.3550373783729968,-0.40760033848620947
1700516547078012000,0.524011962890625,0.8800076417952776,-1.6036201683945952,0.6862342514500022
1700516547088022000,0.53402197265625,1.970904936170578,-0.6794007521681488,-0.7695220448590815
1700516547098031900,0.544031982421875,-1.1257751310110091,0.22226021076962352,0.49577805936131625
1700516547108042000,0.5540419921875,-1.4270856437504291,0.4437188958980143,-0.28074758064951744
1700516547118052000,0.564052001953125,-0.6606558658182621,0.23808745610713958,0.36568303166776894
1700516547128063000,0.57406298828125,1.984427850088477,-0.5646409850440919,-0.07056951040495187
1700516547138073000,0.584072998046875,1.6355547911852597,-0.7155341418229043,-0.18843813026454298
1700516547148083000,0.5940830078125,-2.1277128699511287,-0.019033494032919405,0.0983401819165796
1700516547158093000,0.604093017578125,-0.8330915768414735,2.344683011488616,-0.31263072898127137
1700516547168103000,0.61410302734375,1.018791258585453,-1.6797563364833592,0.6669703096620738
1700516547178114000,0.624114013671875,2.0307956335097552,-0.5950707562297582,-0.7631070632502436
1700516547188124000,0.6341240234375,-1.0445242502570151,0.3988580099083483,0.47126646271087225
1700516547198134000,0.644134033203125,-1.6699615031778812,0.48539676793739195,-0.1660259535787627
1700516547208144000,0.654143798828125,-0.8249901034504175,0.6547220918551087,0.21922471553124487
1700516547218154000,0.664154052734375,2.0547282977610823,-0.5512799836896359,-0.12187464063055813
1700516547228163800,0.674163818359375,1.25809568926692,-0.6913834509067237,-0.08058342982120811
1700516547238175000,0.684175048828125,-2.0682985579520463,0.24537030659168957,0.007076514257490635
1700516547248184800,0.694184814453125,-0.9339403075128793,2.337396215481311,-0.2934732067098841
1700516547258195000,0.70419482421875,1.0372878692626952,-1.538350992887467,0.5543581855585799
1700516547268204800,0.714204833984375,1.4445651863396167,-0.5246192096486687,-0.6969581822991371
1700516547278215000,0.72421484375,-1.1362252133548258,0.44959407154172654,0.3346208808626979
1700516547288225000,0.73422509765625,-1.4769061979740856,0.5491010322153568,-0.17163648693691938
1700516547298231600,0.7442314453125,-0.6573135696530342,0.3312393486656248,0.15534027238078416
1700516547308241700,0.75424169921875,2.262093283346295,-0.41060500019490714,-0.18235446296930313
1700516547318251500,0.76425146484375,0.8067261324852705,-0.6646719695918262,-0.15529712735880166
1700516547328261600,0.77426171875,-2.0366928748548028,0.16889263158887624,-0.028666268644481897
1700516547338271700,0.784271728515625,-0.8460551033109426,2.321067596492916,-0.29986751085687424
1700516547348281600,0.794281494140625,1.5110323394596576,-1.8268818112917244,0.50365763363
1700516547358292500,0.80429248046875,1.366801563179493,-0.3059738283753395,-0.6734393595457077
1700516547368302600,0.814302490234375,-1.6052859096497296,-0.01618804147392511,0.33008385848756877
1700516547378312700,0.824312744140625,-0.8827852898150682,0.8812699168160557,-0.3364075816163793
1700516547388322600,0.834322509765625,-0.6459943032592534,0.1027761916026473,0.35709618591256437
1700516547398332700,0.844332763671875,2.173926924115419,-0.6520271536827087,-0.2979977714622393
1700516547408342500,0.854342529296875,1.0605179382026195,-0.43339185541197656,-0.08959266570694745
1700516547418353700,0.864353759765625,-2.1706202837854622,-0.16913155491128562,-0.06128492817655205
1700516547428363500,0.874363525390625,-0.44631987217664715,2.2553522846534846,-0.23977661477047948
1700516547438373600,0.88437353515625,1.4048936856865881,-1.4768641123980284,0.5119312487175688
1700516547448383500,0.894383544921875,1.0306325030267238,-0.5445898384012282,-0.6523571162894368
1700516547458393600,0.9043935546875,-1.4603823486745358,0.10516410965248942,0.47040027433559295
1700516547468403500,0.914403564453125,-0.6507195782154798,0.824386584599316,-0.34915275262743234
1700516547478414600,0.92441455078125,-0.854185802796483,0.14132628701031208,0.44014684609752147
1700516547488424400,0.934424560546875,2.108975436255336,-0.5455474313870072,-0.2948360560283065
1700516547498434600,0.9444345703125,0.9016162470132112,-0.4149062045201659,-0.05025145645420998
1700516547508444700,0.954444580078125,-2.1996727752685548,-0.02658142519444227,-0.03414700161051005
1700516547518454500,0.96445458984375,-0.4308195207059383,2.3886307281561194,-0.24236078604478387
1700516547528464600,0.974464599609375,1.2677274409651755,-1.6774689561985432,0.5181763171195983
1700516547538475500,0.9844755859375,1.0950783794522285,-0.363071972386539,-0.6717209382552654
1700516547548485600,0.994485595703125,-1.3452712838947771,0.07274374917149544,0.5078319967051967
1700516547558495500,1.00449560546875,-0.9416536583691835,0.8304233805455267,-0.3418020245384425
1700516547568505600,1.014505615234375,-0.7567658775299787,0.1621671227261424,0.3549569819267839
1700516547578515500,1.024515380859375,2.2258581868827343,-0.28688948093801736,-0.30369167225491256
1700516547588525600,1.034525634765625,0.944955622524023,-0.6859196325428784,-0.039684725460782645
1700516547598535400,1.044535400390625,-2.2546365375995636,0.27122341751158235,-0.0889788081249222
1700516547608546600,1.054546630859375,-0.5584738407164812,2.422761984208226,-0.1660982881626114
1700516547618556400,1.064556396484375,1.2965227428168058,-2.0700338573120534,0.4904791857682168
1700516547628566500,1.07456640625,1.535369492858648,-0.11466098292469977,-0.719221890424937
1700516547638576400,1.084576416015625,-1.5817793618559837,-0.04765402383953333,0.4809655440242961
1700516547648586500,1.09458642578125,-1.1813935578584671,0.8120030499748885,-0.29901005377732215
1700516547658596600,1.1045966796875,-0.6952274129837751,0.17616408389657734,0.3223973591055721
1700516547668607700,1.114607666015625,2.480747140187025,-0.6116271926246583,-0.3272100931495428
1700516547678617600,1.12461767578125,0.8967734831571579,-0.5505312111489474,-0.0295243467785418
1700516547688627500,1.13462744140625,-2.3517343913048503,-0.010169365706294774,-0.07149334725160152
1700516547698637600,1.144637451171875,-0.4785983399689197,2.4635654115006327,-0.22975717892888933
1700516547708647400,1.1546474609375,1.4076573051810264,-2.156230962296575,0.5404312208844348
1700516547718657500,1.164657470703125,1.4915262594789265,-0.12489537669122218,-0.797424708719924
1700516547728667400,1.17466748046875,-1.6613544183522462,0.10378113086149096,0.4937428637392819
1700516547738678800,1.1846787109375,-1.312630412530899,0.7002244906187057,-0.30842147725578395
1700516547748688600,1.194688720703125,-0.5072831671833992,0.191333742108196,0.30145247849337753
1700516547758698800,1.20469873046875,2.4998849713772535,-0.49892523481324313,-0.3227499354029074
1700516547768708600,1.21470849609375,0.6084662443757057,-0.409557244707644,-0.10398227945677936
1700516547778718700,1.22471875,-2.4445021068513393,0.2548771167360246,-0.004170929009094834
1700516547788728800,1.234728759765625,-0.5632961463063955,2.2929824887372554,-0.2896396198963746
1700516547798739700,1.24473974609375,1.5225690479964018,-1.7281389668583869,0.4929241677675396
1700516547808749600,1.25474951171875,1.5457774896264076,-0.3320864670142531,-0.7661387590963393
1700516547818759700,1.264759765625,-1.6188111616551875,0.18137421976029872,0.5006198733692988
1700516547828769800,1.274769775390625,-1.1306862839281557,0.774011026841402,-0.29084687679428606
1700516547838779600,1.284779541015625,-0.4649415705382824,0.18614581807628272,0.27394940840937193
1700516547848789800,1.294789794921875,2.18080733127892,-0.4655965273156762,-0.23731365872304885
1700516547858799600,1.304799560546875,1.1789531789690255,-0.6016999651111662,-0.10163308598212897
1700516547868810800,1.314810791015625,-2.4390181224822998,0.14129896061196923,0.03336903950795531
1700516547878820600,1.324820556640625,-0.3406476668715477,2.321329900690913,-0.21005743953958153
1700516547888830700,1.334830810546875,1.242306583982706,-1.8586295332081615,0.42912345737777646
1700516547898840600,1.344840576171875,1.5698381641715764,-0.36197643223479387,-0.6708013391923159
1700516547908850700,1.3548505859375,-1.4364543605983255,-0.01331686995178461,0.5005953965151683
1700516547918860800,1.36486083984375,-1.0534370400309563,0.6424152757287025,-0.28139311201144007
1700516547928871700,1.37487158203125,-0.48666181943714615,-0.002828647554665804,0.2709808043947443
1700516547938881500,1.384881591796875,2.1030828710854053,-0.45031303346604107,-0.19416520267445592
1700516547948891600,1.3948916015625,0.9912146848738193,-0.8159760452590882,-0.05411949352659285
1700516547958901800,1.40490185546875,-2.395700958803296,0.20102102338597178,-0.03204586461279541
1700516547968911600,1.41491162109375,-0.6055892276346683,2.2410741684541104,-0.176624212221615
1700516547978921700,1.424921630859375,1.1988479660063982,-1.8840610577151178,0.49062074966337527
1700516547988931600,1.434931640625,1.597910996967554,-0.3534145017251372,-0.7718813213363289
1700516547998942700,1.444942626953125,-1.6003630662947892,0.29777649339437484,0.5550212891098112
1700516548008952600,1.45495263671875,-1.3843407270014285,0.6122377257384359,-0.29499318281877784
1700516548018962700,1.464962646484375,-0.38686230555772777,0.2968000495776534,0.21423794009461997
1700516548028972500,1.47497265625,2.2594763788461685,-0.2842753529168665,-0.22827702337373046
1700516548038982700,1.484982666015625,0.7986807731956242,-0.8312912494212389,-0.11053747325390577
1700516548048992500,1.494992431640625,-2.22804839040339,0.4996035724662244,-0.04601104240547865
1700516548059002600,1.505002685546875,-0.6636702452033758,2.319771419202536,-0.1465145763684064
1700516548069013500,1.515013427734375,1.1687848361760378,-1.466132436633855,0.4816846886117011
1700516548079023600,1.525023681640625,1.27935708848238,-0.6332119785755872,-0.8162137995377182
1700516548089033700,1.53503369140625,-1.056259111714363,0.46370311478450893,0.47056635161750016
1700516548099043600,1.545043701171875,-1.3097054649949074,0.6487047312617301,-0.22104601267427204
1700516548109053700,1.5550537109375,-0.5186667309850455,0.24185104642435906,0.17010467425975948
1700516548119063600,1.5650634765625,1.9017513204455374,-0.35485943983644247,-0.13227273705881087
1700516548129074700,1.57507470703125,1.3056938912659883,-0.7131134905472397,-0.15378548068683592
1700516548139084500,1.58508447265625,-2.2791262512117623,0.05622501443848014,0.04049326536469161
1700516548149094700,1.5950947265625,-0.6887777984529734,2.267367716617882,-0.23285722730346023
1700516548159104500,1.6051044921875,1.064912958291173,-1.3669300118647516,0.5589977184601128
1700516548169114600,1.615114501953125,1.4015449597805738,-0.9240585265763104,-0.6534115937784314
1700516548179124500,1.62512451171875,-0.7933569478243588,0.2581095227859914,0.3686031568981707
1700516548189134600,1.635134521484375,-1.2534423105031252,0.6564015693746507,-0.21057130734585225
1700516548199145500,1.6451455078125,-0.6058481708317994,0.20505933899134396,0.3114269792146981
1700516548209155600,1.655155517578125,1.5640858842551708,-0.4810682372137904,-0.17372976942174134
1700516548219165400,1.66516552734375,1.8960253440141677,-0.8154751099996268,-0.1935635104542598
1700516548229175600,1.675175537109375,-1.8823551305800674,-0.035809856788814064,-0.005696275412850081
1700516548239185700,1.685185546875,-0.8654892870992421,2.1707988552227615,-0.24213373582325876
1700516548249195500,1.695195556640625,0.7430062322467565,-1.1829727898739277,0.5768609996698797
1700516548259206700,1.70520654296875,1.6395324626445769,-0.966911579874903,-0.5969034880822524
1700516548269216500,1.715216552734375,-0.5937327856242657,0.20723916724845765,0.2745448900844902
1700516548279226600,1.7252265625,-1.3990385299175976,0.6561290360435843,-0.19398644857406616
1700516548289236500,1.735236572265625,-0.8215373326480389,0.19127134439647198,0.3374910660041496
1700516548299246600,1.74524658203125,1.5496026008725166,-0.2860923392109573,-0.23926815379168836
1700516548309256400,1.75525634765625,1.9292191730856894,-0.8124678910076618,-0.1077131000155583
1700516548319266600,1.7652666015625,-2.1999434089034793,0.08097878581434488,-0.05959770574197173
1700516548329277400,1.77527734375,-0.9446025713026523,2.204079339664429,-0.17386764352247117
1700516548339287600,1.78528759765625,0.8095306685119867,-1.1146421809695661,0.541893110130541
1700516548349297400,1.79529736328125,1.748187483152747,-0.9566294014438986,-0.5923119590409099
1700516548359307500,1.8053076171875,-0.9953063381016254,0.3712333592712879,0.2643903200885281
1700516548369317600,1.815317626953125,-1.3476613939017057,0.6628060295894742,-0.22653587879482656
1700516548379327500,1.825327392578125,-0.7505699454993009,0.31085663198083635,0.4164177781268954
1700516548389338400,1.83533837890625,1.817979981303215,-0.2936393935896456,-0.29641273076049984
1700516548399348500,1.845348388671875,1.5432523550629615,-0.6996341235101222,-0.11109364583194255
1700516548409358600,1.855358642578125,-2.1187562410354612,0.09082125765383244,0.0069395534722134465
1700516548419368400,1.865368408203125,-0.8507645961761474,2.1367035472668707,-0.250909710942395
1700516548429378600,1.875378662109375,1.0697779339790343,-0.9929095060929656,0.48704515619892624
1700516548439388400,1.885388427734375,1.6239380031496284,-0.9201162186913192,-0.5706329920005053
1700516548449398500,1.8953984375,-1.3951695795297623,0.2502576402418315,0.28456973275355996
1700516548459409400,1.905409423828125,-1.0287281307101248,0.704871731902659,-0.34590427222549913
1700516548469419500,1.91541943359375,-0.5959948853373527,0.06833177794814109,0.4713040547749027
1700516548479429400,1.925429443359375,1.7393115182578562,-0.19967370043024418,-0.4221884339502081
1700516548489439500,1.935439453125,1.3679039714634418,-0.7471179053492844,-0.08144278659690171
1700516548499449600,1.94544970703125,-2.0648884572476147,-0.07008198261633515,-0.020645861133001743
1700516548509459500,1.95545947265625,-0.799818837314844,2.0366785540685055,-0.2456203723626211
1700516548519470300,1.96547021484375,1.1206517966479062,-0.9237781021997332,0.3969785163046792
1700516548529480400,1.97548046875,1.7402186962306498,-1.149970976243168,-0.44240770370159294
1700516548539490600,1.985490478515625,-1.4884160185039041,0.38582492533400653,0.2691391951160505
1700516548549500400,1.99550048828125,-1.0299170482337474,0.5475961806103586,-0.3110052466712892
1700516548559510500,2.005510498046875,-0.48316754758059977,-0.05242956767827272,0.5062056741449982
1700516548569520400,2.015520263671875,1.6874562433362006,0.11083718685284256,-0.372780479115434
1700516548579530500,2.025530517578125,1.477901638752222,-0.9817879542283713,-0.03089914226308465
1700516548589541400,2.035541259765625,-2.121234029325843,-0.057158495896309613,0.03558171058874577
1700516548599551500,2.045551513671875,-0.7270142978668213,2.101738470739126,-0.20739030268955974
1700516548609561300,2.055561279296875,1.0435796628832816,-0.808273069666326,0.4166002585543319
1700516548619571500,2.065571533203125,1.8122984285354613,-1.2798117003820835,-0.39762236716616894
1700516548629581600,2.07558154296875,-1.5086527508467436,0.6369134634420275,0.24112017486654222
1700516548639591400,2.08559130859375,-1.0977619194477797,0.38514191150590776,-0.1925698597744107
1700516548649602300,2.095602294921875,-0.45790275794267654,0.04026274454444646,0.45874406760502606
1700516548659612400,2.1056123046875,1.6099690990298985,0.12458163456693291,-0.3277037949506193
1700516548669622500,2.11562255859375,1.5534060848087072,-0.8748968746528029,-0.10466591433938592
1700516548679632400,2.12563232421875,-2.1849615283489228,-0.07367153154090046,0.07563256594818085
1700516548689642500,2.135642578125,-0.7842740621805191,2.1353684992708266,-0.2592883938396349
1700516548699652400,2.14565234375,0.9459510633021593,-0.7109956216104328,0.39343200280424206
1700516548709663700,2.155663818359375,1.9489625689536332,-1.3960028154835105,-0.4106721106143668
1700516548719673300,2.16567333984375,-1.4474240829020737,0.6990596846230328,0.13723258795589208
1700516548729683500,2.175683349609375,-1.2520301056176424,0.39978856875672936,-0.18471209547873585
1700516548739693300,2.185693359375,-0.439104533970356,0.019500234761834143,0.47225792143363504
1700516548749703400,2.195703369140625,1.6053583903640507,0.01115706156939268,-0.3512872804380953
1700516548759713500,2.205713623046875,1.6214683981657028,-0.7762022532753646,-0.14953100158013402
1700516548769724700,2.215724609375,-2.1619898180842396,-0.18205241128280758,0.15392755603864788
1700516548779734500,2.225734619140625,-0.8303367251753807,2.0654859847493467,-0.3264897429857403
1700516548789744600,2.23574462890625,0.9988111313521861,-0.626420126478374,0.44696964132227
1700516548799754500,2.24575439453125,2.0652771643042565,-1.4358039338655768,-0.4241408831922337
1700516548809764600,2.2557646484375,-1.532770124015212,0.6669913524501025,0.18740959093440324
1700516548819774700,2.265774658203125,-1.2314268780499695,0.38577261062487955,-0.19393468185421078
1700516548829785600,2.27578564453125,-0.2937427078336477,0.11557152189835905,0.45478082652986046
1700516548839795700,2.285795654296875,1.6704501634776592,-0.33578678283691404,-0.2230608230954036
1700516548849805600,2.2958056640625,1.3299644091695546,-0.350895212380588,-0.2104595175344497
1700516548859815700,2.305815673828125,-2.086900382569432,-0.40638840541318055,0.22902473646849392
1700516548869825500,2.315825439453125,-0.8263193062275648,1.7873114329256117,-0.334676008583419
1700516548879835600,2.325835693359375,0.9231658155202865,-0.1950020553573966,0.37446711702812463
1700516548889846500,2.335846435546875,2.08966458658576,-1.4048345028452573,-0.25810828067697583
1700516548899856600,2.345856689453125,-1.3637497743934393,0.429236635428667,0.13876480249185114
1700516548909866500,2.355866455078125,-1.2682172703087329,0.3472502800069749,-0.2256004976408556
1700516548919876600,2.365876708984375,-0.22574001570940017,0.02503331896960735,0.48158656199947
1700516548929886500,2.375886474609375,1.0258809245854617,0.3800179926209152,-0.283531768007949
1700516548939897600,2.385897705078125,1.8105442783445118,-0.6958319547481835,-0.1453937921775505
1700516548949907500,2.395907470703125,-1.8401707703232764,-0.5626398743547499,0.1755683830257505
1700516548959917600,2.40591748046875,-0.889137873712182,1.6700016890577971,-0.33594697836730625
1700516548969927400,2.415927490234375,0.5569727885037661,0.48822789971008895,0.2746503962855786
1700516548979937500,2.4259375,1.9119237548917531,-1.7700066623814403,-0.06399122799318284
1700516548989947600,2.43594775390625,-0.8641998318105936,0.39039720168560743,-0.05239727284386754
1700516548999958500,2.44595849609375,-1.3132511747777462,0.09586436638757585,-0.16180720337256788
1700516549009968600,2.45596875,-0.22695991289317607,0.39076135882288215,0.3117896385146305
1700516549019978500,2.465978515625,0.2721493001848459,0.06059490008577704,-0.16458960063271225
1700516549029988600,2.475988525390625,2.2191583969831465,-0.341716611277312,-0.19317447460405526
1700516549039998500,2.48599853515625,-1.218115561056137,-0.8067112271770834,0.1433463581284508
1700516549050008600,2.496008544921875,-1.2407739675879477,1.1628386411227285,-0.351645884617418
1700516549060019500,2.50601953125,0.2670142753839493,1.108624674245715,0.2296700486347079
1700516549070029600,2.516029541015625,1.760591622173786,-2.017947550113499,0.08175612686239182
1700516549080039400,2.526039306640625,-0.038326515784859655,0.30374241606146096,-0.28160087301060555
1700516549090049500,2.536049560546875,-1.83718035633564,0.0934660730741918,0.08222294065654277
1700516549100059400,2.546059326171875,-0.3288122676491737,0.40958150236606594,0.08540723324846476
1700516549110070500,2.556070556640625,0.18778233323693275,0.1714990146949887,0.08538465609047562
1700516549120080400,2.566080322265625,2.226152785915136,-0.3518225563585758,-0.3599791574703529
1700516549130090500,2.576090576171875,-0.4750701658427715,-0.7993665635026991,0.20099227221552282
1700516549140100400,2.586100341796875,-1.5489058507800102,0.7948183986790478,-0.28305151021033526
1700516549150110500,2.5961103515625,-0.0253057061702013,1.5823206291258334,0.02692220145612955
1700516549160120600,2.60612060546875,1.7122107453644275,-1.7868375318035483,0.22608272819984704
1700516549170131500,2.61613134765625,0.5333183566719293,0.010951748255640268,-0.43112770987227556
1700516549180141600,2.6261416015625,-1.809570464876294,0.16486965968310832,0.17673998408839106
1700516549190151400,2.6361513671875,-0.46286359522044657,0.4690120348475873,-0.18142485396899283
1700516549200161500,2.64616162109375,-0.05356032527387142,0.13779869740605352,0.32094084015432744
1700516549210171400,2.65617138671875,2.161099591246247,-0.03269844677001238,-0.5244898111153393
1700516549220182500,2.6661826171875,-0.14375439094007014,-0.989273779939115,0.22119586947374045
1700516549230192400,2.6761923828125,-1.7942407937973737,0.6277772401757538,-0.27710951640810816
1700516549240202500,2.686202392578125,-0.12196049228310585,1.7629131969891487,-0.02759615519493818
1700516549250212400,2.69621240234375,1.6541694752842186,-1.5233882554247975,0.29766864910572766
1700516549260222500,2.706222412109375,0.7687520833998918,-0.2470198273643851,-0.5073986833218485
1700516549270233600,2.716233642578125,-1.9845482615977525,0.39858153105452654,0.2953149255864322
1700516549280243500,2.726243408203125,-0.6085702892720699,0.4242587008856237,-0.19042499323282389
1700516549290253300,2.73625341796875,0.09435410795509815,0.17277999441623687,0.30634010440446435
1700516549300265000,2.746264892578125,1.8847306275397537,0.06605053514316678,-0.4584170641403645
1700516549310274800,2.75627490234375,0.16739596329033374,-1.0042772878035902,0.2281463096661493
1700516549320285000,2.766284912109375,-1.7993319794565439,0.31266032040193675,-0.17924575636424123
1700516549330295800,2.7762958984375,-0.25369535960555073,1.8791938900701701,-0.11927950957082212
1700516549340306000,2.786305908203125,1.3562462668955326,-1.2266261997699737,0.34186939068622885
1700516549350315800,2.796315673828125,1.0609843866705895,-0.7766662175253033,-0.35883448094725606
1700516549360326000,2.806325927734375,-1.6849352004259823,0.39653541217967864,0.23842834196668117
1700516549370335700,2.816335693359375,-0.8995026158601045,0.3243932821631431,-0.15998583316430448
1700516549380347000,2.826346923828125,-0.11767653135359286,-0.10019581972062587,0.4305329953821376
1700516549390356700,2.836356689453125,1.8293705593675373,0.16059636627808213,-0.439952602167055
1700516549400366800,2.846366943359375,0.7537947527647018,-1.1206396678186952,0.2119563319634646
1700516549410376700,2.856376708984375,-1.904150782802701,-0.04024827762767672,-0.12019457858912647
1700516549420386800,2.86638671875,-0.5545592976212501,2.0226285475365815,-0.19185572015568614
1700516549430397700,2.876397705078125,1.1651765825510025,-0.8634282629162072,0.36719811240583655
1700516549440407800,2.88640771484375,1.652065196481347,-1.3141136368259787,-0.24086039141919463
1700516549450417700,2.896417724609375,-1.4062345789015291,0.6482638556264341,0.030355061981640754
1700516549460427800,2.906427734375,-1.1190233186632395,0.15405366663634776,-0.03348886649534106
1700516549470438000,2.91643798828125,-0.24514263531565664,0.13969021024107933,0.41629594184551383
1700516549480449000,2.926448974609375,1.3486866452962158,0.22937983351647853,-0.35278022240959106
1700516549490459000,2.936458984375,1.507851955857873,-0.7758049245208501,0.06652502078711986
1700516549500468700,2.94646875,-1.8048358375698328,-0.34919396142065523,0.02498546123988926
1700516549510478800,2.956478759765625,-0.8365548690378666,1.9609420528218149,-0.3118498442692682
1700516549520488700,2.96648876953125,1.0239987641006707,-0.018925795874744654,0.26924123071841893
1700516549530499800,2.976499755859375,1.713401416453719,-1.7009221663698553,-0.08510759271476417
1700516549540510000,2.986510009765625,-1.2333411872386932,0.8194318848013877,-0.04394972596149891
1700516549550520000,2.99652001953125,-1.1302426318138836,0.25866730279922484,-0.12158497350160032
1700516549560530000,3.006530029296875,-0.3828285199970007,0.16840470194146037,0.36922801079824563
1700516549570540800,3.016540771484375,1.1167010131955146,0.18384367861375212,-0.30449509759228677
1700516549580551000,3.026551025390625,1.6370605195730923,-0.6297691446453333,-0.08985011106673628
1700516549590561000,3.03656103515625,-1.6843506785362958,-0.38486265617311,0.02679218186829239
1700516549600571000,3.04657080078125,-1.004559319615364,1.7115166256204246,-0.38586953166071325
1700516549610581000,3.0565810546875,0.6881412541151046,0.21391776822954414,0.2930363861951977
1700516549620591900,3.066591796875,1.9675556257426738,-1.6409917215421794,-0.16896153210662304
1700516549630602000,3.07660205078125,-1.1628250509887934,0.2927098576545715,-0.10575188294518738
1700516549640611800,3.08661181640625,-1.1723726315349339,0.35003362711519,-0.169535788330622
1700516549650622000,3.0966220703125,-0.3417313704550266,0.2838810929022729,0.41598428208045657
1700516549660631800,3.1066318359375,0.7348638423234224,-0.2014256586641073,-0.23033231193572282
1700516549670643000,3.116642822265625,2.0641163038313386,-0.1888419252924621,-0.20815723194144664
1700516549680652800,3.12665283203125,-1.7084604529201983,-0.8314179445408284,0.15246183086764067
1700516549690663000,3.136662841796875,-1.1052665959894656,1.350536364816129,-0.21930417397562413
1700516549700672800,3.1466728515625,0.8558972828894853,0.8951206013835966,0.13244875121284275
1700516549710683000,3.156682861328125,1.8347130894392727,-1.8932561715617775,0.017517682642489672
1700516549720693800,3.16669384765625,-1.0632879874378443,0.3870762405693531,-0.15726367819141596
1700516549730704000,3.176703857421875,-1.2010393385708331,0.25277985219582916,0.10382135327402502
1700516549740713700,3.186713623046875,-0.172460845464468,0.22133973492383954,0.15322791986931114
1700516549750723800,3.196723876953125,0.5675450359225273,0.19743819646313784,0.01999769942257553
1700516549760734700,3.206734619140625,1.7563976776152848,-0.2824161349162459,-0.16797526101563126
1700516549770744800,3.216744873046875,-1.3831822046160698,-0.8521605805791914,0.24583989686481653
1700516549780754700,3.226754638671875,-0.9501432542949915,1.2707501497872173,-0.30322431047149
1700516549790764800,3.236764892578125,0.43003801493942734,1.1636417741991578,0.1976733203932643
1700516549800775000,3.24677490234375,1.6878537182211875,-2.015524999141693,0.11755619290955364
1700516549810785800,3.256785888671875,-0.48217210680246353,0.35833018468692895,-0.23603698985073715
1700516549820795600,3.266795654296875,-1.4865063854902982,0.16948548291549084,0.14994009383767842
1700516549830805800,3.2768056640625,-0.2590080790609121,0.253903741659224,0.14085669673718512
1700516549840815900,3.28681591796875,0.32896307429671284,0.3198760969996452,0.018984942183457313
1700516549850826800,3.29682666015625,2.149301601424813,-0.3029360681146383,-0.2512299193400889
1700516549860836900,3.3068369140625,-0.9882938289910554,-0.917638138139993,0.16901096073891966
1700516549870846700,3.3168466796875,-1.2738333566248417,1.037759870688617,-0.28360238555874673
1700516549880856800,3.32685693359375,0.13003916932046414,1.4950678776085375,-0.05558280754480511
1700516549890866700,3.33686669921875,1.8387533047407865,-2.0559159001104534,0.280111474703066
1700516549900878000,3.346878173828125,0.20268705690205097,0.12862827960923312,-0.4927097578318789
1700516549910888000,3.356887939453125,-1.8155729201614856,0.24207974061369894,0.14864607197176663
1700516549920898000,3.36689794921875,-0.5440770665735006,0.34425182884335515,-0.05459748630188405
1700516549930908000,3.376907958984375,0.22576164301931856,0.18321195658147335,0.10516772638168186
1700516549940919000,3.3869189453125,2.1592565937280654,-0.15141221221685408,-0.37095742840673773
1700516549950929000,3.396928955078125,-0.4465156870096922,-1.0237800067834555,0.11110646878089755
1700516549960939000,3.40693896484375,-1.7370593554168938,0.7593481491081416,-0.22208700962718575
1700516549970948900,3.416948974609375,-0.19263912561833857,1.7617289556406437,-0.10280300654433668
1700516549980960000,3.4269599609375,1.9183125791460274,-1.8733996707081793,0.27246402868982406
1700516549990969900,3.436969970703125,0.6099813251137733,-0.16898396313413977,-0.5065576659204438
1700516550000980000,3.44697998046875,-2.162657342082262,0.5197928124055267,0.1887562197703868
1700516550010989800,3.45698974609375,-0.5352665681302547,0.33367782785892486,-0.19952347830459474
1700516550021000000,3.467,-0.004462240105867385,0.05877309148609638,0.18595818654969334
1700516550031010800,3.4770107421875,2.2555080597370862,-0.1163528815343976,-0.4000704544380307
1700516550041021000,3.48702099609375,0.3055541416585445,-0.8852544564075767,-0.049346105112321674
1700516550051030800,3.49703076171875,-2.250190079584718,0.45908568411692974,-0.032235870759561656
1700516550061041000,3.507041015625,-0.21101415574252605,2.1342223979756234,-0.16210567486248909
1700516550071051800,3.5170517578125,1.4896797548294067,-1.810921002702415,0.39652383133973923
1700516550081062000,3.527061767578125,1.2676134591966868,-0.5510398913234472,-0.45020423932932313
1700516550091071700,3.53707177734375,-1.7127157722771167,0.3801965640582144,0.3985156992767006
1700516550101081900,3.547081787109375,-1.0006266563415527,0.5457752487935126,-0.3150492248324677
1700516550111092000,3.557092041015625,-0.3194534876734018,0.28937662157863375,0.41578583689890797
1700516550121102800,3.567102783203125,1.7916788343548773,-0.4361627814300358,-0.21972864646539092
1700516550131112700,3.57711279296875,1.3539111019462347,-0.6839858880013227,-0.08630191706586629
1700516550141122800,3.587122802734375,-2.2595278167724606,0.0340285263299942,-0.023784670615382492
1700516550151133000,3.5971328125,-0.6661766750663518,2.2515382793232797,-0.15672051122542469
1700516550161143800,3.607143798828125,1.1424591393083334,-1.0076390193216502,0.4284902740407735
1700516550171153700,3.617153564453125,1.4434166008263825,-1.0149636631213128,-0.4650506569359451
1700516550181163800,3.627163818359375,-1.0806447804301977,0.444409508510679,0.3162417590852827
1700516550191174000,3.637173828125,-1.2351257325679064,0.6150571670733392,-0.15741488669775425
1700516550201184800,3.647184814453125,-0.5245359152793884,0.38806159834489223,0.32680224300101396
1700516550211195000,3.65719482421875,1.0213169776707887,-0.16339257286787032,-0.1434826613266021
1700516550221204700,3.667204833984375,2.1187498112946748,-0.7535751186646521,-0.044436998021788895
1700516550231214800,3.67721484375,-1.703565082094073,-0.3097681791570037,-0.1179738703323528
1700516550241226000,3.68722607421875,-1.0103396565824747,2.230427686755359,-0.2595407611655071
1700516550251235800,3.69723583984375,0.4257148910433054,-0.44269517887346443,0.37372079217284915
1700516550261245700,3.70724560546875,1.3181652503043413,-1.4703725584216416,-0.2539486402468756
1700516550271255800,3.717255859375,-0.005174772289395332,0.1725039539538324,-0.03781611857730895
1700516550281267000,3.727266845703125,-0.9236065450251102,0.3609356910102069,-0.17357161971796303
1700516550291277000,3.737277099609375,-0.8828700454890728,0.26740634344145653,0.34498734004367143
1700516550301286400,3.747286376953125,0.40791386141479014,-0.12430866284444927,-0.23742420642543582
1700516550311296500,3.757296630859375,2.934305146923661,-0.7150007655985653,-0.11901435582861304
1700516550321307400,3.767307373046875,-1.2614409080415963,-0.7313245622813701,-0.14335746404435484
1700516550331317500,3.7773173828125,-1.3598358158200978,1.9381060977660118,-0.17408059215340763
1700516550341327400,3.787327392578125,0.463159363296628,0.060516428022086614,0.3676922525983304
1700516550351337500,3.79733740234375,1.3845868107169865,-1.861233139835298,-0.2775109733484685
1700516550361348400,3.807348388671875,-0.04129121080935001,0.32439664316400885,0.014477766957320271
1700516550371358500,3.8173583984375,-1.0596844099879263,0.3703773269638419,-0.023694544646516442
1700516550381368300,3.827368408203125,-1.063997012490034,0.6146748897574842,0.2826034011166543
1700516550391378400,3.83737841796875,0.3440156819999218,-0.3690456399686634,0.13108612109012902
1700516550401389300,3.847389404296875,2.7310820834487677,-0.4507014482617378,-0.28392719706632197
1700516550411399400,3.8573994140625,-1.4457809918701647,-0.4175231090202927,0.1304203871903941
1700516550421409300,3.8674091796875,-1.4947674333572387,1.9190546296849846,-0.22479930079318583
1700516550431419400,3.87741943359375,0.165358904504776,0.40886794726923104,0.5333733747947961
1700516550441430500,3.887430419921875,1.7000076818734406,-1.5809094471536576,-0.34730182753112165
1700516550451440600,3.897440673828125,-0.4036053505659103,0.5794184290677309,0.09061868428643792
1700516550461450500,3.907450439453125,-1.346315824511647,0.5485825612992048,-0.08262501865141093
1700516550471460600,3.917460693359375,-0.9613187283039093,0.42178778072744605,0.362285278988257
1700516550481471500,3.927471435546875,0.8252566454321145,0.0566926319502294,-0.12027272185925393
1700516550491481600,3.937481689453125,2.3243612312108275,-0.461301752731204,-0.3202330206785351
1700516550501491500,3.947491455078125,-1.6772347090512514,-0.5197741077050566,0.12340411522015929
1700516550511501600,3.95750146484375,-1.2662357411026954,1.6295158032819628,-0.2933018687309697
1700516550521512400,3.967512451171875,0.3680301793158054,0.4259790949374437,0.27427750785257665
1700516550531522600,3.9775224609375,1.993406106314063,-1.6604938560001552,-0.2326788750618696
1700516550541532400,3.987532470703125,-0.32420506611466404,-0.02710705650374293,-0.10461458601094782
1700516550551542500,3.99754248046875,-1.4945868160933256,0.29623481691032644,-0.07370090376585721
1700516550561553400,4.007553466796875,-0.2776233476817608,0.46166211047619576,0.10534100058935582
1700516550571563500,4.0175634765625,-0.06322247211039066,-0.23240970273166894,0.03653360448610037
1700516550581573400,4.027573486328125,2.7341490698039532,-0.3553784952744841,-0.42783034882731735
1700516550591584500,4.03758447265625,-0.6528963377326726,-1.026122332125902,0.11059965176992118
1700516550601594400,4.047594482421875,-1.7554677032887935,1.1124810574129222,-0.21557718934174624
1700516550611604500,4.0576044921875,0.17201543978452682,1.0638336386218668,0.19335205966066568
1700516550621614300,4.0676142578125,1.8211439982920885,-1.6729992634385824,0.020748188996315
1700516550631625500,4.07762548828125,0.29775895773768424,-0.1666140191324055,-0.23328469546791164
1700516550641635300,4.08763525390625,-1.6930156310290096,0.15806918588802218,0.17732300814073532
1700516550651645400,4.0976455078125,-0.3228308551520109,0.6419105410769581,0.02603215728122741
1700516550661655600,4.107655517578125,-0.45417117019891734,0.12408610613495111,0.14769012295380235
1700516550671666400,4.11766650390625,2.5277888773471116,-0.18121245332732797,-0.22963705968055872
1700516550681676300,4.12767626953125,0.27023499099612236,-1.065222754892707,0.09044979399293661
1700516550691686400,4.137686279296875,-2.3225240789115427,0.8198824050478637,-0.18804511235896496
1700516550701696500,4.147696533203125,0.039521278527379036,1.9894255122452973,0.09540157118141651
1700516550711707400,4.157707275390625,1.2315934667885302,-1.5941938761405645,0.20713219974264502
1700516550721717200,4.16771728515625,0.8645318402439355,-0.3891151990510523,-0.46864448017682875
1700516550731727400,4.177727294921875,-1.4715338572859764,0.31353812614977355,0.3386185356641188
1700516550741738500,4.187738525390625,-0.6287988383084535,0.6712935796886682,-0.21534272299874574
1700516550751748600,4.19774853515625,-0.6827344266355038,0.09546090015321969,0.2556791903665289
1700516550761758500,4.207758544921875,2.2441215733259914,-0.08287468256354331,-0.2643324889540672
1700516550771768600,4.2177685546875,1.1163690047621726,-1.1106931510828435,-0.04293178109060972
1700516550781779500,4.227779541015625,-2.620689863884449,0.6891979235611856,-0.11595010941978544
1700516550791789600,4.23778955078125,-0.347728565043211,2.0729786785922943,-0.047457222625799475
1700516550801799400,4.24779931640625,1.2057459088265896,-1.6676541030183434,0.3747767674991861
1700516550811809500,4.2578095703125,1.5142740978598594,-0.6693186263538896,-0.6690212508425116
1700516550821820400,4.2678203125,-1.5210399387329816,0.43246787243485446,0.4140733704252168
1700516550831830500,4.27783056640625,-1.0701911909550428,0.5447749857097863,-0.19816789897717535
1700516550841840400,4.28784033203125,-0.600248451128602,0.17370748452469706,0.3406208519298583
1700516550851851500,4.2978515625,2.2294547500699755,-0.24568156449794767,-0.2993859378850087
1700516550861861400,4.307861328125,1.3318021459907292,-0.9024575201429426,-0.0750786949250847
1700516550871871500,4.31787158203125,-2.7310516883105036,0.3340275180794298,0.04402666365522891
1700516550881881600,4.327881591796875,-0.5711000980556011,2.1744562086865304,-0.26657877004351466
1700516550891892500,4.337892578125,1.31798112590909,-1.5217391730435192,0.5892716414969414
1700516550901902300,4.34790234375,1.7849270220071076,-0.8211141387999057,-0.7182128595128655
1700516550911912400,4.357912353515625,-1.751428657031059,0.5479455785699189,0.4297306660233065
1700516550921923300,4.36792333984375,-1.323659756067395,0.5650767461128533,-0.29162600794062016
1700516550931933400,4.377933349609375,-0.4109270717561245,0.08156140800788998,0.40073030658625064
1700516550941943300,4.387943359375,2.0750936249196528,-0.07740443445891142,-0.3810248315759003
1700516550951953400,4.397953369140625,1.731012476468086,-0.963316624122858,-0.11102350320518016
1700516550961964300,4.40796435546875,-2.9631062939941883,0.25434213307648895,0.011424224605597555
1700516550971974400,4.417974365234375,-0.42963177222609517,2.202176867043972,-0.32705786172989754
1700516550981984300,4.427984375,1.4193722928941248,-1.3937144122853875,0.5277738742873073
1700516550991994400,4.437994384765625,1.8608178370326756,-1.0088631542891264,-0.6890959244914352
1700516551002005500,4.448005615234375,-1.749483952704072,0.7463108267500996,0.4178289235664531
1700516551012015600,4.458015625,-1.4327034836322068,0.3652911097407341,-0.22323267253097145
1700516551022025500,4.468025390625,-0.3019353666394949,0.15055442634373903,0.24934790498577056
1700516551032036600,4.47803662109375,2.0994401306688784,-0.22273118928223848,-0.17651180135570466
1700516551042046500,4.48804638671875,1.6099264289319515,-0.7950269268631934,-0.2677574584340677
1700516551052056600,4.498056640625,-3.029965661302209,0.2824348396167159,0.21336806192491203
1700516551062066400,4.50806640625,-0.6533142708837986,2.20429298241511,-0.3492057979889214
1700516551072077600,4.51807763671875,1.464125042334199,-1.533089711358398,0.5154147434517741
1700516551082087400,4.52808740234375,2.068973680734634,-0.8437026949658989,-0.7167138531267643
1700516551092097500,4.53809765625,-1.9107751693785189,0.7811483313754201,0.44422640702873467
1700516551102108400,4.5481083984375,-1.6226099694162606,0.4277124946013093,-0.24893863006513564
1700516551112118500,4.558118408203125,-0.16623218020796776,0.1932875065244734,0.28082696602866053
1700516551122128400,4.56812841796875,2.31516261023283,-0.17644772314354776,-0.22885997436083852
1700516551132139500,4.578139404296875,1.4788672689139841,-0.7178497252888977,-0.225923993974179
1700516551142149400,4.5881494140625,-3.087379739394784,0.28848288760930296,0.2768329644890502
1700516551152159500,4.598159423828125,-0.5681856719136238,2.3693841758944094,-0.3437425276143476
1700516551162169300,4.60816943359375,1.4787550407111645,-1.6716497485257684,0.46958811770249154
1700516551172180500,4.618180419921875,1.9601912344545125,-0.8427356034994125,-0.5958477319516241
1700516551182190300,4.6281904296875,-1.9166677345484493,0.6079417821101843,0.4298141430556774
1700516551192200400,4.638200439453125,-1.558885977524519,0.49852352214455603,-0.20876330807581542
1700516551202211300,4.64821142578125,-0.26864041528105737,0.06844137580245734,0.20209712818488476
1700516551212221400,4.658221435546875,2.2361732446700335,-0.40466333518624303,-0.1493843596510589
1700516551222231300,4.668231201171875,1.4695014746755362,-0.5788029275178909,-0.2564932832283899
1700516551232241400,4.678241455078125,-2.7779116391628977,-0.15985577704384923,0.18450773201305418
1700516551242252500,4.68825244140625,-0.672694678658247,2.3344193916276095,-0.33696291394419964
1700516551252262400,4.698262451171875,1.4211878178834914,-1.4159674528867006,0.5642593287827447
1700516551262272300,4.708272216796875,1.9992922417432069,-0.9027344373881816,-0.4730133429108187
1700516551272283600,4.71828369140625,-1.6301596541434527,0.3639014089480042,0.2762943641003221
1700516551282293500,4.72829345703125,-1.528874285620451,0.8491070382274687,-0.08746931687742471
1700516551292303600,4.7383037109375,-0.4982581492066383,0.2500834527187049,0.35932518707364797
1700516551302313200,4.748313232421875,1.5344798505425452,-0.15291107247248292,-0.10031561017539352
1700516551312324400,4.758324462890625,2.039872089412808,-0.5607403243437409,-0.22280458331201225
1700516551322334200,4.768334228515625,-2.3327853606849906,-0.3703720662668347,0.10383837747406213
1700516551332344300,4.77834423828125,-0.9767214646190404,2.1089827427789567,-0.20883410828970372
1700516551342355200,4.788355224609375,0.8752332670003176,-0.3528590597994625,0.3907996084740385
1700516551352365300,4.798365234375,1.6660101352035999,-1.7036556829869747,-0.2514535720281303
1700516551362375200,4.808375244140625,-0.9019646220594644,0.398499551859498,-0.1173952667267993
1700516551372386300,4.81838623046875,-1.022813938230276,0.43510976524576545,-0.13722016686573624
1700516551382396200,4.828396240234375,-0.599438888311386,0.20026085266843438,0.2612171334125101
1700516551392406300,4.83840625,1.0587678796648978,-0.08441767422184347,-0.15426234095096586
1700516551402416000,4.848416015625,2.3604753316432237,-0.850454945705086,-0.33005711661111564
1700516551412427300,4.85842724609375,-1.5447189204841851,-0.4504506883710623,0.03603928163051605
1700516551422437000,4.86843701171875,-1.0564765538573264,1.820076369060576,-0.2467449924783781
1700516551432447200,4.878447265625,0.6381605408936739,-0.1301813542701304,0.23922931961864233
1700516551442458000,4.8884580078125,2.0491408530175685,-1.6537486195236444,-0.1982384434627369
1700516551452468200,4.89846826171875,-0.9934837988495826,0.8015266641460359,0.016684921612776814
1700516551462478000,4.90847802734375,-1.384854521742463,0.2912542520187795,-0.07861841335855424
1700516551472489200,4.9184892578125,-0.5709738413274288,0.1678891536347568,0.3239443693518638
1700516551482499000,4.9284990234375,0.9877391177177428,0.5080670110374689,-0.1947131919460371
1700516551492509200,4.93850927734375,1.9301175832301376,-0.7078023785270751,-0.2691134761529043
1700516551502519000,4.94851904296875,-1.8060054658710956,-0.07351195706501602,0.018364216469228267
1700516551512530400,4.958530517578125,-1.0667354975432157,1.9586552570588887,-0.1648985569840297
1700516551522540300,4.968540283203125,0.7342424955546856,0.36400545384436844,0.11573208275493234
1700516551532550400,4.97855029296875,1.686688766095042,-1.879379621900618,-0.09475775685254484
1700516551542561300,4.988561279296875,-1.2820301070839166,0.8669567293033004,0.024740473502874373
1700516551552571400,4.9985712890625,-1.275934712818265,0.21390154774710535,-0.03752696290500462
1700516551562581200,5.008581298828125,-0.14700959334373473,-0.1399633280940354,0.36907621777001764
1700516551572592400,5.01859228515625,1.0811486382991076,0.3464993155092001,-0.0976792337898165
1700516551582602200,5.028602294921875,1.5679764619529246,-1.0323181180261074,-0.11159260833002627
1700516551592612400,5.0386123046875,-1.760765225175023,-0.4654150332689285,0.13729363396074623
1700516551602623200,5.048623291015625,-0.7841098115295171,1.6683564060688019,-0.24670761961005627
1700516551612633300,5.05863330078125,1.1762614556670188,-0.02754267144203186,0.09291724355239421
1700516551622643200,5.068643310546875,1.8105524616509674,-2.2293812464423475,-0.05255750490687787
1700516551632653300,5.0786533203125,-1.3166115911215543,0.8083040493264794,-0.021295776409097016
1700516551642664200,5.088664306640625,-1.201453764590621,0.20961963264420627,-0.15330339625831693
1700516551652674300,5.09867431640625,-0.0421282461553812,-0.15933014573454857,0.25407898862827566
1700516551662684200,5.10868408203125,1.1705986075997352,0.1439087047189474,-0.14839388730898498
1700516551672695000,5.118695068359375,1.3023609474509954,-0.6290972367331386,-0.19723913022708148
1700516551682705200,5.128705078125,-1.7638380567491054,-0.42712958014681934,0.1950074621848762
1700516551692715300,5.13871533203125,-0.6803221047967672,1.4503773797497153,-0.301117839711532
1700516551702726100,5.14872607421875,1.236006607055664,0.7182512918271124,0.11584164407663046
1700516551712736300,5.158736328125,1.5565274316996336,-1.9337363582491873,0.053491022897325456
1700516551722746000,5.16874609375,-1.5814438462913036,0.8860323089122771,-0.03775426885485649
1700516551732757200,5.17875732421875,-0.7619166844218969,0.47221404575929044,-0.022871026369184255
1700516551742767400,5.188767333984375,-0.04920154554247856,0.06033274201825261,0.232001816050522
1700516551752777200,5.198777099609375,0.48015784437060355,0.5419214959748089,0.10097443941030651
1700516551762787000,5.208787109375,1.2328016735345124,-0.6385274745099246,-0.35549733588118104
1700516551772798200,5.218798095703125,-1.4156611634165048,-0.34125235476642846,0.2252271708164364
1700516551782808300,5.228808349609375,-0.6487468168377876,1.696732313464582,-0.34973340205959974
1700516551792818400,5.238818359375,0.6136567987561226,0.6111011229239404,0.10978278242908418
1700516551802829300,5.248829345703125,1.549301572099328,-2.238763115032762,0.04836206251103431
1700516551812839200,5.258839111328125,-1.1154355233043431,0.8950443212769925,-0.09625880906525999
1700516551822849300,5.268849365234375,-1.1026485224455593,0.425773343232274,-0.14484733727592974
1700516551832860200,5.278860107421875,-0.28769699792861936,-0.2470182199291885,0.3063191346816718
1700516551842870300,5.288870361328125,1.0946686296075583,0.2780973949342966,-0.17037110664360225
1700516551852880100,5.298880126953125,1.251191316705942,-0.6326219037279486,-0.09136906426232308
1700516551862891300,5.308891357421875,-1.6421066970467566,-0.5261781295284629,0.15322784680407495
1700516551872901000,5.318901123046875,-0.6932809550911188,1.3708321338698266,-0.22260303285792468
1700516551882911200,5.3289111328125,0.9393523956894874,0.6111822253361344,0.017445201928168536
1700516551892922000,5.338922119140625,1.7623334974050522,-2.1217815802060067,0.18264219386950134
1700516551902932200,5.34893212890625,-1.3283499597102404,0.6015051731914282,-0.09367219010554254
1700516551912942000,5.358942138671875,-1.2268687763541937,0.49373351138904686,-0.10315781133137643
1700516551922953200,5.368953125,0.08447744158506393,-0.3218699011653662,0.24781715175453572
1700516551932963000,5.378963134765625,0.9887994404256343,0.5828576097361743,-0.20312237957939505
1700516551942973200,5.38897314453125,1.4021587077647446,-0.6129957044988871,-0.15909725029412655
1700516551952983000,5.398983154296875,-1.6636515893787145,-0.6690329412803053,0.1394449667757377
1700516551962994400,5.408994384765625,-0.6525462091207503,1.4129039736628533,-0.29429628659579904
1700516551973004000,5.419004150390625,0.7968430363744496,0.9107797966778278,-0.047164450224302705
1700516551983014100,5.42901416015625,1.8038854049772024,-2.21448076056093,0.17870763089954853
1700516551993025300,5.439025390625,-1.2404589102894068,0.6963757062360644,-0.2209234822731465
1700516552003035400,5.449035400390625,-1.424431914371252,0.5668075154282153,-0.012028510641679167
1700516552013045200,5.459045166015625,0.022202479457855223,-0.18012699617817998,0.15986224331725388
1700516552023056400,5.469056396484375,0.8318009525090455,0.49380350788533683,-0.06854333833958953
1700516552033066200,5.479066162109375,1.3696370788663625,-0.36046734284609555,-0.16899492291957138
1700516552043076400,5.489076416015625,-1.4311445637524127,-0.6242778537526726,0.1676055509204045
1700516552053087200,5.499087158203125,-0.9381512032061815,0.9041371437929571,-0.20073036987632512
1700516552063097300,5.509097412109375,0.796724962952733,1.3459342778481542,-0.21900942881274968
1700516552073107200,5.519107177734375,1.5664619657367467,-1.740405889365822,0.45237215795293445
1700516552083118000,5.5291181640625,-0.7451572728008031,0.11496171943694353,-0.46767969026528294
1700516552093128200,5.539128173828125,-1.8710235892266034,0.5585322929054498,0.3090407416652888
1700516552103138300,5.54913818359375,-0.11700257761478423,0.3519008822917938,-0.16996146639678628
1700516552113149200,5.559149169921875,0.4593506186634302,0.020384762511402366,0.11296433507464826
1700516552123159300,5.5691591796875,1.7422504943192003,-0.24772666045948863,-0.14338913782425225
1700516552133169200,5.579169189453125,-0.11660042655467986,-1.0907654846891761,0.029368498629704115
1700516552143180000,5.589179931640625,-1.733409600737691,0.9245135038021951,-0.1027612862944603
1700516552153190100,5.599190185546875,-0.3372282138168812,1.982601365313679,-0.22514519162140786
1700516552163200300,5.6092001953125,1.5363427218049763,-2.0649407719567416,0.3903510975215584
1700516552173211400,5.61921142578125,0.9149415925323963,-0.2754639776907861,-0.3915147710060701
1700516552183221200,5.62922119140625,-1.3421212954312562,0.4147489681318402,0.267118502943404
1700516552193231000,5.639231201171875,-1.0714578498899936,0.6456192594017833,-0.18519604307077825
1700516552203242200,5.6492421875,-0.7430565011292696,0.13313640468344093,0.21303722253534943
1700516552213252400,5.65925244140625,2.2271932348787784,-0.010929244162887335,-0.21252050518486648
1700516552223262200,5.66926220703125,1.3815268386244772,-1.1326730738312005,0.132458541954495
1700516552233273300,5.6792734375,-1.727616404289007,-0.13347893451079726,-0.2964572274893522
1700516552243283200,5.689283203125,-0.7460293794602155,2.2878394267603754,-0.16519604209326208
1700516552253293300,5.699293212890625,0.8195932128429413,-1.0513614028006792,0.4414853646922856
1700516552263303200,5.70930322265625,1.5272300255447626,-1.4100196503981948,-0.3297964198483154
1700516552273314300,5.719314208984375,-0.8559335232466458,0.31228900287151334,-0.0065657151911407705
1700516552283324200,5.72932421875,-0.8759200802206992,0.6278070507921278,-0.10740951395910232
1700516552293334300,5.739334228515625,-1.2398007386416197,-0.011884791322052479,0.2690923602996394
1700516552303348200,5.74934814453125,1.6946949624180794,0.17764672366976736,-0.29223065930288283
1700516552313358300,5.7593583984375,1.737055263763666,-0.8569001032564788,0.025689079464599487
1700516552323368200,5.7693681640625,-1.7751362803548574,-0.16206358928643166,-0.2564033764552325
1700516552333379300,5.77937939453125,-0.8982593378007412,2.6276059268832204,-0.15163582837227732
1700516552343389200,5.78938916015625,0.6409393579572439,-1.1071481719523668,0.43309155729115006
1700516552353399300,5.7993994140625,1.6720049917042255,-1.0413935510158538,-0.39791652780715375
1700516552363410200,5.80941015625,-0.7370318340122699,0.8138281465101986,0.0566055381886661
1700516552373420300,5.819420166015625,-1.263888301193714,0.6387579222649336,-0.06009557226151228
1700516552383430100,5.82943017578125,-1.2783137169092893,0.0694699881978333,0.34686862374562766
1700516552393441500,5.839441650390625,1.8589491205513475,0.3936958048395812,-0.27546218759249896
1700516552403451400,5.849451416015625,1.7342250087738036,-1.1241126046262682,0.04676043600067496
1700516552413461500,5.85946142578125,-2.049783242574334,0.2289119237437844,-0.11647022430375217
1700516552423472400,5.869472412109375,-1.399677996864915,2.2784712944343686,-0.15920922276861965
1700516552433482500,5.879482421875,0.8059124780148267,-1.1247259142190218,0.4800611059978604
1700516552443492400,5.889492431640625,2.0267063183695075,-1.4563970784306526,-0.45084465612471103
1700516552453503500,5.89950341796875,-1.108751515495777,0.8936940757118165,0.1708393452098593
1700516552463513300,5.909513427734375,-1.8678923054635523,0.24078619367182252,-0.14801877038627861
1700516552473523500,5.9195234375,-0.7769318827241659,-0.03360021791532636,0.30985596703831103
1700516552483534300,5.929534423828125,2.279816571563482,-0.0735644179046154,-0.31312881469652054
1700516552493544400,5.93954443359375,1.8053098848223685,-1.0107507216013967,-0.008295790386758744
1700516552503554300,5.94955419921875,-1.876069182178378,-0.4596436102606356,0.0003630976913496852
1700516552513565200,5.959565185546875,-1.1259411352276802,1.9834604663610458,-0.3555051173288375
1700516552523575300,5.9695751953125,1.2603671413302422,-0.32354411798790095,0.3232845172036439
1700516552533585400,5.97958544921875,2.039013426756859,-1.7857322009101508,-0.27672928491886706
1700516552543595300,5.98959521484375,-1.0976415079385042,0.5863023433625698,0.14566227038800716
1700516552553606100,5.999606201171875,-1.3026233977794646,0.520597699047625,-0.36529023295789953
1700516552563616300,6.0096162109375,-0.6906886005103587,-0.144936148070544,0.38496509363427756
1700516552573626400,6.01962646484375,1.496738441169262,0.6090858375787734,-0.2797205026241019
1700516552583637200,6.02963720703125,2.1889847925156354,-1.4789374115407465,0.0456447663763538
1700516552593647400,6.0396474609375,-2.062583102914691,0.16219532590731978,-0.06275587751194835
1700516552603657200,6.0496572265625,-1.2876549612283705,2.0346075930133463,-0.3419041332060471
1700516552613668400,6.05966845703125,1.1719219651579855,-0.5853085100196301,0.36526118952650577
1700516552623678500,6.069678466796875,1.9506033218979835,-1.9140397241324185,-0.21901275328099726
1700516552633688600,6.0796884765625,-1.2941753029078245,1.461259569900483,0.017820574579201637
1700516552643699500,6.089699462890625,-1.9431226107537745,-0.48366278375163674,0.0785621531266719
1700516552653709300,6.099709228515625,-1.6366700589507817,-0.5652595553338527,0.13956095783822237
1700516552663719400,6.109719482421875,2.722489027148485,2.6798580921679735,-0.05327266743890941
1700516552673730300,6.119730224609375,3.5460528971880674,-5.512208593004941,-0.2513269134411588
1700516552683740400,6.129740478515625,-5.077431274583936,4.395375185601413,0.12639051061980425
1700516552693750300,6.139750244140625,-0.6870324160903691,0.9500129059135913,0.07222356122229248
1700516552703761400,6.149761474609375,3.4991105287492275,-5.130260947495699,0.4309869496947154
1700516552713771300,6.159771240234375,0.6519435670524836,-0.4267284520000219,-0.3748991152372211
1700516552723781400,6.169781494140625,-2.5306951201826333,2.0556518423467876,0.05250460567586124
1700516552733792300,6.179792236328125,-1.795448416021466,0.7899861562170087,0.40267384186945854
1700516552743802400,6.18980224609375,3.116924398308992,-2.7593723583877083,0.0401056542865932
1700516552753812200,6.199812255859375,2.972157030934095,-2.629781517356634,-0.9522510402292013
1700516552763822300,6.209822265625,-3.3405794244378804,5.473924747318029,0.6516640925239772
1700516552773833200,6.219833251953125,-2.052530495455861,-3.2210327152982354,-0.34503439405579117
1700516552783843300,6.22984326171875,2.8406916282027956,-4.633659333324432,0.13249847210608423
1700516552793853200,6.239853271484375,0.5834539681941271,1.1532666567876935,-0.49681675475928927
1700516552803864300,6.2498642578125,-3.330940073955059,2.759404507091641,-0.3455956081351265
1700516552813874200,6.259874267578125,0.6401075833082198,-0.6265111657626926,1.6444555982604623
1700516552823884300,6.26988427734375,3.0315117217004297,-9.236267110303043,-2.3444848585680127
1700516552833895400,6.2798955078125,-2.131172655016184,9.125233085703849,1.1135714829981327
1700516552843905500,6.289905517578125,0.09833353298008442,-3.276153421756625,0.3316340470716357
1700516552853915400,6.299915283203125,0.01884206311404705,-6.087701373061537,-1.1219031118832528
1700516552863926500,6.309926513671875,-0.9875567468881606,-0.39805078517869114,1.2949565164133905
1700516552873936400,6.319936279296875,-1.0004273343771695,7.246397945943475,-1.051173844339326
1700516552883946500,6.329946533203125,4.905606973457336,-10.053623357874155,0.7823400984432548
1700516552893957400,6.339957275390625,-3.8487697695940732,0.5649659792147577,-1.30274863159433
1700516552903967500,6.349967529296875,-0.2059101106017828,2.559256028756499,2.4238028715632853
1700516552913977300,6.359977294921875,2.7303286347329614,-7.767583381751179,-2.3291250846117735
1700516552923987500,6.369987548828125,-3.810458451378345,-2.58991478639245,1.389893977214396
1700516552933998300,6.379998291015625,-1.439258896625042,1.6551435810133814,0.6555088583186268
1700516552944008400,6.390008544921875,5.222141358813643,-7.753648964422941,-1.6753012567706405
1700516552954018300,6.400018310546875,-3.1029718608021732,-0.37122006139829755,1.1471098146583885
1700516552964029400,6.410029541015625,1.6602011566638946,-5.078722483438253,-0.8235323058575391
1700516552974039300,6.420039306640625,1.2950889106214045,-1.182896655897796,-0.3044131183972582
1700516552984049400,6.43004931640625,-0.20444822135567664,-0.4643057568527758,0.7286950174953788
1700516552994060300,6.440060302734375,1.4487579618543385,-7.28447077922821,-1.160902193167433
1700516553004070400,6.4500703125,0.16191782414019107,0.3710916127130389,-0.5537886785749345
1700516553014080300,6.460080322265625,-1.5700538527488708,-5.556198541378975,1.7357026801109312
1700516553024091100,6.470091064453125,-0.15924422101676464,-7.120977084073424,-1.5539204640716313
1700516553034101200,6.480101318359375,2.1006611968964335,4.907910574224591,0.13842935999240724
1700516553044111400,6.490111328125,2.6341245149970054,-5.2018046732276675,0.9208516933590173
1700516553054121200,6.500121337890625,0.10005436542332172,-6.341015039873123,-0.9845705706842243
1700516553064132400,6.51013232421875,-0.8113058614909648,1.6845969083823262,0.4097122160736471
1700516553074142500,6.520142578125,-1.594925259155035,-9.763988669881224,0.35956484104841946
1700516553084152600,6.530152587890625,0.07514321152865887,1.8748922473534941,-1.392671771364659
1700516553094163500,6.54016357421875,1.0725263559043408,-3.8947453388273714,1.0297950292892752
1700516553104173300,6.55017333984375,0.6854805104732513,-6.911641675198077,-0.11245346294306217
1700516553114183400,6.560183349609375,-0.5576239458888769,-3.336977016031742,0.8920935817126184
1700516553124194300,6.5701943359375,-0.7594798126637935,-8.629696470415592,0.019413287130743265
1700516553134204400,6.580204345703125,0.22296762838661668,0.5407306787550449,-0.24111681386567652
1700516553144214300,6.59021435546875,0.5446224254965781,-7.010735671156644,0.925551103221625
1700516553154225400,6.600225341796875,1.0537269628882409,-5.612920545554161,-0.27338216644804925
1700516553164235300,6.6102353515625,2.158715910980105,-1.6420524826414882,0.4431313418010249
1700516553174245400,6.620245361328125,0.18710779497623442,-7.18659551140964,0.28273155754096807
1700516553184255500,6.63025537109375,4.411543353331089,-0.3795288939297199,-0.17334511748570947
1700516553194266400,6.640266357421875,0.757675393590331,-4.878700554092228,-0.8410212007969617
1700516553204276200,6.650276123046875,-4.658666348809003,-8.472241470903157,0.8062278275743127
1700516553214286300,6.660286376953125,5.280374352073669,-3.4162983900278805,-0.9062469755537808
1700516553224297200,6.670297119140625,-8.56360399582684,-5.179832495394349,-0.1833446795830503
1700516553234307300,6.680307373046875,10.392754774963855,0.7432511469185352,-0.18080957161486147
1700516553244317200,6.690317138671875,2.7401965332746503,-2.5688077009558676,-0.4752958278248086
1700516553254328300,6.700328369140625,-4.319809657007456,-4.4891666912376875,1.3834442165531218
1700516553264338200,6.710338134765625,4.746923893454671,-6.728963971623778,-0.7571730700913816
1700516553274348300,6.720348388671875,-6.373142701017856,-6.366061802846193,-0.3669602119967341
1700516553284358100,6.730358154296875,-1.7872756309598683,-4.645745492437482,1.5806854291394352
1700516553294369500,6.74036962890625,0.4877133743166923,-8.561302733147144,-0.5646110282972455
1700516553304376600,6.75037646484375,5.489021194162964,-3.4955163036495445,-0.7000561483144759
1700516553314386700,6.76038671875,1.5759849963635206,-4.873606738084554,0.07406886029541492
1700516553324397600,6.7703974609375,2.372725741407275,-1.5281002325080335,-0.038793037318065764
1700516553334407700,6.78040771484375,5.308754058861732,-2.694866568468511,-0.2012081799885258
1700516553344417500,6.79041748046875,-5.791145945894717,-5.707602570289373,0.2279450149403885
1700516553354427600,6.800427734375,-1.0310907681882382,-5.726027284774184,0.40886794726923104
1700516553364438500,6.8104384765625,-2.754082435286045,-5.5486219686448575,-0.3096576314546168
1700516553374448600,6.82044873046875,4.622430083301663,0.23025720087289808,-0.09872256883028895
1700516553384458500,6.83045849609375,0.9809592483192682,-5.399244477126002,0.06312124022562056
1700516553394469400,6.840469482421875,1.1998363925218583,-3.9054292299270625,0.4395322943957522
1700516553404479500,6.8504794921875,4.172212034642696,-3.306312413176894,-0.021336948669701813
1700516553414489600,6.860489501953125,-3.0891596085488793,-2.6286896304666993,-0.27244126886874437
1700516553424499500,6.87049951171875,1.8276193317860363,-3.849905495625734,0.4031994366461411
1700516553434510600,6.880510498046875,-2.7332997594982382,-8.967549538132548,-0.6280224471084773
1700516553444520400,6.8905205078125,-0.13621581212878225,-5.06341677775681,0.575271392390877
1700516553454530600,6.900530517578125,0.48702071587741375,-5.965710485640168,0.5414781726540997
1700516553464541400,6.91054150390625,4.931170453780889,1.070162841643393,-0.6030392143582924
1700516553474551600,6.920551513671875,4.954868724754452,-2.07286981139034,0.6918595439858735
1700516553484561400,6.9305615234375,-0.856358470660448,-5.672438902449607,-0.35504845960251985
1700516553494571500,6.940571533203125,0.4786211363226175,-3.089007632857561,0.737529554401338
1700516553504582400,6.95058251953125,-6.183695064917206,-4.152444673377275,0.14515044840835034
1700516553514592500,6.960592529296875,0.2602192084163427,-6.111694243067503,-0.5113543256124481
1700516553524602400,6.970602294921875,2.7906390187889336,-3.466835568088293,0.5012645279483869
1700516553534613500,6.980613525390625,3.877894157269597,-4.960477212285995,0.9402233333051204
1700516553544623600,6.99062353515625,0.19228432083129882,-5.685874722605943,0.8597418294884264
1700516553554633700,7.0006337890625,0.6179764155209064,0.21009411828815935,-0.03983458226025104
1700516553564643600,7.0106435546875,-0.4663777408212423,-6.107491530680656,1.4068540259741247
1700516553574654500,7.020654541015625,-3.216801653599739,-2.9071161112248896,-0.866267285734415
1700516553584664600,7.03066455078125,-0.5237433035969734,-4.751113161838054,0.8763384517632424
1700516553594674700,7.0406748046875,1.7954583528935908,-2.3561646288372575,-1.0752705400459468
1700516553604685600,7.050685546875,0.9856751709252596,-5.479700992631912,0.09390238213222474
1700516553614695400,7.0606953125,-0.4737333642810583,-3.2212913662344214,-1.9810946140125392
1700516553624705500,7.07070556640625,-1.9089000231564044,-3.356039443898201,0.007747180060669779
1700516553634715600,7.080715576171875,1.2830214562088251,-2.27925645346269,0.3467812742557376
1700516553644726500,7.0907265625,2.479958620157838,-2.875732546445727,0.3932311099372804
1700516553654736600,7.100736572265625,3.6533909898787735,-3.4446687444657087,-0.5999421981910243
1700516553664746500,7.11074658203125,-1.3936580059230326,-4.098856875574588,-0.33843579950835556
1700516553674756600,7.120756591796875,-0.9615162967026233,-2.4299337755337356,1.210980010087788
1700516553684767500,7.130767578125,0.9956599738448858,0.652743631388992,-0.5732514308705926
1700516553694777600,7.140777587890625,2.2763994565963745,-6.601413696509599,0.5600892400238663
1700516553704787500,7.150787353515625,0.5434527971953154,-3.2340219607308507,-0.8338324583366513
1700516553714797600,7.160797607421875,-0.4674889169335365,-3.3407568268314,0.31420700185466555
1700516553724808400,7.170808349609375,-0.4698474627584219,-0.14933248333334923,-0.0943966501888819
1700516553734818600,7.180818603515625,1.2490771010309456,-4.557997943140566,0.5358887186165898
1700516553744828400,7.190828369140625,-0.3281862447053194,-3.214578132331371,-0.7387981130324304
1700516553754839300,7.20083935546875,-0.0588157615840435,-3.804647134751081,0.5696791984070092
1700516553764849400,7.210849365234375,0.18026070556044577,0.24735841166898606,0.29322493103723973
1700516553774859500,7.220859619140625,0.4620031789988279,-3.961535732552409,0.07035553886070847
1700516553784869400,7.230869384765625,0.36106150934696196,-3.5772464923530816,-1.2804730869002638
1700516553794880500,7.240880615234375,-0.7075351058930158,-3.1083330955743786,0.09249605899825691
1700516553804890400,7.250890380859375,0.10996785667240619,0.14434768065810202,0.7234402387723327
1700516553814900500,7.260900390625,0.6821878986686468,-4.9760786860436195,0.7576841614186763
1700516553824910300,7.270910400390625,0.7974129452168941,-2.6144746426314116,-1.4378208266459405
1700516553834921500,7.28092138671875,-2.123914062190056,-3.669551851084828,0.48940388468690216
1700516553844931600,7.290931640625,-0.6387064843386411,-0.5785227954022586,-0.25034831419996917
1700516553854941700,7.300941650390625,0.3939841202616691,-4.002455771961808,0.635316257378459
1700516553864951600,7.31095166015625,2.062109640184045,-2.492849081391096,-1.885187139135599
1700516553874962700,7.320962646484375,-1.3322919753342866,-4.678322066393494,0.25795718176849186
1700516553884972500,7.33097265625,1.8052105161011218,1.66568367972821,-0.13773206191062926
1700516553894982700,7.340982666015625,2.429315643635392,-5.405777093765139,1.6631109066307543
1700516553904992500,7.350992431640625,2.00510531193614,-2.2088114827528593,-1.072741679155454
1700516553915003600,7.361003662109375,0.3044862201660871,-4.097415152333676,0.36173937207590784
1700516553925013500,7.371013427734375,1.2576754180282355,0.09291559958457946,1.7467996820561587
1700516553935023600,7.381023681640625,3.698461134704947,-1.9431319631040096,-0.01766673572435975
1700516553945033500,7.391033447265625,-3.5230829404890533,-5.146004460072517,0.2978627103731036
1700516553955044600,7.401044677734375,2.784627211153507,-4.521690073701739,-0.33012430009581145
1700516553965054500,7.411054443359375,-3.047634004461765,1.286966102181375,0.8786123880445956
1700516553975064600,7.421064697265625,6.137747552734613,-1.6472611572004854,-0.7847749974399805
1700516553985074400,7.431074462890625,-4.699655946323276,-5.960267417803406,-0.6182481451343744
1700516553995085600,7.44108544921875,0.2315595156431198,-4.316652654281258,0.5270819465003908
1700516554005095400,7.451095458984375,0.8015355781048535,1.1915040329843758,0.0950214858226478
1700516554015105500,7.46110546875,1.4936773000329733,-3.1940999924480913,0.4478444879280403
1700516554025115400,7.471115478515625,-0.8638795138150454,-3.4302281311810017,-0.2528733391655609
1700516554035125500,7.48112548828125,0.5212210916429758,-2.7135060947477814,0.8940833672903478
1700516554045136400,7.491136474609375,1.6775567806124687,-1.670420352861285,0.8677505100294947
1700516554055146500,7.501146484375,1.6134925969809293,-2.1856560864843426,-0.4413862882319838
1700516554065156400,7.51115625,-2.098885419395566,-4.681428215715289,0.5637297884833067
1700516554075166500,7.52116650390625,-0.5494003074228764,0.33150209125503893,0.6161896782346069
1700516554085177300,7.53117724609375,0.232191383805871,-4.546182125401496,1.642118241354078
1700516554095187500,7.5411875,-1.313605395042896,-1.9871353554815052,-1.916416974657774
1700516554105197300,7.551197265625,-3.0039906775683165,-5.163994874793291,0.8404981267709285
1700516554115207400,7.56120751953125,0.8516875562399625,2.1185032891876996,0.08832571451105177
1700516554125218600,7.571218505859375,1.2677858931541441,-5.6400423612356185,0.8293516596607864
1700516554135228400,7.581228515625,-2.2363386643648147,-2.6441747843682766,-1.259128101054579
1700516554145238300,7.59123828125,0.4184902004867792,-0.1614914154216647,0.9489465187910944
1700516554155248400,7.601248291015625,2.3095184668660163,-2.3318476414434612,0.5233818864060565
1700516554165258500,7.611258544921875,2.01676126293838,-3.261984611150622,-1.2064209585439414
1700516554175269600,7.62126953125,0.615039777547121,-4.036817768029868,-1.0255825992260128
1700516554185279500,7.631279541015625,0.6522451803475618,1.5432342348843813,-0.3329745749603957
1700516554195289600,7.64128955078125,2.3889433012366292,-3.7211864689931273,0.430938617040962
1700516554205299700,7.6512998046875,1.9449761296659707,-2.2519921605706212,-0.5446152285708115
1700516554215310600,7.661310546875,0.5291787726491689,-4.365233437576889,0.6672671737167983
1700516554225320700,7.67132080078125,1.179263560092449,0.5838308386825025,0.27462288722414524
1700516554235330600,7.68133056640625,-1.9773639030516146,-3.661517305450141,0.7433277192860841
1700516554245340700,7.691340576171875,-4.633599127569794,-6.362930519083142,0.7634784538459032
1700516554255350500,7.7013505859375,-2.1289088017374276,1.6354777804262934,-0.3476674094405025
1700516554265361700,7.711361572265625,1.8013555942386388,-3.0818147987440225,1.238444063335657
1700516554275371500,7.72137158203125,-0.956902665427327,-4.599916053676605,-0.5797405371615663
1700516554285381600,7.731381591796875,-0.31887188839316366,-2.130387495987862,-0.6947418944891541
1700516554295391500,7.7413916015625,2.622937350550294,1.0481092691369354,0.1573841262333095
1700516554305402400,7.75140234375,3.0493472381204363,-5.254761187389493,0.8129792015306652
1700516554315412200,7.761412109375,-1.1476140378534794,-4.223748160612583,-0.3819782598432153
1700516554325422300,7.77142236328125,-0.8195897057116032,3.068585607075691,0.11278700574636459
1700516554335432200,7.78143212890625,2.5352438695281743,-3.7285266026228663,2.284203700606525
1700516554345442300,7.7914423828125,1.425944072499871,-4.720722699749469,-0.9837714561957865
1700516554355453400,7.801453369140625,-1.3692676610320806,-1.7710745838738977,-1.594773867985606
1700516554365463600,7.811463623046875,0.8687287074118852,0.5480310648962855,0.05815700541436672
1700516554375473400,7.821473388671875,1.8674223498642444,-4.098486288696527,0.5532915792403742
1700516554385483500,7.8314833984375,-1.0795295126646756,-4.81400888621211,-0.3559526419006288
1700516554395493600,7.84149365234375,-0.8969938479095697,2.114135157106072,-0.3491014242989942
1700516554405504500,7.85150439453125,0.5700467896103859,-4.546632791778445,1.615138026100397
1700516554415514400,7.861514404296875,-2.241477780818939,-2.319472582386434,-0.3905604294233024
1700516554425524500,7.8715244140625,-1.0319143595308065,-2.7585107731223104,0.152522255817987
1700516554435534600,7.88153466796875,1.5844412745416163,-2.8916496620237826,0.5280957997180521
1700516554445544400,7.89154443359375,0.7630284450560808,-2.365304213104397,-1.4220049794852734
1700516554455555300,7.901555419921875,-1.5566665479093789,-3.633842824321985,-0.20362926965560763
1700516554465565400,7.9115654296875,2.734575770783424,1.003464802376926,-0.20468520844932644
1700516554475575600,7.921575439453125,2.416018355166912,-5.766116718578338,1.3847174513593314
1700516554485585400,7.93158544921875,-0.9321405646145343,-2.7651515263110396,-0.5611976031245663
1700516554495595500,7.941595458984375,-0.9162772250503302,-0.7359227037265896,0.5857024777732789
1700516554505606400,7.9516064453125,2.9585645589113234,-0.06938961643800139,0.4456288211725652
1700516554515616500,7.961616455078125,2.408395605203509,-3.238681769235432,0.8850751543179154
1700516554525626400,7.97162646484375,0.19908347945213317,-4.382340639722347,0.21735066528767347
1700516554535636500,7.981636474609375,-0.21624387308955192,2.559208097961545,0.3112029612004757
1700516554545646300,7.991646240234375,0.023912205985188482,-3.6318186250180005,0.924144012902677
1700516554555657500,8.001657470703124,0.11285071863234042,-6.159717392480373,0.006261234085541218
1700516554565667300,8.011667236328124,-1.3839794924736022,0.20398995619416235,-0.651132396800071
1700516554575677400,8.021677490234374,1.0101531940996646,-1.6316785342738032,-0.3694478275613859
1700516554585687300,8.031687255859374,-2.4070687405139206,-4.106217759731412,-1.4199264196455479
1700516554595697400,8.041697509765624,-2.590367206335068,-4.593722459733486,0.09846614638380706
1700516554605707500,8.05170751953125,1.5826771874785421,0.3973188176423311,0.7023059730678797
1700516554615718400,8.061718505859375,5.865889928972721,-1.5060114425577222,-0.2103212781075388
1700516554625728300,8.071728271484375,-0.5813882678359746,-4.616802598808706,-0.47546683701016007
1700516554635738400,8.08173828125,0.8896107519209384,2.6231580075636503,-0.15937124492991714
1700516554645748500,8.09174853515625,1.063730470508337,-5.607954447579384,1.6042641653865575
1700516554655758300,8.10175830078125,-0.3641694122344255,-2.5617753181010485,-0.1925704808289185
1700516554665769200,8.111769287109375,1.356706285622716,-1.4087895240813493,1.3057292548403143
1700516554675779300,8.121779296875,2.306792256772518,-0.20558102477788923,-0.02279120259862393
1700516554685789400,8.13178955078125,-2.281733803361654,-3.880136967760324,0.8254860702738165
1700516554695799300,8.14179931640625,-4.856409519568086,-4.357841281498969,0.8955300589673221
1700516554705809400,8.151809326171875,-1.246914954560995,3.044816024431586,-1.0262462507665158
1700516554715819300,8.1618193359375,2.7746459153652188,-5.049413386845589,-0.42307924531009045
1700516554725830400,8.171830322265626,0.01725216357409954,-4.733407409277558,-1.2623805269792676
1700516554735840300,8.18184033203125,-0.413350499510765,0.32955928662419315,0.989250910520181
1700516554745850400,8.191850341796876,0.7640987046360969,-2.825385337999463,0.6656314622737467
1700516554755860200,8.201860107421876,-0.9474819261312484,-4.3814851919367905,-0.33864582552984357
1700516554765870300,8.211870361328126,-0.5105331088900565,-1.5007052989736198,0.09000475363917648
1700516554775880400,8.22188037109375,4.30752943662703,1.6392193050421773,-0.011792619526572524
1700516554785891300,8.231891357421874,3.079240856602788,-5.225197823774814,0.2985810512429103
1700516554795901200,8.241901123046874,-1.7281962500035761,-4.004999611225724,0.03187270000297576
1700516554805911300,8.251911376953124,-0.6104927817672491,2.2139196195468305,1.4001806856900452
1700516554815921400,8.26192138671875,1.6864771691709757,-1.23992568019554,0.32809279426820576
1700516554825931300,8.27193115234375,2.3963994624614715,-4.213486294317245,-0.22932039494682102
1700516554835941400,8.28194140625,0.9148819712996482,-3.1318194773629306,0.3994725250774994
1700516554845952300,8.2919521484375,4.514565920910239,2.1575164720624684,-0.367307089205645
1700516554855962400,8.30196240234375,1.4362497779369354,-3.980339217221737,-0.7454374779816716
1700516554865972200,8.31197216796875,5.285518729224801,-3.37280703882575,-1.1669140738680959
1700516554875982300,8.321982421875,0.7904092039346694,0.5103250190973282,0.13169183189831674
1700516554885992200,8.3319921875,-0.5952069498300552,-3.1443782224237915,0.8684956293083727
1700516554896002300,8.342002197265625,-3.795397075846791,-5.695061068624257,0.716341220422089
1700516554906013400,8.352013427734375,-2.8985686476320027,-0.17460574853867292,-0.08841854389365762
1700516554916023600,8.3620234375,2.195119349747896,0.32074162778779863,1.3212937575884163
1700516554926033400,8.372033447265625,-0.4924941788524389,-4.51445193914175,0.23591175603587178
1700516554936043500,8.38204345703125,-5.362660421094298,-5.054811446496844,1.17073618943952
1700516554946053600,8.3920537109375,-3.722491998633742,1.8510256340757012,0.5323237196113914
1700516554956063200,8.402063232421876,2.1010610098689795,-3.4731606794565915,0.21592348202876746
1700516554966074400,8.412074462890626,1.295668171814084,-3.8760967524588104,-3.1025439907789227
1700516554976084500,8.42208447265625,0.9734703538686037,1.4481348615199328,-1.3998188666403293
1700516554986094600,8.432094482421874,0.4552186334252357,-4.528713688728213,2.203428036148846
1700516554996104400,8.4421044921875,-0.7933522716492414,-3.2348481824219224,-1.5220646056056022
1700516555006114600,8.452114501953124,-0.09336918857097626,-1.0120094894908367,1.5443052251167595
1700516555016124400,8.46212451171875,1.8660627519488333,-0.7056070604398846,2.4515268909215924
1700516555026134500,8.472134521484374,-0.9334311889469623,-3.6128906371861693,0.32138653809521345
1700516555036145400,8.4821455078125,-3.0810335852384565,-3.495405244490504,1.4014984902903436
1700516555046155500,8.492155517578125,1.5880828459143637,3.7626521595865485,-0.07040599040631204
1700516555056165400,8.502165283203125,3.3825241307199,-4.477971635745465,0.5573431561861187
1700516555066175500,8.512175537109375,-0.27866496568918225,-4.6122126406699415,-1.4343899754144251
1700516555076185300,8.522185302734375,-0.8556821788340806,-0.8429663435153663,-0.2402842720316723
1700516555086195500,8.532195556640625,3.3637317519664762,1.210937047728896,-0.40054019084163006
1700516555096206300,8.542206298828125,2.2302076142638922,-3.8245734859704967,-0.5781760643238202
1700516555106216400,8.552216552734375,-0.23423837946355341,-4.913543027153611,-0.5377015767248348
1700516555116226600,8.5622265625,2.9534049841910597,2.955945024062693,0.6517612692881375
1700516555126236400,8.572236328125,-0.41765024253129956,-3.0182576878517864,1.1072161226220427
1700516555136246500,8.58224658203125,0.6197463478028774,-3.495327210818231,1.4376846330456434
1700516555146256400,8.59225634765625,-3.389243794363737,-0.14035758810862897,0.5604661470448598
1700516555156266500,8.6022666015625,-2.5565976232022045,-0.5524050421968102,0.25928225635979324
1700516555166277400,8.61227734375,0.44797991434335704,-4.613278224074841,-0.08609079506583511
1700516555176287500,8.62228759765625,-1.4368915829718112,-2.916456771022081,-0.15771386964432893
1700516555186297300,8.63229736328125,2.669151989236474,0.6098061146773398,0.5243462379261851
1700516555196307500,8.642307373046876,4.48856463369131,-3.299836495161056,-1.569048182837665
1700516555206317300,8.6523173828125,-6.0045934662640095,-2.460851476366818,-0.8793768696110695
1700516555216327400,8.662327392578124,0.5878571715891361,1.8229878725931048,1.422326466524601
1700516555226337500,8.672337646484374,2.810121717894077,-4.58544358394891,1.0714020280495284
1700516555236347400,8.682347412109374,-1.6489520328968763,-2.318591707898676,-0.04002294443920255
1700516555246358300,8.692358154296874,1.4129314461916684,0.356695423091948,1.0097314615562558
1700516555256368400,8.702368408203125,3.048624184542894,-1.5091642075002192,0.3592605243396014
1700516555266378500,8.71237841796875,0.5794955859571695,-3.2436446523398157,-2.41494531910792
1700516555276388400,8.722388427734375,-3.5705712523728605,-2.6476339849114416,0.6532683128502219
1700516555286398500,8.7323984375,0.08695873700678348,3.264921833646297,0.14666867095157504
1700516555296408300,8.742408203125,-1.983273419356346,-5.480117756739259,-0.6837193460196256
1700516555306422300,8.75242236328125,-3.666310677206516,-3.336964156550169,-1.2307692909240722
1700516555316433200,8.76243310546875,0.34730595571696754,0.9095274585291743,-0.7508787191875278
1700516555326443300,8.772443359375,1.0261796152710914,-2.0764818644076586,-0.052794528533145785
1700516555336453000,8.782453125,-0.09812836579680442,-1.8351615638591348,-0.3181640323847532
1700516555346463200,8.792463134765624,-3.2768934264689684,-5.234481200426816,0.028974384745582938
1700516555356473000,8.80247314453125,0.5200555549949407,3.3747391759321093,-1.7259914334356783
1700516555366483200,8.812483154296874,17.594791601133345,-4.129473839895427,1.2596281595312058
1700516555376493300,8.822493408203124,-19.721326659476755,-5.22906677416265,-2.871273813471198
1700516555386503200,8.832503173828124,-3.474373562377691,4.776890577173233,-1.0815897331301123
1700516555396514300,8.842514404296875,2.7355934233933685,-2.846734415498376,-0.2016018189486116
1700516555406524200,8.852524169921875,5.3829544365823265,-3.431924413704872,0.07954758396744728
1700516555416534300,8.8625341796875,4.72432218554616,-3.0510242314219473,-0.3659784344177693
1700516555426544000,8.872544189453125,1.3734522532403468,2.4854145474761724,-0.3842207050077617
1700516555436554200,8.88255419921875,-0.8097299904763698,-2.8483237305164337,-0.37118111762739714
1700516555446564000,8.892564208984375,0.48575931763947006,-4.777294774059951,-0.7290640700034797
1700516555456574200,8.90257421875,-1.264099313595891,3.452334749048948,-1.4145277754724024
1700516555466584300,8.912584228515625,2.9748493387579917,-2.7015613899320363,-0.2631823873371817
1700516555476595200,8.92259521484375,-0.6475660826206207,-4.947802439630031,-0.007267579850181937
1700516555486605000,8.93260498046875,-1.9189713353157043,-0.8367905774898826,-0.19556584498630836
1700516555496615200,8.942615234375,1.451232243013382,2.1209708483450114,-0.38241255960725246
1700516555506625300,8.952625244140625,-1.4948533580750225,-4.659000695329905,-1.5622173139043152
1700516555516635100,8.96263525390625,-1.0491782135426997,-3.5542896873965857,-0.06238682500384748
1700516555526645200,8.972645263671875,2.250070252597332,4.1243595656216145,-1.0537485901981591
1700516555536655000,8.982655029296875,0.8788818526357411,-4.829292964583635,0.10934373342469333
1700516555546665200,8.992665283203126,-1.2385241428345442,-1.8920292601153252,-0.6790763425193727
1700516555556675000,9.002675048828126,-1.7663608532249926,-0.5043851076543331,-1.1096644656222312
1700516555566686200,9.012686279296876,0.44312078387439247,-1.5848901873528956,-0.9627053603567183
1700516555576696000,9.022696044921876,1.6479805575162172,-0.7421564835496246,-1.948234693070501
1700516555586706200,9.0327060546875,1.8691800071865319,-4.298328477561474,-0.8977947890289127
1700516555596716300,9.04271630859375,2.4202228211194274,2.5840315735727546,-1.4746974358834326
1700516555606726100,9.05272607421875,0.3956821563512087,-3.7239199856102463,0.6680456838086247
1700516555616736300,9.062736328125,-1.3205220425635575,-3.2968022420316934,0.20162686205832286
1700516555626746000,9.07274609375,-2.022052355083823,-0.01375716106519103,-1.2729787856221197
1700516555636756200,9.082756103515624,3.1427842312306162,-0.11294628796130418,0.6405367685057223
1700516555646766000,9.09276611328125,2.2707108895659447,-2.3704843922212717,0.366914765419811
1700516555656777500,9.102777587890625,-2.6945558950841426,-5.3811640460342165,0.3126214496962726
1700516555666787000,9.112787109375,1.8077496791899204,4.453812469261885,-0.4417262607760727
1700516555676797200,9.122797119140625,2.38508194963336,-3.187664698703587,1.352317695274949
1700516555686807000,9.13280712890625,-1.9529431630223988,-3.819679576449096,0.2828668743584305
1700516555696817200,9.142817138671875,-1.700838872000575,0.535688446804136,-1.4577617909125984
1700516555706827300,9.1528271484375,3.711743810126185,-1.4624774212576448,-0.3437715345131233
1700516555716837000,9.162837158203125,1.267056994357705,-0.885489872598648,-0.2795432828936726
1700516555726847200,9.17284716796875,-2.3583301363080738,-3.594450725132227,-0.6226496680289506
1700516555736857000,9.182857177734375,0.691958182054758,0.3741106682732701,-1.7885627481609583
1700516555746867200,9.1928671875,0.8444961834311485,-2.1858453254461288,0.16289726363159715
1700516555756878300,9.20287841796875,0.24583529375493526,-2.403048252826184,-0.6658905516013502
1700516555766888400,9.212888427734375,0.09316109877824783,0.390475381488353,-0.012943031670711935
1700516555776898000,9.22289794921875,-0.7255559157520532,-2.339137360060215,2.4638658557519317
1700516555786908200,9.232908203125,-2.1401585100263354,-2.242109210590273,-0.0551912509439513
1700516555796918300,9.242918212890626,-3.8763895979255434,-2.3091239145904776,-0.3928867534790188
1700516555806928100,9.25292822265625,0.3061702277302742,2.4380256043136117,0.6575786503300071
1700516555816938200,9.262938232421876,1.5091151076614855,-4.310607821159064,-0.21520970773622392
1700516555826948000,9.272947998046876,-2.7946336413830517,-4.160821456578374,-1.5472250580862164
1700516555836958200,9.282958251953126,0.9979717579185962,4.714864913631976,-1.9632389315873384
1700516555846968000,9.292968017578126,2.311916175657511,-5.010919697800278,1.6693234975352882
1700516555856979500,9.3029794921875,-1.5107476772993802,-1.9652172459229826,-2.1537308160439133
1700516555866989300,9.3129892578125,-1.2927145827054978,-0.01779635345339775,0.45842195951119064
1700516555876999400,9.32299951171875,3.2603076178491115,-1.2259642287299035,0.5818939523357898
1700516555887009300,9.33300927734375,4.84705658481121,-0.8664910114876926,-0.34039617632851005
1700516555897019100,9.34301904296875,2.1515292143464086,-3.7587463843196627,-0.612802666144818
1700516555907029200,9.353029296875,1.9586200396150348,2.313929269045591,0.43099516953378914
1700516555917039000,9.3630390625,0.30394027672111984,-0.0800317142225802,2.30241024229601
1700516555927049200,9.37304931640625,-3.6190579276442527,-3.870263516260683,2.2358469353251156
1700516555937059000,9.38305908203125,-6.877487476661801,-0.5673807852715254,-0.7057773024402558
1700516555947069200,9.393069091796875,-0.14593641115427017,1.0430638223156332,-0.6980598599307238
1700516555957079300,9.403079345703125,1.4768606052666902,-3.5557208892434833,-2.215214920054376
1700516555967090400,9.41309033203125,-1.2663462157398462,-3.674250530295074,-2.282183592955768
1700516555977100300,9.423100341796875,1.0056623124212025,2.7796505917847156,-0.07901552291736007
1700516555987110400,9.4331103515625,-0.32931203386485575,-5.443551820886134,2.4405565840959547
1700516555997120300,9.443120361328125,-4.925191963893175,-1.1300903638616204,-0.10103643526323139
1700516556007130000,9.453130126953125,-3.0331437068164346,0.01072553828433156,-0.08893946249522268
1700516556017140200,9.46314013671875,-1.347591835796833,-2.845911700938642,3.031528672835231
1700516556027150000,9.473150146484375,-0.1712362721055746,-1.8302109557144344,0.1551996218010783
1700516556037160200,9.48316015625,-0.7467530175596475,-2.3187955599077044,-0.7871860041044652
1700516556047170000,9.493170166015625,-0.30282968513071534,2.9760400098472832,0.46906091549061235
1700516556057180200,9.50318017578125,2.1204268045961854,-4.060686427134275,0.8205618386793881
1700516556067190300,9.513190185546875,-0.6101987672567367,-2.7710493521779775,-0.9827082108784466
1700516556077201400,9.523201416015626,2.6080431482791897,2.726006387619674,-0.46757498778179285
1700516556087211300,9.533211181640626,4.725471940103173,-1.8660449240311978,1.5330514251746237
1700516556097221400,9.543221435546876,3.626621640896797,-3.0091426535040138,-1.3119829084075987
1700516556107231500,9.5532314453125,1.5828326703011988,-1.5247991451360285,0.007157251343503594
1700516556117241000,9.563240966796876,2.6880168487042186,3.75244816095829,0.6179505504272877
1700516556127251200,9.573251220703124,-0.4841939680188894,-2.740784562295675,1.9014362631469963
1700516556137261000,9.583260986328124,0.1636111840546131,-3.331948374214768,1.4242375608429312
1700516556147271200,9.593271240234374,-3.8512697697162626,0.8315475622698664,0.6961537340484559
1700516556157281300,9.60328125,0.6193997263222932,1.1860657874532043,0.4411274181000888
1700516556167291100,9.613291015625,0.22656536061763763,-3.545061548063159,-1.1826045410834252
1700516556177301200,9.62330126953125,-2.8398656987726687,-3.7114918811917303,-0.30787834682241083
1700516556187311000,9.63331103515625,0.8269698790907859,2.045139946813136,-0.42801651904918253
1700516556197321200,9.6433212890625,2.5903426564157006,-2.7361419971868393,-1.4539169520527124
1700516556207331000,9.6533310546875,-3.3731460615217683,-2.3895731235727666,-1.3963786630585788
1700516556217342500,9.663342529296875,-0.7612865698248148,1.3549199867278336,-0.1264178370181471
1700516556227352300,9.673352294921875,-0.7281792499929666,-3.7153956106320023,2.327372980247438
1700516556237362200,9.683362060546875,-1.2557844897150992,-1.0450964971870182,-0.004593392204865813
1700516556247372000,9.6933720703125,0.020983751317858696,-2.3316320989966393,1.5074820996321736
1700516556257382100,9.703382080078125,4.371251674953103,2.3532352973870934,1.3634237573094665
1700516556267392300,9.713392333984375,5.915944876474142,-3.1861037329971786,0.3338070071965456
1700516556277402000,9.723402099609375,-0.716041068431735,-4.060730850797891,-0.47254291238747537
1700516556287412200,9.733412109375,1.8891244785845278,4.179718172489107,-0.8029598387543112
1700516556297422000,9.743422119140625,3.3939392587035893,-2.150503816821426,0.2974893835486844
1700516556307432000,9.753431884765625,0.8149234674662351,-2.174884809362143,-0.7116526242144405
1700516556317442000,9.763442138671875,0.17675065161287784,-1.924625561685115,-0.45900202442146837
1700516556327452000,9.773451904296875,2.8605320547044277,2.3427377226397392,-1.584117157153785
1700516556337462000,9.7834619140625,0.4545908569157123,-1.861120911632478,0.22370628139209
1700516556347472000,9.793471923828125,1.9872206956773995,-3.752264621084928,0.23324889350216835
1700516556357483000,9.80348291015625,2.9203607927232977,2.533625912937522,0.0786525713564828
1700516556367492900,9.813492919921876,1.9468185426622628,-1.423609784333408,0.34489027287736534
1700516556377503000,9.8235029296875,0.46866731306314463,-3.876715468879044,0.7090761247899383
1700516556387512800,9.833512939453126,-1.7881646887540816,-0.38265579377859826,0.5878085466744378
1700516556397523000,9.84352294921875,0.6190566119730472,0.5496504827916622,0.07791271277461201
1700516556407533000,9.853532958984376,-0.5296580805987119,-1.7816165822848677,-0.6295460034139454
1700516556417543000,9.86354296875,-3.2754882358461614,-3.586242284235358,0.8681256269522011
1700516556427553000,9.873552978515624,-2.842800583180785,1.819338264044374,-0.9624160220213234
1700516556437563000,9.88356298828125,-0.633354017394781,-2.795519192045927,2.348969602766633
1700516556447573000,9.893572998046874,-2.1431956857651473,-3.511252217441797,-0.7791463439032434
1700516556457582800,9.903582763671874,-0.1505453662544489,0.9730993285991251,0.2903028330454603
1700516556467593000,9.913593017578124,0.2340343813240528,-1.518970000591129,2.0063123496383426
1700516556477603000,9.92360302734375,0.2516623924732208,-3.6012767717599865,-2.1097072576612232
1700516556487613000,9.933613037109374,-0.6428343779236078,0.488147527950257,-0.195565717122145
1700516556497623000,9.943623046875,2.976030657497048,0.8384057576015591,-0.7382913325540721
1700516556507633000,9.9536328125,2.286854799637198,-3.8547108500808474,0.2246013305356726
1700516556517643000,9.96364306640625,1.2689473381489516,-2.5876065094500778,-0.14255407523959873
1700516556527652900,9.97365283203125,-1.331168524262309,-1.800482318535447,1.2086043669976294
1700516556537664000,9.9836640625,3.151846658608317,2.7642560387760398,-0.3415645990533754
1700516556547673900,9.993673828125,-0.5196212552309036,-3.2924148207277057,0.33702100080698727
1700516556557684000,10.00368408203125,-3.1437112829476592,-3.5543946090757843,-0.6722991034694016
1700516556567693800,10.01369384765625,-0.22175649903118608,4.22843485712409,-0.7587110202483832
1700516556577704000,10.023703857421875,0.7692109330832958,-3.109268330597877,1.2136002755887805
1700516556587714000,10.033714111328125,-1.5018600219666958,-2.465851184350252,-0.30680121911019087
1700516556597724000,10.043723876953125,0.2047901666611433,0.7973501091137528,-0.03181464967280626
1700516556607734000,10.053734130859375,2.848168247693777,-0.7330114924550056,1.4245293833963573
1700516556617744000,10.063743896484375,0.1584790818631649,-2.0324825636833905,-0.6736031718052923
1700516556627754000,10.07375390625,-3.0436066486418247,-2.2875484809897837,0.6026104310195892
1700516556637764000,10.08376416015625,2.6848013937890527,2.57878139795959,1.1595832195233553
1700516556647774000,10.09377392578125,3.25678528894186,-3.138016286176443,-0.17750004520807414
1700516556657784000,10.1037841796875,-4.150857696446776,-1.6601355440817773,0.2067878067517653
1700516556667794000,10.1137939453125,-2.989541296455264,1.4183108011424541,0.18108385851159692
1700516556677804000,10.123803955078126,-2.2124422404706476,-2.5190698565796015,1.2348188585758209
1700516556687814000,10.13381396484375,-1.7309984479427336,-2.49104144744724,-0.9147788031861186
1700516556697824000,10.143823974609376,-1.5783306827068329,-0.9014331455312669,-0.3188010881792754
1700516556707834000,10.153834228515626,-0.7120867778480052,1.8893815220855175,-0.15752002757266162
1700516556717843700,10.16384375,-0.6936632324069738,-4.739466563186049,0.27483532439842817
1700516556727853800,10.173853759765626,-2.3644150091797114,-1.246999856365472,-0.15591547845285386
1700516556737863700,10.18386376953125,2.0383885728567837,3.3035382722884417,0.28532372945863754
1700516556747873800,10.193873779296876,1.4990589930713176,-4.550326385599375,1.5604408057510852
1700516556757885000,10.203885009765624,1.1678268047988414,-1.4860229858875273,-0.7836556380212306
1700516556767895000,10.21389501953125,1.7250883471161127,-2.566853644278645,0.6371695570949465
1700516556777905000,10.22390478515625,5.7234670788973565,3.8332974751740694,-0.9289386998333037
1700516556787915000,10.2339150390625,3.334927097764611,-3.4765281100630756,1.0298528238911182
1700516556797925000,10.243925048828125,1.6354343796759843,-3.4937770587667822,0.6011671003434806
1700516556807935000,10.25393505859375,-2.3532371970832346,3.672063833905756,-0.644872313492
1700516556817945000,10.263945068359375,-0.10716858134269713,-1.4589783270955086,0.4305104912893846
1700516556827954700,10.27395458984375,0.7866746935814619,-0.754980455417931,1.096027789131552
1700516556837964800,10.28396484375,-2.0660697759866715,-3.2271772094026208,-0.1818127573080361
1700516556847974700,10.293974609375,0.9911784445166587,3.0328081912517546,-1.7097466933384537
1700516556857984800,10.30398486328125,-0.7860849109947681,-1.741559297184646,-1.7059274273112415
1700516556867995000,10.313994873046875,-3.862970144382119,-3.5634582054972648,-1.1609909674294292
1700516556878004700,10.324004638671875,-0.13007657872140407,2.255401238361746,-0.3253655977940187
1700516556888014800,10.334014892578125,2.974011134368181,-3.062964844584465,1.1676743907161056
1700516556898024700,10.344024658203125,0.3821726864367723,-2.6344080081135033,0.007945515644364059
1700516556908034800,10.354034912109375,-1.89937816157341,-1.3199296296283602,0.7624956533536315
1700516556918045000,10.364044921875,-0.40636604745090005,0.954781289359182,1.381413441377878
1700516556928054800,10.3740546875,-0.8381880231976508,-3.8311031800001856,0.2165389105133712
1700516556938065000,10.38406494140625,-2.83376445928812,-1.7086729266270995,0.037794746995717284
1700516556948074800,10.39407470703125,2.374626606592536,3.5017060982003807,-0.05014372176341712
1700516556958084900,10.4040849609375,2.1391893727332354,-4.9222126558214425,0.9211470961090177
1700516556968094700,10.4140947265625,-0.575214547637105,-0.5537845138564705,-1.1477253892734647
1700516556978104800,10.424104736328125,-1.799303922405839,-1.2133632519625126,0.6389966994568705
1700516556988115000,10.434114990234375,1.5392629931658506,1.7141634868673978,-0.37912403945587575
1700516556998124800,10.444124755859375,2.926870613008737,-2.2570992744512854,-1.06466928572841
1700516557008135000,10.454135009765626,-0.4385334560841322,-1.8379079399578273,-0.6388281379569322
1700516557018144800,10.464144775390626,0.4180126461029052,3.407505427241325,-0.5260039420053363
1700516557028155000,10.47415478515625,0.04381050015389919,-3.2044732101634144,-0.17154241544529794
1700516557038164700,10.484164794921876,-1.2753835086762904,-1.8456895337447523,0.48137262698784467
1700516557048174800,10.4941748046875,-1.1804156527370213,-0.2607996386528015,0.4768482814311981
1700516557058185000,10.50418505859375,2.224418509468436,0.21972703903019428,-0.836305132060498
1700516557068194800,10.51419482421875,-0.04577215561568737,-2.7705326348274943,1.2112077544290571
1700516557078205000,10.524204833984374,-4.751580194827914,-2.777842665579915,1.14174960279949
1700516557088214800,10.53421484375,-2.3250685026973485,3.7426311158210037,-0.08961999210529029
1700516557098225000,10.544224853515624,-1.0453729760408401,-3.4529473279893397,0.9727919431503862
1700516557108235800,10.55423583984375,-0.5001584298700094,-1.8571429479122161,0.4422651899583637
1700516557118246000,10.564245849609375,0.3537520631164312,1.6649559499755502,-0.13203165831193328
1700516557128255700,10.574255859375,-0.16167057138085364,-1.9092592118576168,1.7768432304032147
1700516557138265900,10.584265869140625,0.37701252719461914,-2.514058458158374,-1.1004544464673847
1700516557148276000,10.59427587890625,-1.0341635997623204,0.732771107827872,1.1190618971079587
1700516557158285800,10.604285888671875,2.238787226560712,1.399877611090243,-0.4045773374032229
1700516557168296000,10.6142958984375,1.3924708419650793,-2.786641473585367,-0.9767942375943064
1700516557178305800,10.624305908203125,0.4685252742439508,-2.920985062101483,-0.511633982804045
1700516557188316000,10.63431591796875,-0.48473289720118046,1.753857053221762,0.9220509861461818
1700516557198325800,10.64432568359375,0.8120762613415717,0.11303221267908811,-0.045954672575742005
1700516557208336000,10.6543359375,-2.3823341122299433,-3.8656040000170466,1.5429657932065426
1700516557218346000,10.664345947265625,-2.7071862440764902,-2.4864324923470615,0.9245787510581314
1700516557228355800,10.67435595703125,2.651107213979959,4.234215194091201,-0.5049624691508711
1700516557238366000,10.684365966796875,1.0857552553117276,-3.22490341925174,0.483057072943449
1700516557248375800,10.694375732421875,-1.941202456346154,-4.068910650122166,0.9567674216751009
1700516557258386000,10.704385986328125,-0.5895943706452846,2.053063433288783,-0.28758038581162687
1700516557268395800,10.714395751953125,1.9773510435700414,-0.019134470189362762,0.04582154771536588
1700516557278406000,10.724406005859375,0.176608612793684,-2.133509281270206,0.6375586294777691
1700516557288416000,10.734416015625,-0.43572716649174686,-2.074455327016115,0.18568945261090994
1700516557298425900,10.74442578125,3.726667823013663,2.720411928613484,-0.5666469180390239
1700516557308436200,10.754436279296876,2.7494325636535883,-1.1076442849062382,-0.18063644353765992
1700516557318446000,10.764446044921876,0.2010246766477823,-2.954115762808919,0.2874715186096728
1700516557328456200,10.774456298828126,-1.4959107581734656,2.5724235533654687,0.30497721855342386
1700516557338466000,10.784466064453126,0.9565496142059564,-0.08021598474830388,0.7306229898832738
1700516557348476200,10.79447607421875,0.1433767897993326,-2.168921955434978,-0.2281462731335312
1700516557358486300,10.804486328125,0.9546265371888876,-2.7162106775313615,-0.6506098342306912
1700516557368496000,10.81449609375,1.4557570269614457,3.2163778752297163,-0.520833699760586
1700516557378506200,10.82450634765625,-1.9075036003619432,-3.330710356852412,0.728191159626469
1700516557388516000,10.83451611328125,-2.3903099134147165,-3.65673562413156,0.07071107430011034
1700516557398526200,10.844526123046874,-0.39749417420923705,3.6794019217088816,0.1961754099857062
1700516557408536300,10.854536376953124,1.403665020674467,-2.7494004149496556,1.516486513212323
1700516557418546200,10.864546142578124,-1.7246446950018406,-3.0799820303589103,0.2574977475631982
1700516557428556300,10.874556396484374,-3.463300964221358,-1.4892115527957677,1.0805834786970168
1700516557438566100,10.884566162109374,-0.539706596404314,3.3021380501016973,0.7900738345004618
1700516557448576300,10.894576171875,0.8689426424235105,-3.9033582688719033,1.091620494083315
1700516557458586000,10.904586181640624,1.1353554447829723,-1.9897138276673851,-0.6541185730040073
1700516557468596200,10.91459619140625,2.970133416152,3.1912349584057926,-1.0077146418411285
1700516557478606300,10.9246064453125,0.5624088420778512,-2.5363626444250342,0.24220614347234368
1700516557488616200,10.9346162109375,-1.296460783496499,-2.682437295006215,-0.8702781288109719
1700516557498626300,10.944626220703125,-1.0916332074344157,0.11840528401955962,0.8968432604577392
1700516557508636200,10.95463623046875,2.870495814836025,4.288097006404399,-1.2572145225182174
1700516557518646300,10.964646240234375,1.355661745005846,-3.6434675617575643,-0.43656332505494355
1700516557528656100,10.97465625,3.1467005278915163,-3.095719697716832,-0.23382683952059596
1700516557538666200,10.984666259765625,-0.872958892327547,2.8310440944135187,2.112645064678788
1700516557548676400,10.99467626953125,-0.660691521653533,-0.6799636467479169,1.3762147036910057
1700516557558686200,11.004686279296875,-2.365668808633089,-3.224819248099625,0.09740808869823812
1700516557568696000,11.014696044921875,-2.3739193351060153,0.23003157542347907,0.7777632920470088
1700516557578706000,11.024705810546875,1.7231857283651828,1.7738167221888899,-0.5075231134191155
1700516557588716000,11.034716064453125,0.043424715706706044,-3.730744570933282,-1.177804155064374
1700516557598726100,11.04472607421875,-3.3721529588311907,-3.2455288586512205,-0.10357494076490402
1700516557608736000,11.054736083984375,-0.3380284242838621,3.5677576562568545,-0.09779778213556856
1700516557618746000,11.06474609375,0.7252484572380781,-2.3229561867184936,1.0348892836883663
1700516557628756000,11.074755859375,-1.5657839203447104,-2.1516705225132404,0.09993088517412543
1700516557638766000,11.08476611328125,0.02664718390703201,2.211995958007872,1.0271972678810357
1700516557648776000,11.09477587890625,2.338137827628851,-1.6959905551865695,0.23348317718207834
1700516557658786000,11.1047861328125,2.13533912704587,-0.2735908772952855,-1.005519689080119
1700516557668796200,11.114796142578125,-0.23805881453454494,-3.837882464876771,-0.042309995930455625
1700516557678806000,11.124805908203125,2.389737081962824,3.587846212300658,-0.20433014793395995
1700516557688816000,11.134816162109376,2.718798355937004,-2.184430782473087,-0.8437301674947142
1700516557698826000,11.144825927734376,-1.3609066599220037,-2.754810165038705,0.27033220429290084
1700516557708836000,11.154836181640626,-2.1439584868311883,-0.09505407291799783,-0.47647846173811703
1700516557718846200,11.16484619140625,4.758280569249392,2.5217262163072824,-1.0908116619184614
1700516557728856000,11.17485595703125,-1.106194816750288,-1.618017673189938,-1.1505839935749769
1700516557738866200,11.1848662109375,-0.21394144136607646,-4.1448961576938625,0.31455881096702065
1700516557748876000,11.1948759765625,1.738008034443855,3.2113413423672315,-0.7685911937497556
1700516557758886100,11.20488623046875,2.150963397157192,0.0026490532040596006,-0.4775600098971277
1700516557768896000,11.21489599609375,-2.099037979608774,-3.5023774215906855,1.0557418098419904
1700516557778906000,11.224906005859374,-0.6444213548541069,-0.15834727217704056,0.680383041203767
1700516557788916200,11.234916259765624,6.984840766921639,2.4580513242542743,-0.11547686588484793
1700516557798926000,11.244926025390624,-3.9185973390579223,-1.2878572058022022,-0.12268095204476266
1700516557808936200,11.254936279296874,0.3959089508444071,-3.881853708550334,0.12588416853286324
1700516557818946000,11.264946044921874,2.013499630793929,2.48013076185435,-0.6053571359118446
1700516557828956200,11.2749560546875,-2.30152922167778,-0.5975600888274609,-1.0599392615318297
1700516557838966000,11.284966064453124,-0.6188906077563763,-3.7109611353158947,-0.036929873794689774
1700516557848976100,11.29497607421875,-0.15881518194973468,2.17120728989318,-0.5743887278048321
1700516557858986200,11.304986328125,1.935984429436922,-1.6336580176532267,-0.6807897223085164
1700516557868996000,11.31499609375,-2.0354665479302407,-2.269284217763692,-1.4284316515319049
1700516557879006200,11.325006103515625,-2.2201649436771866,-1.7811155008949338,-0.15234755683820694
1700516557889015300,11.335015380859375,0.9505272851765155,2.7325141620784996,-0.6247841958396136
1700516557899025200,11.345025146484375,0.7607721905618906,-3.0611876057788727,-1.23053562829867
1700516557909035300,11.35503515625,-0.45504444590210913,-1.7088639191545545,0.2301175366738811
1700516557919045000,11.365045166015625,0.42334582382440566,3.1868855310246347,0.020030542246252298
1700516557929055200,11.37505517578125,1.3020441365867852,-2.14267268480435,0.9342669091187417
1700516557939065300,11.3850654296875,-0.8352864565372466,-2.5986335148990154,-0.5730627398980781
1700516557949075200,11.3950751953125,-1.3386521580159663,-0.7363131643489003,1.308834381248802
1700516557959085300,11.405085205078125,4.66727051102519,3.281392491453886,-1.6392263193048535
1700516557969095200,11.41509521484375,-2.0632062032490968,-2.643136965753138,-0.9206495949156582
1700516557979105300,11.425105224609375,0.9989888260066508,-3.6184134922608733,-0.5378706496814265
1700516557989115100,11.435115234375,-0.44322541329264636,3.5298452742308375,-0.46806215024422854
1700516557999125200,11.445125244140625,2.623800689381361,-0.250892723274976,-1.2740551826819777
1700516558009135400,11.45513525390625,-2.208094566655159,-3.541056988596916,-1.1402113603815436
1700516558019145200,11.465145263671875,-0.749282828298211,-0.7844342211782932,-0.11617164321597664
1700516558029155300,11.4751552734375,2.4621505762666462,2.912451042512059,-1.2831817613370715
1700516558039165000,11.4851650390625,-0.9976403340071439,-1.868155924835801,-1.1605075678266583
1700516558049175000,11.495175048828125,-0.6738029321610928,-4.3808930712625385,1.2928064987726509
1700516558059185200,11.50518505859375,0.276582314196229,5.344469515365362,-0.08964947392810135
1700516558069195000,11.515195068359375,-0.7854559654414653,-2.1024086250856517,0.16392014040593056
1700516558079205000,11.525205078125,-2.5225468850404025,-3.336119230158627,0.9221746125258505
1700516558089215000,11.535215087890625,-1.4385732524484396,1.7314257334440946,0.0884710777984932
1700516558099225000,11.54522509765625,0.7340782449036837,-0.025317396607995032,0.10301697808858007
1700516558109235000,11.55523486328125,-1.1592495305895805,-2.8830358551964164,-1.7907671263374387
1700516558119245000,11.5652451171875,-1.3141150981307028,-0.9013692865148186,0.2839186119010672
1700516558129255200,11.575255126953126,0.12229659236967563,2.7162404881477356,-1.3049728835150598
1700516558139265000,11.58526513671875,-0.49053076982498167,-2.083894917143136,-0.5714457331554964
1700516558149275100,11.595275146484376,-1.6625976964116096,-3.779982649093866,-0.28842849054094405
1700516558159285000,11.605284912109376,2.0798200689196586,3.687006259232759,-1.0846534315496683
1700516558169295000,11.615295166015626,6.112237263903022,0.2006843387775123,-1.7002457284130155
1700516558179305000,11.625304931640626,-2.3242478339642285,-3.8837358690351245,-0.2614792184147984
1700516558189315000,11.635315185546874,1.0704507186740637,-2.3766689260751006,-0.018101218151487408
1700516558199325200,11.6453251953125,2.762406026995182,3.200413413378596,-0.8047215146645903
1700516558209335000,11.6553349609375,2.101906813043356,0.42528877458572384,0.42198271877765653
1700516558219345200,11.66534521484375,-0.7717559413909911,-2.460666475188732,2.0215845914416013
1700516558229355000,11.67535498046875,-3.4492420437306164,3.145776691044867,-1.2884832287460566
1700516558239365000,11.685365234375,0.7765782469809055,-0.7896797206163406,-1.2923498410463332
1700516558249374200,11.695374267578124,-5.128679815784096,-1.9349058404199777,-0.8948799975607543
1700516558259384000,11.705384033203124,-6.666589640775323,-1.39987804948166,-0.7288024964578449
1700516558269394200,11.715394287109374,-0.6498533167749643,0.5089332724779844,-0.3930474604660645
1700516558279404300,11.725404296875,-0.9598492402732371,-2.677973009073734,-1.5012811991654336
1700516558289414100,11.7354140625,-0.052256841459870335,-1.22647933864519,-0.8486654319398105
1700516558299424300,11.74542431640625,2.0126649335354565,2.1608619830980897,-0.680307491749525
1700516558309433600,11.75543359375,3.0260347515940667,-2.109197700703889,0.17535481334030628
1700516558319443700,11.765443603515624,-0.03587561550140381,-3.046226183490455,-0.20042861045077442
1700516558329453800,11.775453857421875,1.4944827711969613,3.7419109848529097,-0.1705064965263009
1700516558339463700,11.785463623046875,4.106285564270616,-1.2419209456659852,-0.4546297641539946
1700516558349473800,11.795473876953125,-1.3029723573476075,-3.716699094446003,0.8941755756184459
1700516558359483600,11.805483642578125,0.7015449255675077,-2.3459653063841164,0.049450478802248836
1700516558369493800,11.81549365234375,1.9347259538084267,4.724188914555311,-0.9024871846288443
1700516558379503600,11.825503662109375,-1.2993874845981597,0.5850928214423358,-3.0444191340684887
1700516558389513700,11.835513671875,-2.3066788595259187,-2.5283909348934888,-0.815396857131645
1700516558399523800,11.84552392578125,0.11495499743521213,3.409512383149564,-1.8277715997382997
1700516558409533700,11.85553369140625,0.2965419831633568,0.3187386174023151,-1.8094620360657572
1700516558419543800,11.865543701171875,-0.8168430373519658,-3.3901898430421946,-0.06596311258804052
1700516558429553700,11.8755537109375,-1.766231673887372,0.7794236995398998,0.11134539210330695
1700516558439563800,11.885563720703125,2.177340531951189,0.003100157972425222,0.018393771357275546
1700516558449573600,11.89557373046875,-1.4501573072582483,-2.488417820945382,-0.5904599014334381
1700516558459583700,11.905583740234375,-2.7352970707952973,-2.4483456305369735,0.2847133424753323
1700516558469593900,11.91559375,0.6848825445801019,3.6180396905124184,-0.39393286499846725
1700516558479602700,11.925602783203125,0.33769466228485107,-3.7106598142817613,-0.6726752433054148
1700516558489612800,11.93561279296875,-0.5159533803731203,-2.797382063308358,-0.6209435216981918
1700516558499623000,11.945622802734375,0.9790712426155805,3.645529170462489,-1.0269663817346095
1700516558509632800,11.9556328125,2.358153026175499,-0.7608318117946385,-0.12856555310394613
1700516558519643000,11.965642822265625,1.642972958487272,-3.1236522452592848,-2.244684175644815
1700516558529652700,11.97565283203125,-1.683207353720069,0.11197583549395203,-0.13731336157452315
1700516558539662800,11.985662841796875,2.024820650753379,2.0259686517447233,-1.7471829822853207
1700516558549673000,11.9956728515625,-3.1380005040854213,-0.773202486937493,-1.607823611433804
1700516558559682800,12.005682861328125,-2.38722656044662,-3.296660787734389,-0.5380363616371527
1700516558569693000,12.01569287109375,1.3614531878888607,5.41737576162219,0.3631026963183656
1700516558579702800,12.025702880859376,3.1211516606152054,-0.48082566062957044,0.14750128585081546
1700516558589713000,12.035712890625,1.7073937004715203,-4.204087766852974,0.0304653904883191
1700516558599722800,12.04572265625,1.333289169678092,2.3689773486591874,-0.3252086536666378
1700516558609732900,12.05573291015625,0.7588263171911239,-0.1629813617184758,0.513519686952792
1700516558619743000,12.065742919921876,-1.3789584494411944,-3.3799437588378787,-1.731291439539939
1700516558629752800,12.0757529296875,-1.9308675248146057,0.9971714013211429,0.2546387048702687
1700516558639763000,12.085762939453126,1.4358546411395072,1.8506199758842585,-0.7283494919933379
1700516558649772500,12.0957724609375,1.8049083182841539,-2.2902665077768263,-2.1955323144629597
1700516558659782700,12.10578271484375,-2.394137947270274,-3.348601987373829,-0.8664851662687957
1700516558669792800,12.115792724609374,-0.7242921794265508,3.8767294974043964,-0.9494149400204419
1700516558679801600,12.125801513671876,0.3649456573039293,-1.20235524347499,-0.12551482376381753
1700516558689811700,12.135811767578126,-3.0877199311345813,-1.8583391719594597,0.042825507704541084
1700516558699821800,12.14582177734375,-1.9762433745890855,2.6832331215590237,-0.22241861620172856
1700516558709831700,12.155831787109374,3.3106840523898597,-0.7380141230478883,1.6693679211989043
1700516558719841800,12.165841796875,2.237348718190193,-2.466224693837762,-0.6894218685101717
1700516558729851600,12.1758515625,1.4371364976435899,1.6072415737621486,0.6869739639014005
1700516558739861800,12.18586181640625,0.8714993411689996,-0.29237127334997054,-1.061693996244669
1700516558749871600,12.19587158203125,-2.332612926727533,-2.6604765153497456,-1.0084395951148122
1700516558759881700,12.2058818359375,-6.255716345033049,-1.880735420423746,-0.295532513859868
1700516558769891800,12.215891845703124,-1.312688280197978,4.159102962222695,-1.122550542941317
1700516558779901700,12.225901611328124,2.1168699888974425,-2.503854459530115,-0.7238738809492439
1700516558789911800,12.235911865234375,0.05109013576805591,-2.9827105736523865,-0.8514739865545183
1700516558799921700,12.245921630859375,-1.4188064757049084,3.3587156773701308,-0.24912242566682397
1700516558809931800,12.255931884765625,-0.3088625355541706,-1.0612998823605477,1.0103184676639736
1700516558819941600,12.265941650390625,-2.3934879589289424,-2.967752073973417,-0.9237941765516996
1700516558829951700,12.27595166015625,0.14828618915081024,2.9134233946755526,1.443714122468233
1700516558839961900,12.2859619140625,3.220288911193609,0.4346552994765341,0.5505024234458804
1700516558849971000,12.295970947265625,2.389902501657605,-2.805628498128056,-0.7294931090705097
1700516558859980800,12.305980712890625,-0.50079146707654,-1.6101780656054614,0.5904230765543877
1700516558869991000,12.315990966796875,1.6641700602948664,4.064641886761784,-0.6890059081204235
1700516558880000800,12.326000732421875,-1.1005337222486733,-1.5578969664871691,-0.9224396201375872
1700516558890011000,12.336010986328125,-1.707436955091357,-2.4565812517017123,-0.5992790215745568
1700516558900020700,12.346020751953125,0.19444646730124948,4.127512184433638,-0.14350626139789818
1700516558910030800,12.35603076171875,2.577777773874998,0.5562019502617418,0.598206789233163
1700516558920041000,12.366041015625,1.0292144529223441,-3.558186987096071,-0.7351400289162993
1700516558930050800,12.37605078125,-0.7355062318801879,1.629084426127374,1.254355479825288
1700516558940061000,12.38606103515625,0.24229309110343455,0.9291434286251664,0.9615032910905777
1700516558950070800,12.39607080078125,-3.0023826578497883,-2.234945894832164,0.2473430679693818
1700516558960081000,12.406080810546875,-3.219675747731328,-1.4409788522854448,0.9589237959913909
1700516558970090800,12.4160908203125,3.2674966525703666,3.024197014772892,0.18938253497518598
1700516558980100900,12.426100830078125,3.0070804602771997,-2.596986916735768,-0.43084005203731357
1700516558990111000,12.436111083984375,0.038892917495965955,-1.7808735088326035,-0.33386041788421567
1700516559000119800,12.446119873046875,-0.5794540849030018,2.191006215340644,-0.16537461353056132
1700516559010129700,12.456129638671875,0.07551730553805827,0.025055969192832706,1.4702072848573327
1700516559020139800,12.466139892578125,-2.0865806490957737,-3.487297925880551,0.644458837320283
1700516559030149600,12.476149658203125,1.1418968292504548,2.78143221450448,1.2419785210721195
1700516559040159700,12.48615966796875,3.3894378556311127,0.618613982772082,0.08984883242510258
1700516559050169600,12.496169677734375,0.9330705389410257,-2.6290529108211396,0.6301765564024449
1700516559060179700,12.5061796875,-0.9087135117977857,-1.4990423341974615,0.2445860243462026
1700516559070189800,12.51618994140625,1.227806349465251,3.454922135193646,-0.09736118081659079
1700516559080199700,12.52619970703125,0.9464075748980044,-1.2363400767937303,-0.18916564082149415
1700516559090209800,12.536209716796876,1.4323597847610712,-1.8036989424943923,-0.6454018903240561
1700516559100219600,12.5462197265625,0.28775077394247056,2.7129630739122628,-0.3833544070346281
1700516559110229800,12.556229736328126,1.790450753864646,-0.24508754412755368,1.9849062812551854
1700516559120239600,12.566239501953126,1.4082874197781086,-2.794163101261854,-0.5166112597599626
