time,seconds_elapsed,z,y,x
1700516546572497000,0.018496826171875,-1.091552734375,-0.0836181640625,0.0470733642578125
1700516546582508000,0.028508056640625,-1.0003662109375,-0.1070404052734375,0.0528564453125
1700516546592518000,0.038517822265625,-0.705902099609375,-0.216064453125,0.036468505859375
1700516546602527700,0.04852783203125,-1.0308990478515625,-0.2021331787109375,0.0465850830078125
1700516546612537900,0.058537841796875,-1.1827239990234375,0.014129638671875,0.0392303466796875
1700516546622548000,0.0685478515625,-0.978973388671875,-0.0427703857421875,0.08099365234375
1700516546632559000,0.07855908203125,-0.8423614501953125,-0.350189208984375,0.0509490966796875
1700516546642569000,0.08856884765625,-0.92047119140625,-0.06744384765625,0.003326416015625
1700516546652579000,0.0985791015625,-1.1584320068359375,-0.1361083984375,0.103057861328125
1700516546662589200,0.108589111328125,-1.09674072265625,-0.0626983642578125,0.0449371337890625
1700516546672599000,0.11859912109375,-1.0021820068359375,-0.1370697021484375,0.0711212158203125
1700516546682610000,0.12860986328125,-0.7157440185546875,-0.18511962890625,0.0162811279296875
1700516546692620000,0.1386201171875,-1.02227783203125,-0.198272705078125,0.0553131103515625
1700516546702630100,0.148630126953125,-1.1982574462890625,-0.0189361572265625,0.0298614501953125
1700516546712640000,0.158639892578125,-0.9864959716796875,0.000885009765625,0.0757598876953125
1700516546722650000,0.168650146484375,-0.8303375244140625,-0.352783203125,0.0501251220703125
1700516546732661000,0.178660888671875,-0.9254302978515625,-0.0779876708984375,-0.0076446533203125
1700516546742671000,0.188671142578125,-1.15283203125,-0.149383544921875,0.095245361328125
1700516546752681000,0.198680908203125,-1.0823822021484375,-0.057952880859375,0.0333709716796875
1700516546762691000,0.208691162109375,-1.0261688232421875,-0.1351318359375,0.0753326416015625
1700516546772701000,0.218700927734375,-0.7283782958984375,-0.18865966796875,0.015350341796875
1700516546782711000,0.2287109375,-0.9725341796875,-0.210540771484375,0.0523223876953125
1700516546792722000,0.238721923828125,-1.221038818359375,-0.0264892578125,0.034027099609375
1700516546802732000,0.24873193359375,-0.98895263671875,0.0074615478515625,0.0725860595703125
1700516546812742000,0.258741943359375,-0.8567047119140625,-0.353515625,0.0734710693359375
1700516546822752000,0.268751953125,-0.9173431396484375,-0.0875244140625,-0.0072021484375
1700516546832762000,0.27876220703125,-1.1154937744140625,-0.1501312255859375,0.10015869140625
1700516546842773000,0.28877294921875,-1.098541259765625,-0.0546722412109375,0.0420684814453125
1700516546852782800,0.298782958984375,-1.0291290283203125,-0.1429595947265625,0.077117919921875
1700516546862793000,0.30879296875,-0.7195892333984375,-0.1868438720703125,0.008453369140625
1700516546872803000,0.318802978515625,-0.950775146484375,-0.2126922607421875,0.0543212890625
1700516546882813000,0.32881298828125,-1.190765380859375,-0.0266265869140625,0.028289794921875
1700516546892823000,0.338822998046875,-1.0146331787109375,0.0130615234375,0.06890869140625
1700516546902834000,0.348833984375,-0.85076904296875,-0.3467864990234375,0.073272705078125
1700516546912844000,0.358843994140625,-0.892120361328125,-0.092620849609375,-0.0156402587890625
1700516546922854000,0.36885400390625,-1.11505126953125,-0.1431884765625,0.084503173828125
1700516546932864000,0.378864013671875,-1.108612060546875,-0.03887939453125,0.0398712158203125
1700516546942873900,0.388873779296875,-1.0510406494140625,-0.1423187255859375,0.075897216796875
1700516546952885000,0.398885009765625,-0.7143402099609375,-0.1811370849609375,-0.001556396484375
1700516546962894800,0.408894775390625,-0.968658447265625,-0.182373046875,0.0529937744140625
1700516546972905000,0.418905029296875,-1.18011474609375,-0.0331573486328125,0.0081787109375
1700516546982914800,0.428914794921875,-1.0324859619140625,0.02825927734375,0.061004638671875
1700516546992925000,0.438925048828125,-0.852081298828125,-0.35040283203125,0.0677490234375
1700516547002935000,0.44893505859375,-0.907623291015625,-0.062744140625,-0.0303192138671875
1700516547012946000,0.45894580078125,-1.14825439453125,-0.1190948486328125,0.0875396728515625
1700516547022955800,0.468955810546875,-1.128448486328125,-0.0559234619140625,0.0362701416015625
1700516547032966000,0.4789658203125,-1.00140380859375,-0.150054931640625,0.068817138671875
1700516547042976000,0.48897607421875,-0.7095947265625,-0.1768035888671875,0.0034332275390625
1700516547052985900,0.49898583984375,-1.0438385009765625,-0.1927032470703125,0.0602874755859375
1700516547062997000,0.5089970703125,-1.1788330078125,-0.0013580322265625,0.022003173828125
1700516547073006800,0.5190068359375,-1.0144195556640625,-0.0374908447265625,0.069091796875
1700516547083017000,0.529016845703125,-0.78485107421875,-0.3589019775390625,0.0552978515625
1700516547093026800,0.53902685546875,-0.9337921142578125,-0.0703277587890625,0.0024566650390625
1700516547103037000,0.549036865234375,-1.1700897216796875,-0.1529541015625,0.0926055908203125
1700516547113046800,0.559046875,-1.0907440185546875,-0.0793304443359375,0.0445098876953125
1700516547123058200,0.56905810546875,-0.9602203369140625,-0.1402435302734375,0.0725555419921875
1700516547133068000,0.579068115234375,-0.700042724609375,-0.2007904052734375,0.0111236572265625
1700516547143078100,0.589078125,-1.0641021728515625,-0.201141357421875,0.0624237060546875
1700516547153087700,0.599087646484375,-1.17437744140625,0.0069580078125,0.0283050537109375
1700516547163097900,0.609097900390625,-0.9849700927734375,-0.031219482421875,0.067962646484375
1700516547173108000,0.61910791015625,-0.7859954833984375,-0.384735107421875,0.0624542236328125
1700516547183119000,0.629119140625,-0.9193115234375,-0.034271240234375,-0.0037689208984375
1700516547193129000,0.63912890625,-1.1745147705078125,-0.15277099609375,0.0953216552734375
1700516547203139000,0.64913916015625,-1.123504638671875,-0.0515289306640625,0.0520477294921875
1700516547213149200,0.659149169921875,-0.9490509033203125,-0.1145172119140625,0.050140380859375
1700516547223159000,0.669158935546875,-0.723388671875,-0.2085113525390625,0.0244903564453125
1700516547233169200,0.679169189453125,-1.0814971923828125,-0.183563232421875,0.0611724853515625
1700516547243180000,0.689179931640625,-1.169342041015625,0.022491455078125,0.0206146240234375
1700516547253190100,0.699190185546875,-0.9857177734375,-0.0325775146484375,0.068603515625
1700516547263200000,0.709199951171875,-0.8125152587890625,-0.363006591796875,0.0527496337890625
1700516547273210000,0.719210205078125,-0.97186279296875,-0.0467376708984375,0.0029449462890625
1700516547283220000,0.729219970703125,-1.1451873779296875,-0.1209564208984375,0.0715789794921875
1700516547293225500,0.7392255859375,-1.1207427978515625,-0.084564208984375,0.0608062744140625
1700516547303236600,0.749236572265625,-0.909576416015625,-0.1356964111328125,0.0397796630859375
1700516547313246500,0.75924658203125,-0.743194580078125,-0.1902313232421875,0.019561767578125
1700516547323256600,0.769256591796875,-1.117706298828125,-0.193084716796875,0.053436279296875
1700516547333266400,0.779266357421875,-1.1462249755859375,0.0347900390625,0.0139923095703125
1700516547343276500,0.789276611328125,-0.9778900146484375,-0.08502197265625,0.07586669921875
1700516547353286400,0.799286376953125,-0.761199951171875,-0.324859619140625,0.0352783203125
1700516547363297800,0.8092978515625,-1.0298004150390625,-0.0868377685546875,0.0217437744140625
1700516547373307600,0.8193076171875,-1.1390533447265625,-0.1306915283203125,0.0492401123046875
1700516547383317800,0.82931787109375,-1.065826416015625,-0.050506591796875,0.064788818359375
1700516547393327600,0.83932763671875,-0.94073486328125,-0.1956329345703125,0.0491180419921875
1700516547403337500,0.84933740234375,-0.71685791015625,-0.162506103515625,0.008636474609375
1700516547413347600,0.85934765625,-1.1180419921875,-0.213592529296875,0.062652587890625
1700516547423358700,0.869358642578125,-1.138702392578125,0.0053863525390625,0.01348876953125
1700516547433368600,0.87936865234375,-0.9499969482421875,-0.0506744384765625,0.07659912109375
1700516547443378700,0.889378662109375,-0.796173095703125,-0.3320770263671875,0.0402069091796875
1700516547453388800,0.899388916015625,-1.042510986328125,-0.0862274169921875,0.0247039794921875
1700516547463398700,0.909398681640625,-1.1123809814453125,-0.1298370361328125,0.064300537109375
1700516547473408800,0.91940869140625,-1.0609588623046875,-0.0506744384765625,0.0612640380859375
1700516547483419600,0.929419677734375,-0.9679718017578125,-0.185150146484375,0.060455322265625
1700516547493429800,0.9394296875,-0.7193756103515625,-0.1563873291015625,0.0033721923828125
1700516547503439600,0.949439697265625,-1.1368865966796875,-0.2035675048828125,0.0713958740234375
1700516547513449700,0.95944970703125,-1.1260528564453125,0.0166473388671875,0.0134429931640625
1700516547523459600,0.96945947265625,-0.968841552734375,-0.059478759765625,0.080413818359375
1700516547533469700,0.9794697265625,-0.800872802734375,-0.328887939453125,0.0338897705078125
1700516547543480600,0.98948046875,-1.02703857421875,-0.0751495361328125,0.03228759765625
1700516547553490700,0.99949072265625,-1.1194305419921875,-0.1243743896484375,0.0606231689453125
1700516547563500500,1.00950048828125,-1.0744476318359375,-0.07012939453125,0.0666351318359375
1700516547573510700,1.0195107421875,-0.953460693359375,-0.143280029296875,0.042022705078125
1700516547583520800,1.029520751953125,-0.7090911865234375,-0.18194580078125,0.01910400390625
1700516547593530600,1.039530517578125,-1.1443634033203125,-0.19219970703125,0.05755615234375
1700516547603541500,1.04954150390625,-1.127471923828125,0.053497314453125,0.0153961181640625
1700516547613551600,1.059551513671875,-0.978485107421875,-0.0983428955078125,0.0878753662109375
1700516547623561700,1.069561767578125,-0.7708892822265625,-0.328826904296875,0.0254058837890625
1700516547633571600,1.079571533203125,-1.0047454833984375,-0.0708770751953125,0.0325775146484375
1700516547643581700,1.089581787109375,-1.1631927490234375,-0.12579345703125,0.0547027587890625
1700516547653591600,1.099591552734375,-1.0766448974609375,-0.0701751708984375,0.072265625
1700516547663601700,1.1096015625,-0.9337005615234375,-0.1682891845703125,0.0402679443359375
1700516547673612500,1.119612548828125,-0.698089599609375,-0.1812591552734375,0.0151824951171875
1700516547683622700,1.12962255859375,-1.150726318359375,-0.200103759765625,0.0609588623046875
1700516547693632500,1.139632568359375,-1.1347198486328125,0.0322113037109375,0.0134429931640625
1700516547703642600,1.149642578125,-0.9600982666015625,-0.094268798828125,0.0865936279296875
1700516547713652700,1.15965283203125,-0.775421142578125,-0.339447021484375,0.0241546630859375
1700516547723662600,1.16966259765625,-1.00628662109375,-0.061767578125,0.028289794921875
1700516547733673500,1.179673583984375,-1.178619384765625,-0.1221771240234375,0.05712890625
1700516547743683600,1.18968359375,-1.074798583984375,-0.07879638671875,0.067138671875
1700516547753693700,1.199693603515625,-0.9133758544921875,-0.16217041015625,0.0446319580078125
1700516547763703600,1.20970361328125,-0.7226409912109375,-0.1767578125,0.0109710693359375
1700516547773713700,1.219713623046875,-1.1656494140625,-0.168670654296875,0.0576934814453125
1700516547783723500,1.2297236328125,-1.1543731689453125,0.04193115234375,0.0178070068359375
1700516547793733600,1.239733642578125,-0.9565582275390625,-0.0947723388671875,0.07403564453125
1700516547803744500,1.24974462890625,-0.75982666015625,-0.31353759765625,0.0280609130859375
1700516547813754600,1.259754638671875,-1.0032958984375,-0.06964111328125,0.023956298828125
1700516547823764500,1.269764404296875,-1.1734619140625,-0.12432861328125,0.0694122314453125
1700516547833774600,1.279774658203125,-1.0539398193359375,-0.0622100830078125,0.0556488037109375
1700516547843784400,1.289784423828125,-0.938690185546875,-0.160614013671875,0.0527496337890625
1700516547853794600,1.299794677734375,-0.702850341796875,-0.1780853271484375,0.0118255615234375
1700516547863805400,1.309805419921875,-1.1308441162109375,-0.1944122314453125,0.0655059814453125
1700516547873815600,1.319815673828125,-1.153564453125,0.03533935546875,0.0226287841796875
1700516547883825700,1.32982568359375,-0.9393310546875,-0.0858917236328125,0.0772552490234375
1700516547893835500,1.33983544921875,-0.794281005859375,-0.334625244140625,0.0289306640625
1700516547903845600,1.349845703125,-0.9842071533203125,-0.08428955078125,0.035003662109375
1700516547913855500,1.35985546875,-1.15875244140625,-0.1337432861328125,0.067291259765625
1700516547923865600,1.369865478515625,-1.0485382080078125,-0.0885467529296875,0.055511474609375
1700516547933876500,1.37987646484375,-0.948486328125,-0.16546630859375,0.056976318359375
1700516547943886600,1.389886474609375,-0.7145538330078125,-0.19415283203125,0.020843505859375
1700516547953896400,1.399896484375,-1.141082763671875,-0.2042236328125,0.063446044921875
1700516547963906600,1.409906494140625,-1.1487274169921875,0.03021240234375,0.02215576171875
1700516547973916400,1.41991650390625,-0.9815521240234375,-0.0741729736328125,0.082794189453125
1700516547983926500,1.429926513671875,-0.7708587646484375,-0.3591156005859375,0.0322723388671875
1700516547993937400,1.4399375,-1.004058837890625,-0.0491943359375,0.02899169921875
1700516548003947500,1.449947509765625,-1.173919677734375,-0.1309356689453125,0.073486328125
1700516548013957400,1.459957275390625,-1.0826263427734375,-0.082244873046875,0.05767822265625
1700516548023967500,1.469967529296875,-0.9094085693359375,-0.120574951171875,0.0428314208984375
1700516548033977600,1.4799775390625,-0.74151611328125,-0.20001220703125,0.0276641845703125
1700516548043987500,1.489987548828125,-1.1212615966796875,-0.18438720703125,0.0522308349609375
1700516548053997600,1.49999755859375,-1.1658935546875,0.04681396484375,0.0346527099609375
1700516548064008700,1.5100087890625,-0.959869384765625,-0.048126220703125,0.0741729736328125
1700516548074018600,1.5200185546875,-0.8133697509765625,-0.346588134765625,0.0456695556640625
1700516548084028400,1.5300283203125,-0.9807586669921875,-0.0656585693359375,0.0057830810546875
1700516548094038500,1.54003857421875,-1.143157958984375,-0.1136016845703125,0.0917205810546875
1700516548104048400,1.55004833984375,-1.0859832763671875,-0.07171630859375,0.046722412109375
1700516548114058500,1.56005859375,-0.9367523193359375,-0.137237548828125,0.053131103515625
1700516548124068600,1.570068603515625,-0.7362213134765625,-0.1939849853515625,0.02593994140625
1700516548134079700,1.580079833984375,-1.0852813720703125,-0.1959991455078125,0.0602264404296875
1700516548144089600,1.590089599609375,-1.180145263671875,0.0127410888671875,0.0289459228515625
1700516548154099700,1.600099609375,-0.9591064453125,-0.036468505859375,0.0724945068359375
1700516548164109800,1.61010986328125,-0.83935546875,-0.34649658203125,0.0602264404296875
1700516548174119700,1.62011962890625,-0.93316650390625,-0.1012725830078125,0.00555419921875
1700516548184129800,1.6301298828125,-1.1492767333984375,-0.1219635009765625,0.086090087890625
1700516548194140700,1.640140625,-1.06817626953125,-0.0586395263671875,0.0549468994140625
1700516548204150800,1.65015087890625,-0.9809417724609375,-0.1538848876953125,0.0606842041015625
1700516548214160600,1.66016064453125,-0.7241363525390625,-0.1937103271484375,0.0144805908203125
1700516548224170800,1.670170654296875,-1.0150299072265625,-0.2108917236328125,0.05999755859375
1700516548234180600,1.6801806640625,-1.1816558837890625,0.0070648193359375,0.0219573974609375
1700516548244190700,1.690190673828125,-0.9897918701171875,-0.030364990234375,0.07513427734375
1700516548254200600,1.70020068359375,-0.8410186767578125,-0.3347930908203125,0.0643310546875
1700516548264211700,1.710211669921875,-0.905242919921875,-0.11285400390625,0.003204345703125
1700516548274221600,1.7202216796875,-1.145599365234375,-0.1176300048828125,0.0801849365234375
1700516548284231700,1.730231689453125,-1.091796875,-0.0661773681640625,0.058746337890625
1700516548294241500,1.740241455078125,-0.99951171875,-0.14031982421875,0.05859375
1700516548304251400,1.75025146484375,-0.70660400390625,-0.18133544921875,0.0146484375
1700516548314261500,1.760261474609375,-1.038421630859375,-0.2087554931640625,0.061676025390625
1700516548324272400,1.7702724609375,-1.198638916015625,0.008544921875,0.0223236083984375
1700516548334282500,1.780282470703125,-0.9925079345703125,-0.012359619140625,0.0813751220703125
1700516548344292400,1.790292236328125,-0.8151092529296875,-0.3475799560546875,0.057098388671875
1700516548354302500,1.800302490234375,-0.9373016357421875,-0.0947723388671875,0.0078125
1700516548364312300,1.810312255859375,-1.1487884521484375,-0.1168212890625,0.069366455078125
1700516548374322400,1.820322509765625,-1.098419189453125,-0.060211181640625,0.06890869140625
1700516548384332500,1.83033251953125,-0.9685821533203125,-0.1377410888671875,0.05560302734375
1700516548394343700,1.84034375,-0.7167205810546875,-0.1778106689453125,0.008941650390625
1700516548404353500,1.850353515625,-1.066925048828125,-0.1990509033203125,0.0669403076171875
1700516548414363600,1.86036376953125,-1.173553466796875,0.0009765625,0.0230712890625
1700516548424373500,1.87037353515625,-0.98406982421875,-0.0152435302734375,0.0692291259765625
1700516548434383600,1.880383544921875,-0.7920684814453125,-0.328765869140625,0.0561676025390625
1700516548444393500,1.8903935546875,-0.9822235107421875,-0.1150360107421875,0.01202392578125
1700516548454404600,1.900404541015625,-1.1522216796875,-0.11517333984375,0.0649566650390625
1700516548464414700,1.910414794921875,-1.0643157958984375,-0.0704193115234375,0.05859375
1700516548474424600,1.920424560546875,-0.96630859375,-0.1527252197265625,0.05584716796875
1700516548484434700,1.9304345703125,-0.735626220703125,-0.17034912109375,0.001800537109375
1700516548494444500,1.940444580078125,-1.07513427734375,-0.2117767333984375,0.06689453125
1700516548504454700,1.95045458984375,-1.16009521484375,-0.01751708984375,0.0236663818359375
1700516548514464500,1.960464599609375,-0.9846038818359375,-0.0154571533203125,0.0624237060546875
1700516548524475600,1.9704755859375,-0.7830352783203125,-0.337799072265625,0.058074951171875
1700516548534485500,1.980485595703125,-0.9777069091796875,-0.1201934814453125,0.0141754150390625
1700516548544495600,1.99049560546875,-1.1639404296875,-0.113922119140625,0.0695037841796875
1700516548554505500,2.00050537109375,-1.0585174560546875,-0.0930328369140625,0.0556793212890625
1700516548564515600,2.010515625,-0.9626007080078125,-0.12200927734375,0.0551300048828125
1700516548574525700,2.020525634765625,-0.7341766357421875,-0.17681884765625,0.0118255615234375
1700516548584536600,2.03053662109375,-1.066009521484375,-0.2283935546875,0.069366455078125
1700516548594546400,2.04054638671875,-1.1645050048828125,-0.0108489990234375,0.0258636474609375
1700516548604556500,2.050556640625,-0.9835968017578125,-0.001068115234375,0.0652313232421875
1700516548614566700,2.060566650390625,-0.7866363525390625,-0.349029541015625,0.0650177001953125
1700516548624576500,2.070576416015625,-0.9682464599609375,-0.106719970703125,0.008209228515625
1700516548634586600,2.080586669921875,-1.1764678955078125,-0.113250732421875,0.0818939208984375
1700516548644597500,2.090597412109375,-1.056396484375,-0.0966796875,0.0534515380859375
1700516548654607600,2.100607666015625,-0.9680328369140625,-0.1095123291015625,0.0535888671875
1700516548664617500,2.110617431640625,-0.7334136962890625,-0.179168701171875,0.0143890380859375
1700516548674627600,2.120627685546875,-1.0618438720703125,-0.2178955078125,0.064788818359375
1700516548684637400,2.130637451171875,-1.17425537109375,-0.0203857421875,0.0278778076171875
1700516548694647600,2.1406474609375,-0.9942169189453125,0.0179595947265625,0.058074951171875
1700516548704658400,2.150658447265625,-0.7835693359375,-0.3574066162109375,0.0661773681640625
1700516548714668500,2.16066845703125,-0.9530487060546875,-0.1099853515625,-0.0012664794921875
1700516548724678400,2.170678466796875,-1.18719482421875,-0.1072845458984375,0.0780792236328125
1700516548734688500,2.1806884765625,-1.0629730224609375,-0.0947113037109375,0.05126953125
1700516548744698600,2.19069873046875,-0.9693603515625,-0.1239471435546875,0.055694580078125
1700516548754708500,2.20070849609375,-0.7295074462890625,-0.173126220703125,0.0054473876953125
1700516548764719400,2.21071923828125,-1.0557708740234375,-0.21575927734375,0.0678558349609375
1700516548774729500,2.2207294921875,-1.176177978515625,-0.036376953125,0.0290985107421875
1700516548784739600,2.230739501953125,-0.9967041015625,0.0218963623046875,0.0528106689453125
1700516548794749400,2.24074951171875,-0.7694244384765625,-0.3531494140625,0.071258544921875
1700516548804759600,2.250759521484375,-0.952667236328125,-0.118255615234375,-0.003021240234375
1700516548814769400,2.260769287109375,-1.196258544921875,-0.10943603515625,0.0854339599609375
1700516548824780500,2.270780517578125,-1.0493927001953125,-0.090118408203125,0.04193115234375
1700516548834790400,2.280790283203125,-0.960540771484375,-0.1478729248046875,0.0756378173828125
1700516548844800500,2.290800537109375,-0.7427978515625,-0.15533447265625,-0.0079803466796875
1700516548854810400,2.300810302734375,-1.0742340087890625,-0.1968536376953125,0.0798187255859375
1700516548864820500,2.310820556640625,-1.1606903076171875,-0.0807037353515625,0.029693603515625
1700516548874830600,2.32083056640625,-1.0042724609375,0.0322265625,0.0423431396484375
1700516548884841500,2.330841552734375,-0.7808685302734375,-0.3096160888671875,0.0742034912109375
1700516548894851300,2.340851318359375,-0.9319305419921875,-0.1510467529296875,0.0116424560546875
1700516548904861400,2.350861328125,-1.200225830078125,-0.1171722412109375,0.07989501953125
1700516548914871600,2.36087158203125,-1.0392303466796875,-0.07269287109375,0.0164031982421875
1700516548924881400,2.37088134765625,-0.981719970703125,-0.148651123046875,0.0951385498046875
1700516548934891500,2.3808916015625,-0.7838897705078125,-0.118865966796875,-0.0078887939453125
1700516548944902400,2.39090234375,-0.9882354736328125,-0.250732421875,0.07281494140625
1700516548954912500,2.40091259765625,-1.1957855224609375,-0.0748291015625,0.027191162109375
1700516548964922400,2.41092236328125,-0.98895263671875,0.054290771484375,0.040985107421875
1700516548974932500,2.420932373046875,-0.845977783203125,-0.2830047607421875,0.0757598876953125
1700516548984942300,2.4309423828125,-0.8902435302734375,-0.1865692138671875,0.0165557861328125
1700516548994952400,2.440952392578125,-1.179595947265625,-0.1184234619140625,0.0641326904296875
1700516549004963300,2.45096337890625,-1.02978515625,-0.0820465087890625,0.018951416015625
1700516549014973400,2.460973388671875,-1.03094482421875,-0.1340484619140625,0.0921173095703125
1700516549024983300,2.4709833984375,-0.81298828125,-0.1390380859375,-0.001190185546875
1700516549034993400,2.480993408203125,-0.89862060546875,-0.2110748291015625,0.062896728515625
1700516549045003500,2.49100341796875,-1.2013702392578125,-0.1522369384765625,0.0324249267578125
1700516549055014700,2.5010146484375,-1.0155792236328125,0.069488525390625,0.026824951171875
1700516549065024500,2.5110244140625,-0.887481689453125,-0.23968505859375,0.086456298828125
1700516549075034600,2.52103466796875,-0.835845947265625,-0.2415008544921875,0.0110626220703125
1700516549085044700,2.531044677734375,-1.156890869140625,-0.087921142578125,0.0656585693359375
1700516549095054600,2.5410546875,-1.078582763671875,-0.1029052734375,0.016448974609375
1700516549105064700,2.551064697265625,-1.0182952880859375,-0.1282196044921875,0.0999298095703125
1700516549115075600,2.56107568359375,-0.8383331298828125,-0.131988525390625,0.0073089599609375
1700516549125085700,2.571085693359375,-0.8503570556640625,-0.20965576171875,0.0440216064453125
1700516549135095600,2.581095458984375,-1.165557861328125,-0.166534423828125,0.0466461181640625
1700516549145105700,2.591105712890625,-1.0602874755859375,0.0557403564453125,0.0175323486328125
1700516549155115500,2.601115478515625,-0.912811279296875,-0.1664581298828125,0.08087158203125
1700516549165126700,2.611126708984375,-0.8027191162109375,-0.277557373046875,0.0205841064453125
1700516549175136500,2.621136474609375,-1.111785888671875,-0.0719451904296875,0.0451202392578125
1700516549185146600,2.631146728515625,-1.1007843017578125,-0.118072509765625,0.0225982666015625
1700516549195156500,2.641156494140625,-1.021270751953125,-0.1312255859375,0.099212646484375
1700516549205166600,2.65116650390625,-0.8871917724609375,-0.0921630859375,0.0069732666015625
1700516549215176700,2.6611767578125,-0.804901123046875,-0.2113494873046875,0.03509521484375
1700516549225187600,2.6711875,-1.1767425537109375,-0.1740264892578125,0.0500640869140625
1700516549235197400,2.681197509765625,-1.071929931640625,0.030517578125,0.01812744140625
1700516549245207600,2.69120751953125,-0.927825927734375,-0.1070404052734375,0.072662353515625
1700516549255217700,2.7012177734375,-0.7838592529296875,-0.30511474609375,0.0323944091796875
1700516549265227500,2.7112275390625,-1.1052093505859375,-0.05450439453125,0.029754638671875
1700516549275238400,2.72123828125,-1.1318817138671875,-0.12457275390625,0.04827880859375
1700516549285248500,2.73124853515625,-1.010528564453125,-0.1173095703125,0.0815582275390625
1700516549295260000,2.741260009765625,-0.8995819091796875,-0.0840606689453125,0.0152130126953125
1700516549305270000,2.75127001953125,-0.8075714111328125,-0.1985931396484375,0.033935546875
1700516549315280000,2.76127978515625,-1.145782470703125,-0.1954498291015625,0.05938720703125
1700516549325291000,2.771291015625,-1.09136962890625,0.00933837890625,0.0193328857421875
1700516549335300900,2.78130078125,-0.943450927734375,-0.0581512451171875,0.0608062744140625
1700516549345311000,2.79131103515625,-0.804595947265625,-0.3321990966796875,0.056396484375
1700516549355320800,2.80132080078125,-1.043487548828125,-0.0835113525390625,0.0179443359375
1700516549365331000,2.8113310546875,-1.1532135009765625,-0.1309814453125,0.059600830078125
1700516549375341800,2.821341796875,-1.037628173828125,-0.1175689697265625,0.072113037109375
1700516549385352000,2.83135205078125,-0.919677734375,-0.100738525390625,0.024505615234375
1700516549395361800,2.84136181640625,-0.779815673828125,-0.19561767578125,0.031402587890625
1700516549405372000,2.851371826171875,-1.099945068359375,-0.22564697265625,0.064178466796875
1700516549415382000,2.861382080078125,-1.13525390625,-0.0133056640625,0.0128021240234375
1700516549425393000,2.871392822265625,-0.96337890625,-0.0093231201171875,0.0548248291015625
1700516549435402800,2.88140283203125,-0.79833984375,-0.3492584228515625,0.0711822509765625
1700516549445412900,2.891412841796875,-0.964508056640625,-0.1027984619140625,-0.0008392333984375
1700516549455423000,2.901423095703125,-1.18157958984375,-0.1270294189453125,0.0676116943359375
1700516549465432800,2.911432861328125,-1.0417327880859375,-0.088897705078125,0.053497314453125
1700516549475444000,2.92144384765625,-0.9676055908203125,-0.1015472412109375,0.0418701171875
1700516549485453800,2.931453857421875,-0.766876220703125,-0.1689453125,0.0211639404296875
1700516549495464000,2.9414638671875,-1.02728271484375,-0.218109130859375,0.0610198974609375
1700516549505473800,2.951473876953125,-1.1737518310546875,-0.0536346435546875,0.0205535888671875
1700516549515484000,2.96148388671875,-0.97515869140625,0.0540924072265625,0.03125
1700516549525494800,2.971494873046875,-0.8092041015625,-0.3224639892578125,0.079559326171875
1700516549535505000,2.9815048828125,-0.9553985595703125,-0.134429931640625,-0.0008392333984375
1700516549545514800,2.9915146484375,-1.1672210693359375,-0.0962677001953125,0.0607757568359375
1700516549555524900,3.00152490234375,-1.053497314453125,-0.0883636474609375,0.039459228515625
1700516549565534700,3.01153466796875,-0.9868621826171875,-0.1126861572265625,0.049896240234375
1700516549575545900,3.0215458984375,-0.7763214111328125,-0.1534881591796875,0.0086669921875
1700516549585555700,3.0315556640625,-1.0104827880859375,-0.20855712890625,0.0560760498046875
1700516549595565800,3.04156591796875,-1.1665496826171875,-0.0837860107421875,0.0160064697265625
1700516549605575700,3.05157568359375,-1.01971435546875,0.0670928955078125,0.026580810546875
1700516549615585800,3.061585693359375,-0.805419921875,-0.310638427734375,0.0767059326171875
1700516549625596700,3.0715966796875,-0.9288787841796875,-0.161529541015625,-0.006744384765625
1700516549635606800,3.081606689453125,-1.180694580078125,-0.1309967041015625,0.0639801025390625
1700516549645617000,3.091616943359375,-1.0398101806640625,-0.0494384765625,0.0214691162109375
1700516549655626800,3.101626708984375,-1.0147247314453125,-0.1613922119140625,0.08087158203125
1700516549665637600,3.1116376953125,-0.7776031494140625,-0.1421661376953125,-0.0021209716796875
1700516549675647700,3.121647705078125,-0.965728759765625,-0.202667236328125,0.0567626953125
1700516549685657900,3.131657958984375,-1.20635986328125,-0.1384735107421875,0.036224365234375
1700516549695667700,3.141667724609375,-0.984832763671875,0.0890960693359375,0.029571533203125
1700516549705677800,3.151677734375,-0.8173065185546875,-0.2787933349609375,0.0778961181640625
1700516549715689000,3.16168896484375,-0.92626953125,-0.1889801025390625,0.005523681640625
1700516549725699000,3.171698974609375,-1.1700592041015625,-0.108367919921875,0.0746002197265625
1700516549735709000,3.181708984375,-1.035797119140625,-0.0804443359375,0.0257415771484375
1700516549745719000,3.191718994140625,-0.9996185302734375,-0.1361541748046875,0.082794189453125
1700516549755729000,3.20172900390625,-0.8189544677734375,-0.1187591552734375,0.0202789306640625
1700516549765740000,3.211739990234375,-0.958282470703125,-0.21563720703125,0.05828857421875
1700516549775750000,3.22175,-1.1726531982421875,-0.148162841796875,0.04119873046875
1700516549785760000,3.231760009765625,-1.000396728515625,0.0906982421875,0.02880859375
1700516549795769900,3.241769775390625,-0.8721160888671875,-0.251617431640625,0.0833587646484375
1700516549805781000,3.251781005859375,-0.87994384765625,-0.219696044921875,0.0142059326171875
1700516549815790800,3.261790771484375,-1.1519317626953125,-0.0966339111328125,0.07080078125
1700516549825801000,3.271801025390625,-1.061431884765625,-0.0905609130859375,0.0231781005859375
1700516549835810800,3.281810791015625,-1.0045166015625,-0.1485595703125,0.098876953125
1700516549845821000,3.291821044921875,-0.8363037109375,-0.094940185546875,0.0067596435546875
1700516549855831800,3.301831787109375,-0.8824310302734375,-0.23626708984375,0.0525970458984375
1700516549865842000,3.311842041015625,-1.1901397705078125,-0.143585205078125,0.0411224365234375
1700516549875851800,3.321851806640625,-1.023681640625,0.0640869140625,0.01611328125
1700516549885862000,3.33186181640625,-0.898590087890625,-0.1937255859375,0.074249267578125
1700516549895872800,3.341872802734375,-0.81536865234375,-0.2779541015625,0.0228118896484375
1700516549905883000,3.3518828125,-1.13226318359375,-0.066192626953125,0.037017822265625
1700516549915892700,3.361892822265625,-1.1041717529296875,-0.1089630126953125,0.0325469970703125
1700516549925902800,3.37190283203125,-1.0108642578125,-0.1451873779296875,0.0862274169921875
1700516549935913000,3.381912841796875,-0.86114501953125,-0.088348388671875,0.0089874267578125
1700516549945923800,3.391923828125,-0.8277130126953125,-0.2369842529296875,0.0411834716796875
1700516549955933700,3.40193359375,-1.1919403076171875,-0.1636505126953125,0.04254150390625
1700516549965943800,3.41194384765625,-1.07208251953125,0.048919677734375,0.01983642578125
1700516549975954000,3.421953857421875,-0.9152984619140625,-0.13482666015625,0.0671844482421875
1700516549985964800,3.43196484375,-0.773162841796875,-0.3246002197265625,0.03167724609375
1700516549995974700,3.441974609375,-1.1339569091796875,-0.04156494140625,0.032257080078125
1700516550005984800,3.45198486328125,-1.1288299560546875,-0.11224365234375,0.0363922119140625
1700516550015995000,3.461994873046875,-1.0135498046875,-0.1307220458984375,0.07061767578125
1700516550026005800,3.472005859375,-0.88726806640625,-0.11468505859375,0.02667236328125
1700516550036015900,3.482015869140625,-0.7689361572265625,-0.2052001953125,0.0159759521484375
1700516550046025700,3.492025634765625,-1.1690673828125,-0.177886962890625,0.0544891357421875
1700516550056035800,3.502035888671875,-1.1187896728515625,0.041168212890625,0.025665283203125
1700516550066045700,3.512045654296875,-0.9296417236328125,-0.0957794189453125,0.07135009765625
1700516550076056800,3.522056884765625,-0.7928619384765625,-0.343353271484375,0.04510498046875
1700516550086067000,3.53206689453125,-1.0182342529296875,-0.06549072265625,0.0341949462890625
1700516550096077000,3.5420771484375,-1.1745452880859375,-0.1258087158203125,0.06329345703125
1700516550106086700,3.552086669921875,-1.035858154296875,-0.065887451171875,0.052947998046875
1700516550116098000,3.56209814453125,-0.9562835693359375,-0.1492462158203125,0.0674591064453125
1700516550126108000,3.57210791015625,-0.7331085205078125,-0.1804962158203125,0.006988525390625
1700516550136118000,3.582117919921875,-1.0802001953125,-0.1949005126953125,0.061248779296875
1700516550146128000,3.5921279296875,-1.1799468994140625,0.009735107421875,0.0296630859375
1700516550156139000,3.602138916015625,-0.9632415771484375,-0.0157012939453125,0.061859130859375
1700516550166148900,3.61214892578125,-0.814361572265625,-0.31903076171875,0.0570831298828125
1700516550176159000,3.622158935546875,-0.9607696533203125,-0.096038818359375,0.0103302001953125
1700516550186168800,3.6321689453125,-1.1606292724609375,-0.1090850830078125,0.08477783203125
1700516550196180000,3.642179931640625,-1.060577392578125,-0.0385284423828125,0.0377044677734375
1700516550206189800,3.65218994140625,-1.012176513671875,-0.1179046630859375,0.06072998046875
1700516550216200000,3.662199951171875,-0.75262451171875,-0.1630859375,0.021881103515625
1700516550226209800,3.672209716796875,-0.97039794921875,-0.2155303955078125,0.051361083984375
1700516550236221000,3.682220947265625,-1.1985626220703125,-0.018951416015625,0.013336181640625
1700516550246230800,3.692230712890625,-1.0010223388671875,0.0505523681640625,0.0486602783203125
1700516550256241000,3.702240966796875,-0.8909149169921875,-0.3194580078125,0.074310302734375
1700516550266250800,3.712250732421875,-0.8982086181640625,-0.14459228515625,-0.0040130615234375
1700516550276262000,3.722261962890625,-1.071258544921875,-0.121307373046875,0.0521697998046875
1700516550286271700,3.732271728515625,-1.0719451904296875,-0.05950927734375,0.0465240478515625
1700516550296281600,3.742281494140625,-1.0702667236328125,-0.13079833984375,0.0516204833984375
1700516550306291500,3.75229150390625,-0.75921630859375,-0.15887451171875,0.0202484130859375
1700516550316302600,3.762302490234375,-0.86016845703125,-0.2370147705078125,0.042633056640625
1700516550326312400,3.7723125,-1.2252655029296875,-0.074737548828125,0.018218994140625
1700516550336322600,3.782322509765625,-1.0042724609375,0.0742950439453125,0.0606231689453125
1700516550346332700,3.792332763671875,-0.8960113525390625,-0.327667236328125,0.073760986328125
1700516550356343600,3.802343505859375,-0.8775787353515625,-0.16729736328125,-0.007232666015625
1700516550366353400,3.812353515625,-1.0977783203125,-0.1196746826171875,0.0806427001953125
1700516550376363500,3.822363525390625,-1.07489013671875,-0.037506103515625,0.0349884033203125
1700516550386373600,3.83237353515625,-1.0901947021484375,-0.1339874267578125,0.087249755859375
1700516550396384500,3.842384521484375,-0.762451171875,-0.167327880859375,0.0221710205078125
1700516550406394400,3.852394287109375,-0.8918609619140625,-0.2004852294921875,0.0537109375
1700516550416404500,3.862404541015625,-1.224761962890625,-0.0695037841796875,0.03729248046875
1700516550426414600,3.87241455078125,-1.0429840087890625,0.09222412109375,0.0538482666015625
1700516550436425500,3.882425537109375,-0.8802337646484375,-0.29913330078125,0.0908660888671875
1700516550446435300,3.892435302734375,-0.878753662109375,-0.1474609375,-0.012237548828125
1700516550456445400,3.902445556640625,-1.138671875,-0.0910797119140625,0.0906982421875
1700516550466455600,3.91245556640625,-1.095611572265625,-0.04730224609375,0.0298004150390625
1700516550476466400,3.922466552734375,-1.04901123046875,-0.1209716796875,0.0819091796875
1700516550486476500,3.9324765625,-0.7499237060546875,-0.1381072998046875,0.0039520263671875
1700516550496486400,3.942486328125,-0.95013427734375,-0.2074432373046875,0.050506591796875
1700516550506496500,3.95249658203125,-1.20623779296875,-0.0924072265625,0.0373687744140625
1700516550516507400,3.96250732421875,-1.0328826904296875,0.0667572021484375,0.0322723388671875
1700516550526517500,3.972517578125,-0.8466644287109375,-0.2672271728515625,0.0775146484375
1700516550536527400,3.98252734375,-0.85498046875,-0.2125244140625,-0.0076904296875
1700516550546537500,3.992537353515625,-1.1597747802734375,-0.12158203125,0.0800323486328125
1700516550556548400,4.00254833984375,-1.0479736328125,-0.0521087646484375,0.0023651123046875
1700516550566558500,4.012558349609375,-1.049835205078125,-0.14788818359375,0.0976715087890625
1700516550576568300,4.022568359375,-0.8272247314453125,-0.1402130126953125,-0.0023956298828125
1700516550586578400,4.032578369140625,-0.811431884765625,-0.2247161865234375,0.0462799072265625
1700516550596589600,4.042589599609375,-1.21551513671875,-0.151397705078125,0.037841796875
1700516550606599700,4.052599609375,-1.048797607421875,0.0670928955078125,0.0350494384765625
1700516550616609500,4.062609619140625,-0.8895416259765625,-0.2095947265625,0.0837860107421875
1700516550626619600,4.07261962890625,-0.8184356689453125,-0.2441864013671875,0.0097503662109375
1700516550636630500,4.082630615234375,-1.1209259033203125,-0.1091461181640625,0.0716400146484375
1700516550646640600,4.092640625,-1.0803680419921875,-0.072296142578125,0.025421142578125
1700516550656650500,4.102650390625,-1.0483856201171875,-0.1151580810546875,0.096527099609375
1700516550666661400,4.112661376953125,-0.8954010009765625,-0.110931396484375,0.0224609375
1700516550676671500,4.12267138671875,-0.7462158203125,-0.20611572265625,0.0455322265625
1700516550686681600,4.132681640625,-1.1904144287109375,-0.1720123291015625,0.0410614013671875
1700516550696691500,4.14269140625,-1.100128173828125,0.077117919921875,0.0390472412109375
1700516550706702600,4.15270263671875,-0.9269561767578125,-0.107269287109375,0.0767974853515625
1700516550716712400,4.16271240234375,-0.8346710205078125,-0.296356201171875,0.02178955078125
1700516550726722600,4.17272265625,-1.041259765625,-0.0784759521484375,0.0500335693359375
1700516550736732400,4.182732421875,-1.1161651611328125,-0.093475341796875,0.046661376953125
1700516550746743600,4.19274365234375,-1.05499267578125,-0.09417724609375,0.0748443603515625
1700516550756753400,4.20275341796875,-0.9512481689453125,-0.1038055419921875,0.0316314697265625
1700516550766763500,4.212763427734375,-0.697174072265625,-0.2053680419921875,0.0332489013671875
1700516550776773400,4.2227734375,-1.1477203369140625,-0.1807098388671875,0.0420684814453125
1700516550786784500,4.232784423828125,-1.159149169921875,0.05865478515625,0.0368804931640625
1700516550796794400,4.24279443359375,-0.94451904296875,-0.081878662109375,0.0773162841796875
1700516550806804500,4.252804443359375,-0.8023834228515625,-0.3363800048828125,0.02777099609375
1700516550816815400,4.2628154296875,-0.990325927734375,-0.0772857666015625,0.033355712890625
1700516550826825500,4.272825439453125,-1.1626129150390625,-0.10076904296875,0.060791015625
1700516550836835300,4.28283544921875,-1.0644073486328125,-0.09075927734375,0.071197509765625
1700516550846845400,4.292845458984375,-0.9476318359375,-0.122314453125,0.0521392822265625
1700516550856856600,4.302856689453125,-0.688690185546875,-0.196624755859375,0.01202392578125
1700516550866866700,4.31286669921875,-1.1331329345703125,-0.1856842041015625,0.0630035400390625
1700516550876876300,4.322876220703125,-1.19000244140625,0.0300445556640625,0.0286712646484375
1700516550886887400,4.332887451171875,-0.9481964111328125,-0.045562744140625,0.075439453125
1700516550896897500,4.3428974609375,-0.776153564453125,-0.357513427734375,0.0447540283203125
1700516550906907600,4.35290771484375,-0.9808197021484375,-0.065582275390625,0.0212249755859375
1700516550916917500,4.36291748046875,-1.20819091796875,-0.100067138671875,0.0631866455078125
1700516550926928600,4.3729287109375,-1.0512847900390625,-0.0950927734375,0.0691070556640625
1700516550936938500,4.3829384765625,-0.957000732421875,-0.1136016845703125,0.0467987060546875
1700516550946948600,4.392948486328125,-0.6725616455078125,-0.189117431640625,0.0059814453125
1700516550956958500,4.40295849609375,-1.11627197265625,-0.1912841796875,0.0595550537109375
1700516550966969600,4.412969482421875,-1.20989990234375,0.0187225341796875,0.0270233154296875
1700516550976979500,4.4229794921875,-0.9242706298828125,-0.0226593017578125,0.059539794921875
1700516550986989600,4.432989501953125,-0.7751312255859375,-0.366180419921875,0.05059814453125
1700516550997000400,4.44300048828125,-0.9675140380859375,-0.070465087890625,0.0170440673828125
1700516551007010600,4.453010498046875,-1.2215728759765625,-0.09051513671875,0.0772247314453125
1700516551017020400,4.4630205078125,-1.0494842529296875,-0.1113433837890625,0.048583984375
1700516551027030500,4.473030517578125,-0.947540283203125,-0.1149444580078125,0.0655670166015625
1700516551037041400,4.48304150390625,-0.6779937744140625,-0.1913604736328125,-0.002044677734375
1700516551047051500,4.493051513671875,-1.1305999755859375,-0.1741943359375,0.0657501220703125
1700516551057061400,4.503061279296875,-1.2172698974609375,0.016845703125,0.0413665771484375
1700516551067072500,4.513072509765625,-0.9442138671875,-0.029144287109375,0.050537109375
1700516551077082400,4.523082275390625,-0.7478790283203125,-0.377349853515625,0.0544281005859375
1700516551087092500,4.533092529296875,-0.969818115234375,-0.0467529296875,0.0116424560546875
1700516551097102300,4.543102294921875,-1.2418670654296875,-0.09490966796875,0.0813140869140625
1700516551107113500,4.553113525390625,-1.0548095703125,-0.102874755859375,0.0469512939453125
1700516551117123300,4.563123291015625,-0.9242706298828125,-0.1112213134765625,0.06317138671875
1700516551127133400,4.573133544921875,-0.6703643798828125,-0.1878509521484375,-0.00079345703125
1700516551137144600,4.58314453125,-1.146820068359375,-0.1689910888671875,0.0731201171875
1700516551147154700,4.59315478515625,-1.211395263671875,0.021575927734375,0.0446929931640625
1700516551157164500,4.60316455078125,-0.9456939697265625,-0.0260772705078125,0.0498504638671875
1700516551167175400,4.613175537109375,-0.7461395263671875,-0.373291015625,0.0537872314453125
1700516551177185500,4.623185546875,-0.9795684814453125,-0.0769805908203125,0.0269012451171875
1700516551187195600,4.633195556640625,-1.244049072265625,-0.0824432373046875,0.07366943359375
1700516551197205500,4.64320556640625,-1.0462493896484375,-0.11175537109375,0.0513763427734375
1700516551207216400,4.65321630859375,-0.9396209716796875,-0.14276123046875,0.061279296875
1700516551217226500,4.6632265625,-0.679168701171875,-0.1754150390625,0.0035858154296875
1700516551227236600,4.673236572265625,-1.1245880126953125,-0.196990966796875,0.0656280517578125
1700516551237247500,4.68324755859375,-1.2010345458984375,0.0035552978515625,0.032318115234375
1700516551247257300,4.69325732421875,-0.956329345703125,-0.0219879150390625,0.0583343505859375
1700516551257267500,4.703267333984375,-0.752593994140625,-0.3499755859375,0.063385009765625
1700516551267277600,4.713277587890625,-0.9587249755859375,-0.100128173828125,0.0200042724609375
1700516551277288400,4.723288330078125,-1.2219696044921875,-0.0887908935546875,0.0670166015625
1700516551287298600,4.733298583984375,-1.0640106201171875,-0.0580596923828125,0.065093994140625
1700516551297308200,4.74330810546875,-0.9858856201171875,-0.131988525390625,0.0634307861328125
1700516551307319000,4.753319091796875,-0.712188720703125,-0.1600799560546875,0.012725830078125
1700516551317329200,4.7633291015625,-1.024017333984375,-0.20831298828125,0.0561370849609375
1700516551327339300,4.77333935546875,-1.2288970947265625,-0.0414581298828125,0.0358123779296875
1700516551337349000,4.78334912109375,-0.9725799560546875,0.04742431640625,0.04766845703125
1700516551347360300,4.7933603515625,-0.83349609375,-0.3414459228515625,0.0748748779296875
1700516551357370000,4.8033701171875,-0.924407958984375,-0.149322509765625,-0.0018768310546875
1700516551367380200,4.813380126953125,-1.152862548828125,-0.1159515380859375,0.047332763671875
1700516551377391400,4.823391357421875,-1.047027587890625,-0.0664215087890625,0.0463104248046875
1700516551387401200,4.833401123046875,-1.0236968994140625,-0.1306915283203125,0.0555419921875
1700516551397411000,4.8434111328125,-0.736297607421875,-0.1743621826171875,0.00775146484375
1700516551407422200,4.853422119140625,-0.94598388671875,-0.221954345703125,0.03594970703125
1700516551417432300,4.863432373046875,-1.1830596923828125,-0.0662841796875,0.0368804931640625
1700516551427442400,4.8734423828125,-1.01397705078125,0.0465545654296875,0.028411865234375
1700516551437452300,4.883452392578125,-0.8166351318359375,-0.327667236328125,0.0713958740234375
1700516551447463200,4.893463134765625,-0.90814208984375,-0.1235198974609375,0.005035400390625
1700516551457473300,4.903473388671875,-1.174896240234375,-0.0955352783203125,0.0619354248046875
1700516551467483400,4.9134833984375,-1.083404541015625,-0.07965087890625,0.0452728271484375
1700516551477494300,4.923494384765625,-0.9989013671875,-0.0973358154296875,0.0537872314453125
1700516551487504100,4.933504150390625,-0.7685089111328125,-0.136932373046875,0.0164794921875
1700516551497514200,4.94351416015625,-0.99237060546875,-0.20794677734375,0.0363922119140625
1700516551507525000,4.953525146484375,-1.1878814697265625,-0.0330352783203125,0.0417938232421875
1700516551517535200,4.96353515625,-1.01043701171875,0.0753021240234375,0.02593994140625
1700516551527545000,4.973545166015625,-0.8208465576171875,-0.30767822265625,0.074127197265625
1700516551537556200,4.98355615234375,-0.9576416015625,-0.1473846435546875,0.005615234375
1700516551547566000,4.993566162109375,-1.178863525390625,-0.08441162109375,0.0771026611328125
1700516551557576200,5.003576171875,-1.0525054931640625,-0.1070098876953125,0.0387420654296875
1700516551567586300,5.01358642578125,-0.968017578125,-0.1111297607421875,0.065277099609375
1700516551577597200,5.02359716796875,-0.7835235595703125,-0.1688690185546875,0.027984619140625
1700516551587607000,5.03360693359375,-1.0199432373046875,-0.2410736083984375,0.053436279296875
1700516551597617200,5.0436171875,-1.1613616943359375,-0.0768890380859375,0.0435333251953125
1700516551607628000,5.0536279296875,-0.976318359375,0.04229736328125,0.017730712890625
1700516551617638100,5.06363818359375,-0.7859039306640625,-0.3431549072265625,0.0758514404296875
1700516551627648000,5.07364794921875,-0.960845947265625,-0.177490234375,0.0066680908203125
1700516551637659400,5.083659423828125,-1.1756439208984375,-0.0733489990234375,0.066680908203125
1700516551647669200,5.093669189453125,-1.043701171875,-0.1257476806640625,0.0307464599609375
1700516551657679400,5.103679443359375,-0.9572296142578125,-0.1130218505859375,0.0520782470703125
1700516551667690200,5.113690185546875,-0.79315185546875,-0.1640625,0.0225067138671875
1700516551677700400,5.123700439453125,-1.03814697265625,-0.2078094482421875,0.0552215576171875
1700516551687710200,5.133710205078125,-1.151031494140625,-0.0962371826171875,0.0401611328125
1700516551697720300,5.14372021484375,-0.9653167724609375,0.0561676025390625,0.0189971923828125
1700516551707731200,5.153731201171875,-0.792449951171875,-0.263031005859375,0.0844573974609375
1700516551717741300,5.1637412109375,-1.0021820068359375,-0.1746826171875,0.01068115234375
1700516551727751200,5.173751220703125,-1.1587066650390625,-0.05865478515625,0.0788726806640625
1700516551737762300,5.18376220703125,-1.00958251953125,-0.0823974609375,0.0214691162109375
1700516551747772200,5.193772216796875,-0.9953765869140625,-0.1148834228515625,0.084808349609375
1700516551757782300,5.2037822265625,-0.8511810302734375,-0.12469482421875,0.0259857177734375
1700516551767793200,5.213793212890625,-1.0102081298828125,-0.221099853515625,0.0450286865234375
1700516551777803300,5.22380322265625,-1.125823974609375,-0.068389892578125,0.0406036376953125
1700516551787813000,5.233813232421875,-1.00115966796875,0.073516845703125,0.017059326171875
1700516551797824300,5.24382421875,-0.84130859375,-0.30340576171875,0.084503173828125
1700516551807834000,5.253834228515625,-0.9564666748046875,-0.194183349609375,0.0109710693359375
1700516551817844200,5.26384423828125,-1.1509857177734375,-0.04046630859375,0.06011962890625
1700516551827855000,5.273855224609375,-1.058685302734375,-0.1259307861328125,0.034576416015625
1700516551837865200,5.283865234375,-0.9722442626953125,-0.1156463623046875,0.058258056640625
1700516551847875000,5.293875,-0.7995147705078125,-0.1529693603515625,0.0260772705078125
1700516551857885200,5.30388525390625,-1.030059814453125,-0.217529296875,0.0558319091796875
1700516551867896300,5.313896240234375,-1.1441802978515625,-0.1138916015625,0.043548583984375
1700516551877906400,5.323906494140625,-0.986572265625,0.0636749267578125,0.0185546875
1700516551887916300,5.333916259765625,-0.802520751953125,-0.289794921875,0.082611083984375
1700516551897927200,5.34392724609375,-0.9526519775390625,-0.2154998779296875,0.024078369140625
1700516551907937300,5.353937255859375,-1.1879730224609375,-0.0543365478515625,0.06475830078125
1700516551917947400,5.363947509765625,-1.027557373046875,-0.1078948974609375,0.019561767578125
1700516551927958300,5.373958251953125,-0.953643798828125,-0.1522979736328125,0.0770721435546875
1700516551937968000,5.383968017578125,-0.809112548828125,-0.1031646728515625,0.009857177734375
1700516551947978200,5.393978271484375,-1.0139007568359375,-0.2464752197265625,0.056854248046875
1700516551957989000,5.403989013671875,-1.157257080078125,-0.0977325439453125,0.0324859619140625
1700516551967999200,5.413999267578125,-0.980621337890625,0.0702056884765625,0.0178070068359375
1700516551978009300,5.42400927734375,-0.8177642822265625,-0.2647857666015625,0.0708770751953125
1700516551988020200,5.434020263671875,-0.933990478515625,-0.23565673828125,0.0255889892578125
1700516551998030000,5.444030029296875,-1.1970062255859375,-0.0256500244140625,0.05645751953125
1700516552008040200,5.454040283203125,-1.04052734375,-0.112396240234375,0.02569580078125
1700516552018051000,5.464051025390625,-0.9625701904296875,-0.1339111328125,0.075164794921875
1700516552028061200,5.474061279296875,-0.821563720703125,-0.1124267578125,0.020263671875
1700516552038071000,5.484071044921875,-0.99664306640625,-0.20367431640625,0.0522308349609375
1700516552048082200,5.494082275390625,-1.161163330078125,-0.1424102783203125,0.0438079833984375
1700516552058092000,5.504092041015625,-0.9902191162109375,0.045684814453125,0.01861572265625
1700516552068102100,5.51410205078125,-0.8376617431640625,-0.1666107177734375,0.0672454833984375
1700516552078113300,5.52411328125,-0.918609619140625,-0.272979736328125,0.0445404052734375
1700516552088123400,5.534123291015625,-1.1858673095703125,-0.035797119140625,0.0393524169921875
1700516552098133200,5.54413330078125,-1.0767059326171875,-0.088836669921875,0.041717529296875
1700516552108143400,5.554143310546875,-0.972015380859375,-0.134490966796875,0.065338134765625
1700516552118154200,5.564154296875,-0.8718719482421875,-0.1093597412109375,0.030548095703125
1700516552128164400,5.574164306640625,-0.8598175048828125,-0.2174224853515625,0.0427703857421875
1700516552138174200,5.58417431640625,-1.13726806640625,-0.1571197509765625,0.03814697265625
1700516552148185300,5.594185302734375,-1.09991455078125,0.0900726318359375,0.029388427734375
1700516552158195200,5.6041953125,-0.941009521484375,-0.129974365234375,0.055084228515625
1700516552168205300,5.614205322265625,-0.802490234375,-0.3136749267578125,0.0465545654296875
1700516552178216200,5.62421630859375,-1.0420379638671875,-0.0558319091796875,0.039703369140625
1700516552188226300,5.634226318359375,-1.125152587890625,-0.0779266357421875,0.037384033203125
1700516552198236200,5.644236083984375,-1.0976715087890625,-0.081390380859375,0.070068359375
1700516552208247300,5.654247314453125,-0.9366912841796875,-0.109954833984375,0.0268402099609375
1700516552218257200,5.664257080078125,-0.7120819091796875,-0.17291259765625,0.043212890625
1700516552228267300,5.674267333984375,-1.06024169921875,-0.237091064453125,0.0428009033203125
1700516552238278100,5.684278076171875,-1.1374359130859375,0.0270233154296875,0.0059967041015625
1700516552248288300,5.694288330078125,-1.000091552734375,-0.0164947509765625,0.0669403076171875
1700516552258298000,5.704298095703125,-0.825927734375,-0.3346405029296875,0.0609588623046875
1700516552268309000,5.71430908203125,-0.9559478759765625,-0.1463165283203125,0.0078582763671875
1700516552278319000,5.724319091796875,-1.098724365234375,-0.0736236572265625,0.042144775390625
1700516552288329200,5.7343291015625,-1.1051025390625,-0.0901641845703125,0.0621490478515625
1700516552298343400,5.744343505859375,-1.01220703125,-0.115234375,0.0372467041015625
1700516552308353500,5.754353515625,-0.7098388671875,-0.14453125,0.021240234375
1700516552318363400,5.76436328125,-1.0359649658203125,-0.228363037109375,0.0466766357421875
1700516552328374300,5.774374267578125,-1.14971923828125,0.02362060546875,0.00701904296875
1700516552338384400,5.78438427734375,-1.0244598388671875,0.0190582275390625,0.068634033203125
1700516552348394500,5.79439453125,-0.8184661865234375,-0.334747314453125,0.0532989501953125
1700516552358405400,5.8044052734375,-0.941253662109375,-0.1038055419921875,0.0126953125
1700516552368415200,5.814415283203125,-1.113555908203125,-0.0343780517578125,0.0453643798828125
1700516552378425300,5.82442529296875,-1.1375274658203125,-0.1157684326171875,0.0785675048828125
1700516552388435500,5.834435546875,-1.00140380859375,-0.0631256103515625,0.030609130859375
1700516552398446300,5.8444462890625,-0.6929473876953125,-0.183013916015625,0.0335235595703125
1700516552408456400,5.85445654296875,-1.055206298828125,-0.204132080078125,0.049163818359375
1700516552418466300,5.86446630859375,-1.19305419921875,0.021209716796875,0.0244598388671875
1700516552428477200,5.874477294921875,-1.050506591796875,0.0081939697265625,0.06097412109375
1700516552438487300,5.8844873046875,-0.77447509765625,-0.387664794921875,0.06658935546875
1700516552448497400,5.894497314453125,-0.9382171630859375,-0.079803466796875,-0.0033721923828125
1700516552458508300,5.90450830078125,-1.1837921142578125,-0.0808868408203125,0.0657196044921875
1700516552468518100,5.91451806640625,-1.14141845703125,-0.1289215087890625,0.0550994873046875
1700516552478528300,5.9245283203125,-0.9403533935546875,-0.1000213623046875,0.039154052734375
1700516552488539400,5.934539306640625,-0.6816864013671875,-0.1885223388671875,0.0109100341796875
1700516552498549500,5.944549560546875,-1.034942626953125,-0.225067138671875,0.0617523193359375
1700516552508559400,5.954559326171875,-1.18310546875,-0.048370361328125,0.0146942138671875
1700516552518570500,5.964570556640625,-0.9995269775390625,0.0456695556640625,0.0369415283203125
1700516552528580400,5.974580322265625,-0.7551422119140625,-0.33837890625,0.0652008056640625
1700516552538590500,5.984590576171875,-0.947296142578125,-0.13482666015625,0.0121002197265625
1700516552548601300,5.994601318359375,-1.1519317626953125,-0.079498291015625,0.0471649169921875
1700516552558611500,6.004611572265625,-1.0932464599609375,-0.10540771484375,0.044586181640625
1700516552568621300,6.014621337890625,-1.000091552734375,-0.0552215576171875,0.035888671875
1700516552578632400,6.024632568359375,-0.692535400390625,-0.1822052001953125,0.026641845703125
1700516552588642300,6.034642333984375,-1.0192413330078125,-0.2418670654296875,0.0606689453125
1700516552598652400,6.04465234375,-1.2039794921875,0.011260986328125,0.0153350830078125
1700516552608663300,6.054663330078125,-1.0147857666015625,0.0301055908203125,0.0339813232421875
1700516552618673400,6.06467333984375,-0.7506561279296875,-0.3961639404296875,0.0906829833984375
1700516552628683300,6.074683349609375,-0.97076416015625,-0.0682220458984375,-0.00982666015625
1700516552638694400,6.0846943359375,-1.180908203125,-0.0499114990234375,0.0591888427734375
1700516552648704300,6.094704345703125,-1.1833343505859375,-0.35992431640625,0.09112548828125
1700516552658714400,6.10471435546875,-1.0587310791015625,0.2041778564453125,0.004852294921875
1700516552668724200,6.11472412109375,-0.4226837158203125,-0.3919219970703125,0.06121826171875
1700516552678735400,6.1247353515625,-1.208404541015625,-0.2296295166015625,-0.0111236572265625
1700516552688745200,6.1347451171875,-1.3427886962890625,0.334564208984375,0.106201171875
1700516552698755300,6.14475537109375,-0.814239501953125,-0.42425537109375,0.0207061767578125
1700516552708766500,6.154766357421875,-0.652435302734375,-0.5475311279296875,0.128662109375
1700516552718776600,6.164776611328125,-1.165618896484375,0.14794921875,-0.064453125
1700516552728786200,6.1747861328125,-1.206298828125,-0.1509552001953125,0.14532470703125
1700516552738797300,6.18479736328125,-1.008880615234375,-0.046356201171875,0.0431060791015625
1700516552748807400,6.194807373046875,-0.50177001953125,-0.6876220703125,0.0072021484375
1700516552758817500,6.204817626953125,-1.0509033203125,0.180908203125,0.0186004638671875
1700516552768828400,6.214828369140625,-1.3900299072265625,0.1034088134765625,0.097808837890625
1700516552778838300,6.22483837890625,-0.914947509765625,-0.7647247314453125,0.0012054443359375
1700516552788848400,6.234848388671875,-0.7171173095703125,-0.22210693359375,0.041412353515625
1700516552798859300,6.244859375,-1.1796112060546875,-0.132904052734375,0.023712158203125
1700516552808869400,6.254869384765625,-1.2755889892578125,0.424530029296875,0.0938873291015625
1700516552818879500,6.26487939453125,-0.553741455078125,-1.075042724609375,0.0670928955078125
1700516552828889300,6.274889404296875,-1.0383453369140625,-0.0749053955078125,-0.13720703125
1700516552838900200,6.284900146484375,-1.101715087890625,0.479583740234375,0.30517578125
1700516552848910300,6.294910400390625,-0.94537353515625,-1.0074615478515625,-0.1544952392578125
1700516552858920400,6.30492041015625,-1.0311126708984375,-0.338958740234375,0.1851654052734375
1700516552868931300,6.314931396484375,-1.1551055908203125,0.355194091796875,-0.07171630859375
1700516552878941200,6.324941162109375,-0.7270050048828125,-0.2222900390625,0.1725006103515625
1700516552888951300,6.334951416015625,-0.859832763671875,-1.1281280517578125,-0.078704833984375
1700516552898962200,6.344962158203125,-1.4446868896484375,0.5762939453125,0.1755218505859375
1700516552908972300,6.35497216796875,-0.638580322265625,-0.6976318359375,0.0473785400390625
1700516552918982100,6.364982177734375,-1.103790283203125,-0.743621826171875,-0.0149078369140625
1700516552928993500,6.37499365234375,-1.3983612060546875,0.121124267578125,0.140411376953125
1700516552939003100,6.385003173828125,-0.5947113037109375,-0.5848846435546875,0.0172576904296875
1700516552949013200,6.39501318359375,-0.90234375,-0.55859375,-0.0434112548828125
1700516552959024400,6.4050244140625,-1.16790771484375,-0.403900146484375,0.2000274658203125
1700516552969034500,6.415034423828125,-0.72943115234375,-0.5182647705078125,-0.193267822265625
1700516552979044400,6.42504443359375,-0.954864501953125,-0.075103759765625,0.1912689208984375
1700516552989054500,6.435054443359375,-0.9676971435546875,-0.58795166015625,0.01507568359375
1700516552999065300,6.4450654296875,-0.8636322021484375,-0.6912841796875,-0.1221771240234375
1700516553009075500,6.455075439453125,-1.1388397216796875,-0.1032562255859375,0.178253173828125
1700516553019085300,6.465085205078125,-1.03759765625,-1.0401763916015625,0.0413818359375
1700516553029096400,6.475096435546875,-0.939697265625,-0.1827239990234375,-0.0774383544921875
1700516553039106300,6.485106201171875,-0.7133941650390625,0.1070709228515625,0.1614227294921875
1700516553049116400,6.495116455078125,-0.82598876953125,-1.1601409912109375,0.032196044921875
1700516553059127300,6.505127197265625,-1.0345306396484375,-0.0134735107421875,-0.032196044921875
1700516553069137400,6.515137451171875,-1.1563568115234375,-0.6300811767578125,0.146270751953125
1700516553079147300,6.525147216796875,-1.0968475341796875,-0.7246246337890625,-0.0641632080078125
1700516553089158400,6.535158447265625,-0.87078857421875,0.1674957275390625,0.039276123046875
1700516553099168300,6.545168212890625,-0.9268798828125,-1.10418701171875,0.11566162109375
1700516553109178400,6.555178466796875,-0.988067626953125,-0.3992767333984375,0.0507965087890625
1700516553119188200,6.565188232421875,-1.0336151123046875,-0.8487091064453125,0.1295623779296875
1700516553129199400,6.575199462890625,-1.0763702392578125,-0.5807037353515625,-0.0247802734375
1700516553139209200,6.585209228515625,-0.8706207275390625,-0.2227935791015625,0.10931396484375
1700516553149219300,6.59521923828125,-0.97705078125,-1.143768310546875,0.0679473876953125
1700516553159230200,6.605230224609375,-0.77825927734375,-0.245819091796875,0.064788818359375
1700516553169240300,6.615240234375,-0.910888671875,-0.664947509765625,0.069580078125
1700516553179250200,6.625250244140625,-0.858642578125,-0.5390472412109375,0.04168701171875
1700516553189261300,6.63526123046875,-0.3467864990234375,-0.2109832763671875,-0.001922607421875
1700516553199271400,6.645271484375,-1.711700439453125,-1.0084075927734375,-0.0063934326171875
1700516553209281500,6.655281494140625,-0.560089111328125,-0.63037109375,0.0903778076171875
1700516553219291400,6.66529150390625,-1.2964630126953125,-0.6561126708984375,-0.080780029296875
1700516553229302500,6.675302490234375,-1.117401123046875,-0.2716827392578125,0.080169677734375
1700516553239312400,6.6853125,0.23187255859375,-0.1852264404296875,-0.03106689453125
1700516553249322500,6.695322509765625,-1.634124755859375,-0.489898681640625,0.0945892333984375
1700516553259333400,6.70533349609375,-0.6647491455078125,-0.6562347412109375,0.0941925048828125
1700516553269343500,6.715343505859375,-1.0828399658203125,-0.9856719970703125,-0.0677032470703125
1700516553279353300,6.725353271484375,-1.5972747802734375,-0.4850006103515625,0.1354827880859375
1700516553289364200,6.7353642578125,-0.9564056396484375,-0.9423065185546875,0.1279449462890625
1700516553299371500,6.74537158203125,-0.7398681640625,-0.747222900390625,-0.0973052978515625
1700516553309381400,6.75538134765625,-0.413970947265625,-0.4927215576171875,0.0270843505859375
1700516553319391500,6.7653916015625,-1.060821533203125,-0.5601348876953125,0.04302978515625
1700516553329402400,6.77540234375,-0.2813873291015625,-0.217132568359375,0.033721923828125
1700516553339412500,6.78541259765625,-1.2779998779296875,-0.598876953125,-0.0088348388671875
1700516553349422300,6.79542236328125,-1.322479248046875,-0.73681640625,0.130401611328125
1700516553359433500,6.80543359375,-1.1465606689453125,-0.775634765625,0.0063629150390625
1700516553369443300,6.815443359375,-1.0347137451171875,-0.2950592041015625,0.0001983642578125
1700516553379453400,6.825453369140625,-0.3470458984375,-0.3263092041015625,0.0478363037109375
1700516553389464600,6.835464599609375,-1.2575836181640625,-0.7687530517578125,0.052581787109375
1700516553399474700,6.845474609375,-0.40545654296875,-0.3627471923828125,0.0697479248046875
1700516553409484500,6.855484619140625,-1.10418701171875,-0.621185302734375,0.0300750732421875
1700516553419494700,6.86549462890625,-1.0426483154296875,-0.2220306396484375,0.0389862060546875
1700516553429505500,6.875505615234375,-1.0304412841796875,-1.0150909423828125,0.0369415283203125
1700516553439515600,6.885515625,-1.1865234375,-0.8015594482421875,-0.0068511962890625
1700516553449525500,6.895525390625,-0.943450927734375,-0.7432403564453125,0.1316375732421875
1700516553459535600,6.90553564453125,-0.7589111328125,-0.373626708984375,0.0160675048828125
1700516553469546500,6.91554638671875,-0.2821807861328125,-0.0882720947265625,0.0456085205078125
1700516553479556600,6.925556640625,-1.022003173828125,-0.579193115234375,0.05780029296875
1700516553489566500,6.93556640625,-0.8818511962890625,-0.63104248046875,0.0391387939453125
1700516553499577600,6.94557763671875,-1.3006134033203125,-0.464447021484375,0.1580352783203125
1700516553509587500,6.95558740234375,-1.5155181884765625,-0.68304443359375,-0.070068359375
1700516553519597600,6.96559765625,-0.6219329833984375,-0.7064208984375,0.052520751953125
1700516553529607400,6.975607421875,-0.700653076171875,-0.473846435546875,0.1072845458984375
1700516553539618600,6.98561865234375,-0.6776275634765625,-0.7776336669921875,0.1404266357421875
1700516553549628400,6.99562841796875,-1.051361083984375,-0.3499908447265625,0.048919677734375
1700516553559638500,7.005638427734375,-0.901519775390625,-0.39251708984375,0.1472015380859375
1700516553569649400,7.0156494140625,-1.2140350341796875,-0.630401611328125,0.0004730224609375
1700516553579659500,7.025659423828125,-1.2411956787109375,-0.5524749755859375,0.0918426513671875
1700516553589669400,7.03566943359375,-0.885009765625,-0.56671142578125,0.02398681640625
1700516553599679500,7.045679443359375,-0.867828369140625,-0.4847412109375,-0.05853271484375
1700516553609690400,7.0556904296875,-0.9045867919921875,-0.73162841796875,-0.0047454833984375
1700516553619700500,7.065700439453125,-1.1934967041015625,-0.4140777587890625,-0.14947509765625
1700516553629710300,7.07571044921875,-1.051727294921875,-0.542755126953125,0.124298095703125
1700516553639720400,7.085720458984375,-0.738922119140625,-0.2107696533203125,0.016448974609375
1700516553649731300,7.0957314453125,-0.646881103515625,-0.6972808837890625,0.11248779296875
1700516553659741400,7.105741455078125,-0.82525634765625,-0.294403076171875,-0.1214447021484375
1700516553669751300,7.115751220703125,-1.1817626953125,-0.6578216552734375,0.1446380615234375
1700516553679762700,7.1257626953125,-0.9756317138671875,-0.0517578125,0.0689239501953125
1700516553689772500,7.1357724609375,-0.78216552734375,-0.513763427734375,0.00921630859375
1700516553699782700,7.14578271484375,-0.8643646240234375,-0.66351318359375,0.0345916748046875
1700516553709792500,7.15579248046875,-1.0089111328125,-0.516357421875,-0.04547119140625
1700516553719803600,7.1658037109375,-1.0686492919921875,-0.3282012939453125,0.109283447265625
1700516553729813500,7.1758134765625,-0.91943359375,-0.3262786865234375,-0.0258636474609375
1700516553739823600,7.18582373046875,-0.91650390625,-0.614776611328125,0.0873870849609375
1700516553749833500,7.19583349609375,-1.03912353515625,-0.5265960693359375,-0.0616912841796875
1700516553759844600,7.2058447265625,-1.0168304443359375,-0.4131011962890625,0.1483612060546875
1700516553769854500,7.2158544921875,-0.965240478515625,-0.1826934814453125,-0.025909423828125
1700516553779864600,7.225864501953125,-0.8871612548828125,-0.6968841552734375,0.0688629150390625
1700516553789874400,7.23587451171875,-1.0449371337890625,-0.4349365234375,-0.1374664306640625
1700516553799885600,7.245885498046875,-1.0612030029296875,-0.3745574951171875,0.134246826171875
1700516553809895400,7.2558955078125,-0.917236328125,-0.2264404296875,0.0832672119140625
1700516553819905500,7.265905517578125,-0.85284423828125,-0.715576171875,0.0622406005859375
1700516553829915600,7.27591552734375,-1.0810699462890625,-0.3184661865234375,-0.1213226318359375
1700516553839926500,7.285926513671875,-1.2132110595703125,-0.5778045654296875,0.133209228515625
1700516553849936400,7.295936279296875,-0.95269775390625,-0.10345458984375,-0.0040740966796875
1700516553859946500,7.305946533203125,-0.80645751953125,-0.752532958984375,0.04766845703125
1700516553869956600,7.31595654296875,-1.0047454833984375,-0.3614654541015625,-0.1327972412109375
1700516553879967500,7.325967529296875,-1.006744384765625,-0.5017242431640625,0.0833587646484375
1700516553889977300,7.335977294921875,-0.7415008544921875,-0.076751708984375,0.0992431640625
1700516553899987500,7.345987548828125,-0.697357177734375,-0.759124755859375,0.10687255859375
1700516553909997600,7.35599755859375,-0.9307708740234375,-0.368255615234375,-0.095306396484375
1700516553920008400,7.366008544921875,-0.9299468994140625,-0.4790191650390625,0.21954345703125
1700516553930018300,7.376018310546875,-0.6577606201171875,-0.05474853515625,0.0799102783203125
1700516553940028400,7.3860283203125,-0.9891204833984375,-0.574951171875,0.066558837890625
1700516553950038500,7.39603857421875,-0.9874114990234375,-0.655548095703125,-0.0361175537109375
1700516553960049700,7.406049560546875,-1.1771392822265625,-0.3832855224609375,0.113311767578125
1700516553970059500,7.4160595703125,-0.5332183837890625,0.041046142578125,0.011566162109375
1700516553980069400,7.4260693359375,-1.2273101806640625,-0.6244354248046875,-0.06915283203125
1700516553990079500,7.43607958984375,-0.991485595703125,-0.751251220703125,0.0384063720703125
1700516554000090600,7.446090576171875,-1.0697021484375,-0.177520751953125,0.0520172119140625
1700516554010100500,7.4561005859375,-0.78680419921875,-0.401214599609375,0.109893798828125
1700516554020110600,7.466110595703125,-0.9742279052734375,-0.249114990234375,-0.02960205078125
1700516554030120700,7.47612060546875,-1.053985595703125,-0.7860565185546875,0.14288330078125
1700516554040131600,7.486131591796875,-0.820648193359375,-0.02484130859375,0.0494842529296875
1700516554050141700,7.4961416015625,-0.745849609375,-0.5654296875,0.1507415771484375
1700516554060151600,7.506151611328125,-1.05902099609375,-0.4343719482421875,-0.074615478515625
1700516554070161700,7.51616162109375,-1.19232177734375,-0.5669708251953125,0.22845458984375
1700516554080172500,7.526172607421875,-0.9697723388671875,-0.114990234375,0.0757598876953125
1700516554090182700,7.5361826171875,-1.0076904296875,-0.5583038330078125,0.0059814453125
1700516554100192500,7.546192626953125,-1.2354583740234375,-0.6674652099609375,0.0194549560546875
1700516554110202600,7.55620263671875,-1.0923614501953125,-0.0069732666015625,-0.000823974609375
1700516554120212500,7.56621240234375,-0.859283447265625,-0.69915771484375,0.2518768310546875
1700516554130223600,7.5762236328125,-1.0302886962890625,-0.3420257568359375,-0.127838134765625
1700516554140233500,7.5862333984375,-1.1636810302734375,-0.517822265625,0.08123779296875
1700516554150243600,7.59624365234375,-0.791168212890625,0.037139892578125,0.0560302734375
1700516554160253400,7.60625341796875,-0.693756103515625,-0.6738433837890625,0.1219329833984375
1700516554170264600,7.6162646484375,-0.8669281005859375,-0.410003662109375,-0.2162933349609375
1700516554180274400,7.6262744140625,-1.0302734375,-0.450531005859375,0.0533294677734375
1700516554190284500,7.636284423828125,-0.7586517333984375,-0.12255859375,-0.003448486328125
1700516554200294400,7.64629443359375,-0.7810821533203125,-0.4461669921875,0.0147705078125
1700516554210304500,7.656304443359375,-0.8099517822265625,-0.6103973388671875,0.022613525390625
1700516554220315400,7.6663154296875,-0.9969329833984375,-0.16033935546875,0.08740234375
1700516554230325500,7.676325439453125,-0.9031219482421875,-0.37042236328125,0.1061248779296875
1700516554240335400,7.68633544921875,-1.3856048583984375,-0.56268310546875,0.0841522216796875
1700516554250345500,7.696345458984375,-1.4535064697265625,-0.611358642578125,0.0442657470703125
1700516554260356400,7.7063564453125,-0.9378204345703125,-0.020599365234375,0.092742919921875
1700516554270366500,7.716366455078125,-0.8537445068359375,-0.4320220947265625,0.021148681640625
1700516554280376300,7.726376220703125,-1.1324005126953125,-0.83489990234375,-0.00189208984375
1700516554290386400,7.736386474609375,-0.8829803466796875,0.1591644287109375,-0.072052001953125
1700516554300396500,7.746396484375,-0.56866455078125,-0.5905609130859375,0.2680511474609375
1700516554310407400,7.756407470703125,-0.9395599365234375,-0.5249176025390625,-0.11688232421875
1700516554320417300,7.766417236328125,-1.233123779296875,-0.501434326171875,0.11871337890625
1700516554330427400,7.776427490234375,-0.8309783935546875,0.1052703857421875,0.113128662109375
1700516554340437500,7.7864375,-0.664276123046875,-0.6202545166015625,0.14044189453125
1700516554350447400,7.796447265625,-1.0571441650390625,-0.6997833251953125,-0.155517578125
1700516554360458500,7.80645849609375,-1.0756683349609375,0.0902099609375,-0.0834197998046875
1700516554370468400,7.81646826171875,-0.7609405517578125,-0.560791015625,0.1807708740234375
1700516554380478500,7.826478515625,-1.00921630859375,-0.54541015625,-0.0782928466796875
1700516554390488300,7.83648828125,-1.0931549072265625,-0.3702850341796875,0.0568389892578125
1700516554400499500,7.84649951171875,-1.017364501953125,-0.263336181640625,0.10516357421875
1700516554410509300,7.85650927734375,-1.0916595458984375,-0.45849609375,0.0891876220703125
1700516554420519400,7.86651953125,-1.1828765869140625,-0.5887603759765625,0.0542755126953125
1700516554430529300,7.876529296875,-0.925628662109375,-0.0773468017578125,-0.0254669189453125
1700516554440539400,7.886539306640625,-0.7080078125,-0.664886474609375,0.0883941650390625
1700516554450549200,7.89654931640625,-1.2114410400390625,-0.5809326171875,-0.1116790771484375
1700516554460560400,7.906560302734375,-0.8819122314453125,-0.171966552734375,0.0728302001953125
1700516554470570200,7.9165703125,-0.67535400390625,-0.4812774658203125,0.132171630859375
1700516554480580400,7.926580322265625,-0.89678955078125,-0.4464569091796875,-0.0130767822265625
1700516554490590200,7.936590087890625,-1.1829681396484375,-0.6204681396484375,0.0605621337890625
1700516554500600300,7.946600341796875,-0.814910888671875,0.12939453125,0.0619659423828125
1700516554510611200,7.956611083984375,-0.7061767578125,-0.448822021484375,0.1621856689453125
1700516554520621300,7.966621337890625,-0.8121795654296875,-0.5424041748046875,0.009368896484375
1700516554530631400,7.97663134765625,-1.0601654052734375,-0.2484130859375,0.071014404296875
1700516554540641300,7.986641357421875,-0.9610748291015625,-0.132965087890625,0.1230010986328125
1700516554550651400,7.9966513671875,-0.9582977294921875,-0.6844024658203125,0.077728271484375
1700516554560662300,8.006662353515624,-1.1407318115234375,-0.647552490234375,-0.007904052734375
1700516554570672400,8.01667236328125,-1.003326416015625,0.0256500244140625,-0.0584259033203125
1700516554580682200,8.02668212890625,-0.92108154296875,-0.4217376708984375,-0.0168304443359375
1700516554590692400,8.0366923828125,-1.2973480224609375,-0.78472900390625,-0.051239013671875
1700516554600702200,8.0467021484375,-1.0692596435546875,-0.1173553466796875,0.0231475830078125
1700516554610713600,8.056713623046875,-0.4969482421875,-0.443878173828125,0.18292236328125
1700516554620723500,8.066723388671875,-0.7363739013671875,-0.48223876953125,-0.0895843505859375
1700516554630733600,8.076733642578125,-1.0343017578125,-0.3418121337890625,0.1038055419921875
1700516554640743400,8.086743408203125,-0.8831329345703125,-0.2235260009765625,0.0745391845703125
1700516554650753500,8.09675341796875,-0.9378662109375,-0.550323486328125,0.079559326171875
1700516554660763400,8.106763427734375,-0.953155517578125,-0.495086669921875,0.1151275634765625
1700516554670774500,8.1167744140625,-0.6973876953125,0.048126220703125,0.0706939697265625
1700516554680784400,8.126784423828125,-0.9467010498046875,-0.53619384765625,0.12506103515625
1700516554690794500,8.13679443359375,-1.447052001953125,-0.6253204345703125,0.0886993408203125
1700516554700804400,8.146804443359375,-1.42059326171875,-0.21929931640625,0.055450439453125
1700516554710814500,8.156814453125,-0.84930419921875,-0.2632293701171875,-0.0235137939453125
1700516554720825300,8.166825439453126,-0.779205322265625,-0.6364593505859375,-0.0730743408203125
1700516554730835500,8.17683544921875,-1.063690185546875,-0.533203125,0.0860137939453125
1700516554740845600,8.186845458984376,-0.940032958984375,0.08544921875,0.0358428955078125
1700516554750855400,8.19685546875,-0.91015625,-0.7148590087890625,0.0876922607421875
1700516554760865500,8.206865478515626,-1.1851959228515625,-0.58172607421875,-0.0177459716796875
1700516554770875400,8.21687548828125,-0.7447357177734375,0.07464599609375,0.09124755859375
1700516554780886500,8.226886474609374,-0.56768798828125,-0.5009307861328125,0.0765380859375
1700516554790896400,8.236896484375,-0.90863037109375,-0.5517730712890625,0.0101776123046875
1700516554800906500,8.246906494140624,-1.276123046875,-0.4163360595703125,0.1762542724609375
1700516554810916400,8.256916259765624,-0.8330078125,0.169586181640625,0.06695556640625
1700516554820926500,8.266926513671875,-0.7644195556640625,-0.52374267578125,0.0523223876953125
1700516554830936300,8.276936279296875,-0.826416015625,-0.6428985595703125,0.047607421875
1700516554840947500,8.286947509765625,-0.68109130859375,0.028106689453125,0.0389251708984375
1700516554850957300,8.296957275390625,-0.595367431640625,-0.3150482177734375,-0.0110015869140625
1700516554860967400,8.306967529296875,-0.837677001953125,-0.544921875,-0.0896453857421875
1700516554870977300,8.316977294921875,-0.597198486328125,-0.3590545654296875,-0.029052734375
1700516554880987400,8.3269873046875,-0.8585357666015625,-0.1127471923828125,0.0565948486328125
1700516554890997500,8.33699755859375,-1.4473419189453125,-0.624603271484375,0.18121337890625
1700516554901008400,8.34700830078125,-1.3404693603515625,-0.5938568115234375,0.038604736328125
1700516554911018500,8.3570185546875,-0.9639739990234375,0.1854248046875,0.099151611328125
1700516554921028400,8.3670283203125,-0.7766876220703125,-0.5480499267578125,0.12542724609375
1700516554931038500,8.37703857421875,-1.325531005859375,-0.6771392822265625,0.1041717529296875
1700516554941048300,8.38704833984375,-1.59326171875,-0.2333221435546875,0.0689544677734375
1700516554951058400,8.397058349609376,-1.063720703125,-0.4322357177734375,0.231597900390625
1700516554961068300,8.407068359375,-0.7354583740234375,-0.4785003662109375,-0.24481201171875
1700516554971079400,8.417079345703126,-0.8880462646484375,-0.4942626953125,-0.1175994873046875
1700516554981089300,8.42708935546875,-0.948089599609375,-0.0980682373046875,0.095977783203125
1700516554991099400,8.437099365234374,-0.8875885009765625,-0.6124725341796875,0.07037353515625
1700516555001109200,8.447109130859374,-1.16400146484375,-0.48211669921875,0.0410003662109375
1700516555011119400,8.457119384765624,-0.7729034423828125,0.151214599609375,0.1767730712890625
1700516555021129500,8.46712939453125,-0.9428253173828125,-0.749176025390625,0.2855072021484375
1700516555031140400,8.477140380859375,-1.2642059326171875,-0.442230224609375,0.00054931640625
1700516555041150200,8.487150146484375,-1.122283935546875,-0.2085113525390625,0.1578521728515625
1700516555051160300,8.497160400390625,-0.705596923828125,-0.212799072265625,0.0822906494140625
1700516555061170400,8.50717041015625,-0.7476806640625,-0.5091705322265625,-0.0753173828125
1700516555071180300,8.51718017578125,-1.1425018310546875,-0.707183837890625,0.0274810791015625
1700516555081190400,8.5271904296875,-0.82275390625,0.2747039794921875,-0.052001953125
1700516555091200300,8.5372001953125,-0.636016845703125,-0.4933929443359375,0.03692626953125
1700516555101211400,8.54721142578125,-0.9200439453125,-0.57708740234375,-0.061676025390625
1700516555111221200,8.55722119140625,-0.9265289306640625,-0.285400390625,0.0396881103515625
1700516555121231400,8.5672314453125,-0.6820220947265625,-0.0641326904296875,0.1274871826171875
1700516555131241200,8.5772412109375,-1.2835235595703125,-0.48114013671875,0.1536865234375
1700516555141251300,8.587251220703125,-0.9421844482421875,-0.5315704345703125,0.110321044921875
1700516555151261400,8.597261474609375,-1.45379638671875,0.11578369140625,0.0228118896484375
1700516555161271300,8.607271240234375,-0.9467010498046875,-0.5364837646484375,0.076202392578125
1700516555171282200,8.6172822265625,-1.0928192138671875,-0.6835174560546875,-0.0271453857421875
1700516555181292300,8.627292236328126,-0.9377288818359375,-0.1011810302734375,0.049835205078125
1700516555191302400,8.637302490234376,-0.47625732421875,-0.4736328125,0.093475341796875
1700516555201312300,8.647312255859376,-1.148406982421875,-0.4953765869140625,-0.2660675048828125
1700516555211322400,8.657322265625,-1.3560638427734375,-0.2635650634765625,0.2339324951171875
1700516555221332200,8.667332275390624,-0.7783050537109375,-0.332763671875,0.1775665283203125
1700516555231342300,8.67734228515625,-0.8166351318359375,-0.4798431396484375,-0.0224761962890625
1700516555241353200,8.687353271484374,-1.1757354736328125,-0.4537506103515625,0.2564239501953125
1700516555251363300,8.69736328125,-0.6154327392578125,0.15606689453125,-0.0424652099609375
1700516555261373200,8.707373291015625,-0.72979736328125,-0.7076416015625,0.074554443359375
1700516555271383300,8.71738330078125,-1.2284393310546875,-0.409088134765625,-0.1994171142578125
1700516555281393400,8.727393310546875,-1.190185546875,-0.1012420654296875,0.1803131103515625
1700516555291403300,8.7374033203125,-1.0141143798828125,-0.3267822265625,0.0148162841796875
1700516555301417500,8.74741748046875,-1.365509033203125,-0.5327301025390625,-0.16497802734375
1700516555311427300,8.75742724609375,-1.20684814453125,-0.47540283203125,-0.020721435546875
1700516555321438200,8.767438232421876,-0.8137664794921875,0.130889892578125,-0.1016387939453125
1700516555331448300,8.7774482421875,-0.874114990234375,-0.550445556640625,0.0482635498046875
1700516555341458400,8.78745849609375,-1.19329833984375,-0.56158447265625,0.03265380859375
1700516555351468300,8.79746826171875,-1.1893463134765625,-0.161407470703125,-0.120269775390625
1700516555361478400,8.807478515625,0.1583099365234375,-0.2939453125,0.1495819091796875
1700516555371488300,8.81748828125,-1.429931640625,-0.5510711669921875,-0.245086669921875
1700516555381498400,8.827498291015624,-2.51177978515625,-0.365966796875,-0.0876922607421875
1700516555391508200,8.83750830078125,-0.6214447021484375,0.2910614013671875,-0.1560211181640625
1700516555401519400,8.847519287109375,-0.6768646240234375,-0.6971282958984375,0.0774078369140625
1700516555411529200,8.857529296875,-0.345306396484375,-0.5611724853515625,0.026031494140625
1700516555421539300,8.867539306640625,-0.7374725341796875,0.0444793701171875,-0.1068267822265625
1700516555431549200,8.877549072265625,-0.898651123046875,-0.3828277587890625,0.081390380859375
1700516555441559300,8.887559326171875,-1.1506195068359375,-0.4470062255859375,-0.0575714111328125
1700516555451569400,8.8975693359375,-1.0318145751953125,-0.382232666015625,-0.125457763671875
1700516555461579300,8.907579345703125,-0.806304931640625,0.0941009521484375,-0.0486297607421875
1700516555471589400,8.91758935546875,-0.926513671875,-0.555511474609375,-0.029541015625
1700516555481600300,8.927600341796875,-1.0974578857421875,-0.6646728515625,0.070648193359375
1700516555491610400,8.9376103515625,-1.0150146484375,0.300201416015625,-0.0955352783203125
1700516555501620200,8.9476201171875,-0.94732666015625,-0.5679779052734375,0.009765625
1700516555511630300,8.95763037109375,-1.129547119140625,-0.552337646484375,-0.097320556640625
1700516555521640200,8.96764013671875,-1.00750732421875,-0.1504364013671875,-0.0267791748046875
1700516555531650300,8.977650390625,-0.681427001953125,-0.1560211181640625,0.0108795166015625
1700516555541660400,8.987660400390626,-1.0657196044921875,-0.4249420166015625,-0.0615386962890625
1700516555551670300,8.997670166015626,-1.16400146484375,-0.4847412109375,0.013519287109375
1700516555561680400,9.007680419921876,-1.024017333984375,0.0741729736328125,-0.1500396728515625
1700516555571691300,9.017691162109376,-0.873382568359375,-0.4865875244140625,-0.034576416015625
1700516555581701400,9.027701416015624,-0.7679290771484375,-0.4422760009765625,-0.1427001953125
1700516555591711200,9.037711181640624,-0.8099822998046875,-0.2351531982421875,-0.0982666015625
1700516555601721300,9.047721435546874,-0.7804107666015625,-0.317047119140625,0.0455780029296875
1700516555611731200,9.057731201171874,-1.0490875244140625,-0.3049774169921875,0.005950927734375
1700516555621741300,9.0677412109375,-1.2752685546875,-0.6626129150390625,0.0476837158203125
1700516555631751400,9.07775146484375,-0.8590850830078125,0.2555999755859375,-0.103515625
1700516555641761300,9.08776123046875,-0.649078369140625,-0.4373931884765625,0.1475067138671875
1700516555651771400,9.097771484375,-0.9736175537109375,-0.66510009765625,0.0487823486328125
1700516555661782300,9.1077822265625,-1.1978912353515625,-0.1667022705078125,0.0222320556640625
1700516555671792400,9.11779248046875,-0.6586761474609375,-0.0491790771484375,0.092041015625
1700516555681802200,9.12780224609375,-0.946868896484375,-0.4629058837890625,0.1030426025390625
1700516555691812400,9.137812255859375,-1.3818206787109375,-0.5106048583984375,0.012542724609375
1700516555701822200,9.147822265625,-0.74298095703125,0.092498779296875,-0.17132568359375
1700516555711832300,9.157832275390625,-0.6714935302734375,-0.4140167236328125,0.0858001708984375
1700516555721842200,9.16784228515625,-1.04852294921875,-0.4116973876953125,-0.03656005859375
1700516555731852300,9.177852294921875,-1.1453094482421875,-0.2050323486328125,-0.1046905517578125
1700516555741862400,9.1878623046875,-0.8315887451171875,-0.441619873046875,-0.003997802734375
1700516555751873300,9.197873291015625,-0.9891204833984375,-0.1981048583984375,-0.037933349609375
1700516555761883100,9.207883056640625,-0.966094970703125,-0.51983642578125,0.0474395751953125
1700516555771893200,9.217893310546875,-1.005767822265625,0.024139404296875,0.089080810546875
1700516555781903400,9.2279033203125,-1.1203460693359375,-0.41302490234375,0.208160400390625
1700516555791913200,9.237913330078126,-1.3227386474609375,-0.637969970703125,0.0133056640625
1700516555801923300,9.24792333984375,-1.200042724609375,0.2171630859375,-0.048187255859375
1700516555811933200,9.25793310546875,-0.82611083984375,-0.5756988525390625,0.2548370361328125
1700516555821943300,9.267943359375,-1.063140869140625,-0.5673828125,-0.1927947998046875
1700516555831953400,9.277953369140626,-1.158416748046875,-0.205230712890625,-0.1208953857421875
1700516555841963300,9.28796337890625,-0.77801513671875,-0.0464630126953125,0.0565643310546875
1700516555851974100,9.29797412109375,-0.87127685546875,-0.5641937255859375,-0.049346923828125
1700516555861984300,9.307984375,-1.2850799560546875,-0.3286590576171875,-0.0067596435546875
1700516555871994400,9.317994384765624,-0.800567626953125,0.0296630859375,0.01361083984375
1700516555882004200,9.328004150390624,-0.5485687255859375,-0.6016845703125,0.1807708740234375
1700516555892014300,9.338014404296874,-0.631988525390625,-0.2001800537109375,-0.112152099609375
1700516555902024200,9.348024169921874,-0.8465728759765625,-0.4726715087890625,0.05889892578125
1700516555912034300,9.358034423828125,-0.8013458251953125,0.1583251953125,0.1218414306640625
1700516555922044200,9.368044189453125,-1.1142425537109375,-0.27490234375,0.3123626708984375
1700516555932054300,9.37805419921875,-1.65185546875,-0.6702423095703125,0.1109771728515625
1700516555942064400,9.388064453125,-1.3498382568359375,0.286224365234375,-0.1100921630859375
1700516555952074200,9.39807421875,-0.8314971923828125,-0.5632781982421875,-0.0426177978515625
1700516555962085000,9.408085205078125,-0.955413818359375,-0.5963592529296875,-0.2604522705078125
1700516555972095200,9.41809521484375,-1.061065673828125,-0.112762451171875,-0.111846923828125
1700516555982105300,9.428105224609375,-0.8765716552734375,-0.54296875,0.30926513671875
1700516555992115200,9.438115234375,-1.2439727783203125,-0.336578369140625,0.0374908447265625
1700516556002125300,9.448125244140625,-1.5191802978515625,-0.4110107421875,0.10028076171875
1700516556012135200,9.45813525390625,-1.1790008544921875,-0.0110626220703125,0.0468902587890625
1700516556022145300,9.468145263671875,-0.972259521484375,-0.512359619140625,0.3077545166015625
1700516556032155400,9.4781552734375,-1.0861053466796875,-0.5859832763671875,0.0148162841796875
1700516556042165200,9.488165283203125,-1.008544921875,0.04449462890625,-0.064971923828125
1700516556052175400,9.49817529296875,-0.9046478271484375,-0.4594879150390625,0.3204345703125
1700516556062185200,9.508185302734375,-0.8568115234375,-0.4348907470703125,-0.1536102294921875
1700516556072195300,9.5181953125,-1.007354736328125,-0.3173828125,0.0604095458984375
1700516556082206200,9.528206298828126,-0.47930908203125,0.1377105712890625,0.0251007080078125
1700516556092216300,9.53821630859375,-0.5532684326171875,-0.5943756103515625,0.10546875
1700516556102226200,9.54822607421875,-0.74114990234375,-0.4243011474609375,-0.1148529052734375
1700516556112236300,9.558236328125,-0.8360443115234375,0.06219482421875,0.1322479248046875
1700516556122246100,9.56824609375,-0.77191162109375,-0.16497802734375,0.116485595703125
1700516556132256300,9.57825634765625,-0.962615966796875,-0.359893798828125,0.243804931640625
1700516556142266400,9.588266357421874,-1.3952789306640625,-0.5326995849609375,0.1439208984375
1700516556152276200,9.598276123046874,-1.0408172607421875,0.275054931640625,0.0167236328125
1700516556162286300,9.608286376953124,-0.9659423828125,-0.3767547607421875,0.056243896484375
1700516556172296200,9.618296142578124,-1.0899810791015625,-0.6615447998046875,-0.0732269287109375
1700516556182306300,9.628306396484374,-1.14208984375,-0.0446624755859375,0.0025787353515625
1700516556192316400,9.63831640625,-0.7629547119140625,-0.389373779296875,0.04876708984375
1700516556202326300,9.648326171875,-0.9492340087890625,-0.372344970703125,-0.233795166015625
1700516556212337200,9.658337158203125,-1.36029052734375,-0.3222503662109375,0.0888519287109375
1700516556222347300,9.66834716796875,-0.9944305419921875,-0.2271270751953125,0.10009765625
1700516556232357400,9.678357421875,-1.03729248046875,-0.2895355224609375,0.1302032470703125
1700516556242367200,9.6883671875,-1.1678466796875,-0.548980712890625,0.159881591796875
1700516556252377300,9.69837744140625,-0.723236083984375,0.1036224365234375,0.1031341552734375
1700516556262387200,9.70838720703125,-0.299774169921875,-0.3878173828125,0.2951812744140625
1700516556272397300,9.718397216796875,-0.85968017578125,-0.5467376708984375,-0.0926055908203125
1700516556282407200,9.7284072265625,-1.0372772216796875,-0.264404296875,0.0355224609375
1700516556292417300,9.738417236328125,-0.5390777587890625,0.1764984130859375,-0.015167236328125
1700516556302427000,9.748427001953125,-0.8409271240234375,-0.4649200439453125,0.02655029296875
1700516556312436700,9.758436767578125,-0.92218017578125,-0.4674835205078125,-0.02593994140625
1700516556322446800,9.76844677734375,-0.78594970703125,0.149749755859375,-0.0699005126953125
1700516556332456700,9.778456787109375,-0.884307861328125,-0.3692474365234375,-0.0303802490234375
1700516556342466800,9.788466796875,-0.810333251953125,-0.2818756103515625,0.09930419921875
1700516556352477000,9.798476806640625,-0.8572235107421875,-0.460174560546875,0.0632476806640625
1700516556362487800,9.80848779296875,-0.5775299072265625,0.182525634765625,0.0285186767578125
1700516556372498000,9.818497802734376,-0.98992919921875,-0.472076416015625,0.1124267578125
1700516556382507800,9.8285078125,-1.05438232421875,-0.5165557861328125,0.107666015625
1700516556392518000,9.838517822265626,-1.07183837890625,0.2036895751953125,0.04595947265625
1700516556402527700,9.84852783203125,-0.92645263671875,-0.5090789794921875,0.071502685546875
1700516556412537900,9.858537841796876,-1.17132568359375,-0.2884521484375,0.024658203125
1700516556422547700,9.868547607421876,-1.4076080322265625,-0.376129150390625,0.0684814453125
1700516556432557800,9.878557861328124,-1.1376495361328125,-0.191192626953125,0.1825408935546875
1700516556442568000,9.88856787109375,-1.051239013671875,-0.3970947265625,0.074859619140625
1700516556452577800,9.898577880859374,-1.203521728515625,-0.48004150390625,0.052825927734375
1700516556462588000,9.908587890625,-0.905364990234375,0.2264556884765625,0.09814453125
1700516556472597800,9.91859765625,-0.91510009765625,-0.73822021484375,0.16290283203125
1700516556482607900,9.92860791015625,-1.1080322265625,-0.3114471435546875,-0.1284637451171875
1700516556492617700,9.93861767578125,-0.804779052734375,-0.034515380859375,0.051788330078125
1700516556502627800,9.9486279296875,-0.73040771484375,-0.500732421875,0.084716796875
1700516556512638000,9.958637939453125,-0.7564544677734375,-0.2491912841796875,-0.0537872314453125
1700516556522647800,9.968647705078125,-1.0892333984375,-0.651947021484375,0.2003326416015625
1700516556532658000,9.978657958984375,-0.803955078125,0.2462158203125,-0.0126495361328125
1700516556542668800,9.988668701171875,-0.891693115234375,-0.3350830078125,0.1461334228515625
1700516556552679000,9.998678955078125,-1.11590576171875,-0.5968780517578125,0.009429931640625
1700516556562688800,10.008688720703125,-1.3011322021484375,-0.002716064453125,-0.03997802734375
1700516556572699000,10.018698974609375,-0.838958740234375,-0.211669921875,0.1280670166015625
1700516556582708700,10.028708740234375,-1.0814666748046875,-0.3306884765625,0.0399932861328125
1700516556592718800,10.03871875,-1.116424560546875,-0.4772186279296875,0.10504150390625
1700516556602729000,10.04872900390625,-0.801177978515625,0.12384033203125,0.00750732421875
1700516556612738800,10.05873876953125,-0.689605712890625,-0.374908447265625,0.1911468505859375
1700516556622749000,10.0687490234375,-1.3153839111328125,-0.5880279541015625,0.010955810546875
1700516556632758800,10.0787587890625,-0.9402618408203125,0.1407470703125,0.11785888671875
1700516556642769000,10.088768798828125,-0.5948333740234375,-0.4951934814453125,0.2647552490234375
1700516556652778800,10.09877880859375,-1.006683349609375,-0.28619384765625,-0.0975189208984375
1700516556662788900,10.108788818359375,-1.4607696533203125,-0.3736419677734375,0.230316162109375
1700516556672799000,10.118799072265626,-1.285003662109375,-0.0088348388671875,0.01153564453125
1700516556682808800,10.128808837890626,-1.0756683349609375,-0.415740966796875,0.0961761474609375
1700516556692819000,10.13881884765625,-1.2512664794921875,-0.54705810546875,0.0193634033203125
1700516556702828800,10.148828857421876,-0.9787139892578125,0.2646026611328125,-0.0703277587890625
1700516556712839000,10.1588388671875,-1.0651092529296875,-0.753875732421875,0.26995849609375
1700516556722848800,10.168848876953126,-1.2373199462890625,-0.3924713134765625,-0.0644683837890625
1700516556732859000,10.17885888671875,-0.91571044921875,-0.1134796142578125,0.1454315185546875
1700516556742869000,10.188868896484376,-0.8745880126953125,-0.1954498291015625,0.1405487060546875
1700516556752878800,10.19887890625,-0.7298126220703125,-0.388763427734375,0.035919189453125
1700516556762890000,10.208889892578124,-0.9514312744140625,-0.5922393798828125,0.13287353515625
1700516556772899800,10.21889990234375,-0.490814208984375,0.1717681884765625,-0.04931640625
1700516556782910000,10.228909912109375,-0.554168701171875,-0.25811767578125,0.1251678466796875
1700516556792919800,10.238919921875,-0.7072601318359375,-0.5256195068359375,0.1053924560546875
1700516556802930000,10.248929931640625,-1.12249755859375,-0.2566680908203125,0.12823486328125
1700516556812939800,10.258939697265625,-1.03240966796875,0.17559814453125,-0.05780029296875
1700516556822950000,10.268949951171875,-0.9867401123046875,-0.2935333251953125,0.167022705078125
1700516556832960000,10.2789599609375,-1.056427001953125,-0.447265625,0.1280364990234375
1700516556842969900,10.288969970703125,-1.014739990234375,-0.00909423828125,-0.0883331298828125
1700516556852980000,10.29897998046875,-0.9660186767578125,-0.1723175048828125,-0.053558349609375
1700516556862989800,10.30898974609375,-1.1951904296875,-0.42437744140625,-0.153961181640625
1700516556873000000,10.319,-1.364501953125,-0.3292388916015625,0.0541229248046875
1700516556883009800,10.329009765625,-0.732879638671875,-0.11810302734375,0.084808349609375
1700516556893020000,10.33902001953125,-0.7405242919921875,-0.375518798828125,0.0609130859375
1700516556903030000,10.349030029296875,-1.2203216552734375,-0.644439697265625,0.178253173828125
1700516556913040000,10.359039794921875,-1.0070648193359375,0.251983642578125,0.0286407470703125
1700516556923050000,10.369050048828125,-0.992095947265625,-0.6086883544921875,0.32171630859375
1700516556933059800,10.379059814453125,-1.2734222412109375,-0.5348968505859375,-0.0204315185546875
1700516556943070000,10.389070068359375,-0.9523773193359375,0.0794677734375,0.1002044677734375
1700516556953080000,10.399080078125,-0.80389404296875,-0.4842681884765625,0.171112060546875
1700516556963090000,10.40908984375,-0.810546875,-0.1781005859375,-0.0814208984375
1700516556973100000,10.41910009765625,-1.2396392822265625,-0.550567626953125,0.141021728515625
1700516556983110000,10.42910986328125,-0.93438720703125,0.252044677734375,-0.0254669189453125
1700516556993120000,10.4391201171875,-0.713470458984375,-0.4240875244140625,0.0966796875
1700516557003129900,10.4491298828125,-0.7798309326171875,-0.369140625,-0.0911712646484375
1700516557013140000,10.459139892578126,-1.1017303466796875,-0.044464111328125,0.05731201171875
1700516557023150000,10.469150146484376,-0.916290283203125,-0.23388671875,0.0138092041015625
1700516557033160000,10.479159912109376,-1.0557861328125,-0.30718994140625,0.0286712646484375
1700516557043170000,10.489170166015626,-1.2046661376953125,-0.5017852783203125,0.1802215576171875
1700516557053180000,10.499179931640626,-0.87200927734375,0.178802490234375,-0.02703857421875
1700516557063190000,10.50918994140625,-0.785125732421875,-0.4570159912109375,0.1351470947265625
1700516557073199900,10.519199951171874,-1.26397705078125,-0.556884765625,0.192474365234375
1700516557083210000,10.5292099609375,-1.3812408447265625,0.06915283203125,0.1201934814453125
1700516557093220000,10.53922021484375,-1.121185302734375,-0.421966552734375,0.17181396484375
1700516557103230000,10.54922998046875,-1.061859130859375,-0.2499847412109375,0.069915771484375
1700516557113240000,10.559239990234374,-1.042694091796875,-0.4789886474609375,0.16400146484375
1700516557123251000,10.5692509765625,-0.9546966552734375,0.2238616943359375,0.0294647216796875
1700516557133261000,10.579260986328125,-0.8903350830078125,-0.672607421875,0.2222747802734375
1700516557143271000,10.58927099609375,-1.1127777099609375,-0.258636474609375,-0.005645751953125
1700516557153281000,10.599281005859375,-0.808349609375,0.1121368408203125,0.1601409912109375
1700516557163291000,10.609290771484375,-0.8538665771484375,-0.52496337890625,0.0507659912109375
1700516557173301000,10.619301025390625,-0.83551025390625,-0.2764434814453125,-0.105682373046875
1700516557183311000,10.62931103515625,-1.11248779296875,-0.5189208984375,0.1702728271484375
1700516557193321000,10.639321044921875,-0.8562164306640625,0.3094940185546875,0.02398681640625
1700516557203331000,10.6493310546875,-1.0418548583984375,-0.5117950439453125,0.207763671875
1700516557213341000,10.6593408203125,-1.317596435546875,-0.5749053955078125,0.181976318359375
1700516557223351000,10.66935107421875,-0.9759979248046875,0.09197998046875,0.130859375
1700516557233361000,10.67936083984375,-0.720977783203125,-0.2526702880859375,0.00811767578125
1700516557243370800,10.689370849609375,-1.0404052734375,-0.456146240234375,0.166778564453125
1700516557253380900,10.699380859375,-1.239776611328125,-0.5531768798828125,0.124237060546875
1700516557263390700,10.709390625,-0.7923126220703125,0.32452392578125,-0.0030364990234375
1700516557273400800,10.71940087890625,-0.917388916015625,-0.5035552978515625,0.1580657958984375
1700516557283410700,10.72941064453125,-0.987884521484375,-0.336669921875,0.0796661376953125
1700516557293420800,10.7394208984375,-0.8685455322265625,-0.073486328125,0.0946807861328125
1700516557303431000,10.749430908203125,-0.4920196533203125,-0.1058807373046875,-0.0189971923828125
1700516557313441000,10.75944091796875,-1.0093231201171875,-0.313690185546875,0.0859527587890625
1700516557323451100,10.769451171875,-1.050811767578125,-0.3919525146484375,0.100128173828125
1700516557333461000,10.7794609375,-1.003662109375,0.2881927490234375,0.0778656005859375
1700516557343471000,10.78947119140625,-0.924285888671875,-0.3927459716796875,0.12548828125
1700516557353481000,10.79948095703125,-0.876068115234375,-0.457305908203125,-0.0088043212890625
1700516557363491000,10.809490966796876,-0.9118194580078125,0.0139617919921875,0.006622314453125
1700516557373501200,10.819501220703126,-1.0034637451171875,-0.2012176513671875,0.1006011962890625
1700516557383511000,10.829510986328126,-1.158599853515625,-0.541961669921875,0.10382080078125
1700516557393521200,10.839521240234374,-1.26409912109375,-0.249267578125,0.094329833984375
1700516557403531000,10.849531005859374,-0.819244384765625,0.12353515625,0.1241302490234375
1700516557413541000,10.859541015625,-1.01556396484375,-0.551910400390625,0.15313720703125
1700516557423551000,10.869551025390624,-1.267364501953125,-0.5329437255859375,0.165252685546875
1700516557433561000,10.87956103515625,-1.2046356201171875,0.2069549560546875,0.09100341796875
1700516557443571200,10.8895712890625,-0.927642822265625,-0.382781982421875,0.313751220703125
1700516557453581000,10.8995810546875,-0.8843994140625,-0.5099945068359375,-0.02813720703125
1700516557463591200,10.909591064453124,-0.799652099609375,-0.1066436767578125,0.0784912109375
1700516557473601000,10.91960107421875,-0.7445220947265625,-0.161102294921875,-0.0153656005859375
1700516557483611100,10.929611083984375,-1.0864410400390625,-0.3111419677734375,0.0150299072265625
1700516557493621000,10.93962109375,-1.1158447265625,-0.5603179931640625,0.1067352294921875
1700516557503631000,10.949631103515625,-0.8773651123046875,0.4439697265625,0.0116424560546875
1700516557513641200,10.95964111328125,-0.759307861328125,-0.3278045654296875,0.010986328125
1700516557523651000,10.969651123046875,-0.654052734375,-0.43524169921875,-0.0115203857421875
1700516557533661200,10.9796611328125,-1.0587005615234375,-0.316009521484375,0.1848297119140625
1700516557543671000,10.989671142578125,-0.837646484375,0.1370849609375,0.2243804931640625
1700516557553681200,10.99968115234375,-1.352813720703125,-0.341827392578125,0.1145782470703125
1700516557563691300,11.009691162109375,-1.2340545654296875,-0.503173828125,0.1286773681640625
1700516557573701000,11.019701171875,-0.970489501953125,0.23760986328125,0.046966552734375
1700516557583711200,11.029711181640625,-0.9066009521484375,-0.3857574462890625,0.0073089599609375
1700516557593721000,11.03972119140625,-1.121337890625,-0.5863189697265625,-0.0501556396484375
1700516557603731200,11.049731201171875,-1.26849365234375,-0.1120758056640625,0.096710205078125
1700516557613741000,11.059740966796875,-0.865142822265625,-0.093597412109375,0.1101531982421875
1700516557623751200,11.069751220703125,-1.0810394287109375,-0.420135498046875,0.076171875
1700516557633761300,11.07976123046875,-1.0974578857421875,-0.2502288818359375,0.166351318359375
1700516557643771100,11.089771240234375,-0.8504791259765625,0.1072998046875,0.064697265625
1700516557653781200,11.09978125,-0.7184600830078125,-0.3832244873046875,0.0858917236328125
1700516557663791000,11.109791015625,-0.85858154296875,-0.369964599609375,-0.0874786376953125
1700516557673801200,11.11980126953125,-1.00146484375,-0.167144775390625,0.1418609619140625
1700516557683811000,11.12981103515625,-0.5129852294921875,-0.019134521484375,-0.06072998046875
1700516557693821200,11.1398212890625,-1.157073974609375,-0.37506103515625,0.0069732666015625
1700516557703831300,11.149831298828126,-1.090606689453125,-0.51763916015625,0.0555877685546875
1700516557713841200,11.159841064453126,-0.925079345703125,0.28277587890625,-0.043701171875
1700516557723851300,11.169851318359376,-0.6146392822265625,-0.17987060546875,-0.098052978515625
1700516557733861000,11.179861083984376,-1.0639190673828125,-0.4660186767578125,0.099334716796875
1700516557743871200,11.189871337890626,-1.1575927734375,-0.1857147216796875,-0.0349578857421875
1700516557753881300,11.19988134765625,-0.4230194091796875,0.0662689208984375,0.0236358642578125
1700516557763891200,11.20989111328125,-1.315673828125,-0.222503662109375,0.0313262939453125
1700516557773901300,11.2199013671875,-1.078216552734375,-0.6053314208984375,0.1822357177734375
1700516557783911200,11.2299111328125,-0.5952301025390625,0.2511444091796875,0.0371246337890625
1700516557793921300,11.23992138671875,-0.7521209716796875,-0.10833740234375,0.023406982421875
1700516557803931100,11.24993115234375,-1.1760711669921875,-0.5047454833984375,0.0751800537109375
1700516557813941200,11.259941162109374,-0.9817657470703125,-0.092742919921875,0.0058441162109375
1700516557823951400,11.269951416015624,-0.8605194091796875,-0.1501922607421875,0.027984619140625
1700516557833961200,11.279961181640624,-1.120513916015625,-0.2281494140625,-0.11309814453125
1700516557843971300,11.289971435546875,-1.15899658203125,-0.5046539306640625,0.0926666259765625
1700516557853981200,11.299981201171875,-0.762603759765625,0.192840576171875,-0.0767822265625
1700516557863991000,11.309990966796875,-1.0267181396484375,-0.460906982421875,-0.0449371337890625
1700516557874001200,11.320001220703125,-1.239898681640625,-0.428619384765625,-0.0048675537109375
1700516557884010000,11.330010009765624,-1.0711669921875,0.1288909912109375,-0.015594482421875
1700516557894020000,11.34002001953125,-0.8334808349609375,-0.361541748046875,0.0058746337890625
1700516557904030200,11.3500302734375,-0.9775543212890625,-0.3550872802734375,-0.06890869140625
1700516557914040000,11.3600400390625,-1.043914794921875,-0.194183349609375,0.136688232421875
1700516557924050200,11.37005029296875,-0.8035430908203125,0.0743408203125,0.048309326171875
1700516557934060000,11.38006005859375,-0.980712890625,-0.42706298828125,0.069366455078125
1700516557944070100,11.390070068359375,-1.150390625,-0.4263458251953125,0.0969696044921875
1700516557954080000,11.400080078125,-0.8057403564453125,0.2279052734375,0.0250244140625
1700516557964090000,11.410090087890625,-0.70672607421875,-0.2431182861328125,-0.073394775390625
1700516557974100200,11.420100341796875,-1.232208251953125,-0.439971923828125,-0.05023193359375
1700516557984110000,11.430110107421875,-0.948211669921875,-0.2623748779296875,0.033203125
1700516557994120200,11.4401201171875,-0.774627685546875,0.2182769775390625,-0.044952392578125
1700516558004130000,11.450130126953125,-1.0558624267578125,-0.327667236328125,-0.129638671875
1700516558014140200,11.46014013671875,-1.1160125732421875,-0.5973052978515625,0.0407562255859375
1700516558024150000,11.47014990234375,-0.944244384765625,0.3072052001953125,-0.0694580078125
1700516558034160000,11.48016015625,-0.8297271728515625,-0.2314910888671875,-0.0758209228515625
1700516558044170200,11.490170166015625,-1.128204345703125,-0.4956207275390625,0.03778076171875
1700516558054180000,11.50018017578125,-1.1357574462890625,-0.112030029296875,0.136993408203125
1700516558064190200,11.510190185546875,-0.7742919921875,0.125701904296875,0.067047119140625
1700516558074200000,11.520199951171875,-1.2691650390625,-0.451263427734375,0.0282745361328125
1700516558084210200,11.530210205078125,-1.284088134765625,-0.410614013671875,0.195281982421875
1700516558094220300,11.54022021484375,-0.9425506591796875,0.292144775390625,-0.028900146484375
1700516558104230100,11.550230224609376,-0.9925079345703125,-0.48370361328125,-0.003692626953125
1700516558114240300,11.560240234375,-1.1573333740234375,-0.4518890380859375,-0.020294189453125
1700516558124250000,11.57025,-1.0392913818359375,0.22052001953125,-0.0253753662109375
1700516558134260200,11.58026025390625,-0.963623046875,-0.391448974609375,0.0220947265625
1700516558144270000,11.59027001953125,-1.115203857421875,-0.347381591796875,-0.0594482421875
1700516558154280200,11.6002802734375,-1.0642852783203125,-0.39129638671875,0.0632781982421875
1700516558164290300,11.610290283203126,-0.4320220947265625,0.3556060791015625,-0.1706085205078125
1700516558174300200,11.620300048828126,-0.8311309814453125,-0.4786529541015625,-0.057708740234375
1700516558184310300,11.630310302734374,-0.9477691650390625,-0.540985107421875,0.080352783203125
1700516558194320100,11.640320068359374,-1.0216827392578125,0.07427978515625,-0.0455474853515625
1700516558204330200,11.650330322265624,-0.4335479736328125,-0.033966064453125,0.031005859375
1700516558214340000,11.660340087890624,-1.1932525634765625,-0.1544647216796875,0.196563720703125
1700516558224350200,11.67035009765625,-1.195953369140625,-0.24102783203125,0.1005096435546875
1700516558234360300,11.6803603515625,-0.969146728515625,0.0894012451171875,-0.0993499755859375
1700516558244369200,11.690369140625,-1.221588134765625,-0.2008209228515625,-0.1371307373046875
1700516558254379000,11.70037890625,-1.7678070068359375,-0.533111572265625,0.0661163330078125
1700516558264389000,11.71038916015625,-1.2771453857421875,0.06488037109375,-0.09033203125
1700516558274399000,11.72039892578125,-1.0548095703125,-0.3986968994140625,0.037139892578125
1700516558284409000,11.7304091796875,-1.0352783203125,-0.363189697265625,-0.134796142578125
1700516558294419000,11.7404189453125,-0.844085693359375,-0.031585693359375,-0.0201416015625
1700516558304428800,11.7504287109375,-0.7182769775390625,-0.2705841064453125,0.1211395263671875
1700516558314439000,11.76043896484375,-0.7837066650390625,-0.3946380615234375,-0.0328369140625
1700516558324448800,11.77044873046875,-1.0846099853515625,-0.284881591796875,0.1140289306640625
1700516558334459000,11.780458984375,-0.56097412109375,0.191131591796875,-0.07281494140625
1700516558344468700,11.79046875,-0.9361419677734375,-0.4873199462890625,0.1089630126953125
1700516558354478800,11.800478759765625,-0.83514404296875,-0.56500244140625,0.1233367919921875
1700516558364489000,11.810489013671875,-1.1707000732421875,0.1679229736328125,-0.013916015625
1700516558374498800,11.820498779296875,-0.583343505859375,0.0988616943359375,-0.1392669677734375
1700516558384509000,11.830509033203125,-1.39874267578125,-0.2378082275390625,-0.185821533203125
1700516558394518800,11.840518798828125,-1.214874267578125,-0.1436004638671875,-0.0290069580078125
1700516558404529000,11.85052880859375,-0.7223052978515625,0.075225830078125,-0.1448516845703125
1700516558414538800,11.860538818359375,-1.1295318603515625,-0.1840972900390625,-0.104827880859375
1700516558424548900,11.870548828125,-1.2101593017578125,-0.6085357666015625,0.1540374755859375
1700516558434559000,11.88055908203125,-0.8872833251953125,0.2303314208984375,-0.0249481201171875
1700516558444568800,11.89056884765625,-0.94775390625,-0.35284423828125,0.0447540283203125
1700516558454579000,11.900578857421875,-1.2442474365234375,-0.5557403564453125,0.0869140625
1700516558464588800,11.9105888671875,-1.107177734375,0.1867828369140625,-0.0249176025390625
1700516558474597600,11.92059765625,-0.859375,-0.310333251953125,0.132171630859375
1700516558484607700,11.930607666015625,-1.007080078125,-0.5274200439453125,-0.1171112060546875
1700516558494617600,11.94061767578125,-1.0561981201171875,-0.1754150390625,0.042510986328125
1700516558504627700,11.950627685546875,-0.6972503662109375,0.1096649169921875,0.008087158203125
1700516558514637800,11.960637939453125,-0.896514892578125,-0.3300933837890625,-0.0910186767578125
1700516558524647700,11.970647705078125,-0.8695831298828125,-0.5,-0.034149169921875
1700516558534657800,11.98065771484375,-1.0585174560546875,0.253936767578125,-0.0836639404296875
1700516558544667600,11.990667724609375,-0.9806060791015625,-0.153350830078125,-0.084625244140625
1700516558554677800,12.000677734375,-1.2685089111328125,-0.4380645751953125,-0.09503173828125
1700516558564687600,12.0106875,-1.202484130859375,0.0475921630859375,0.0855712890625
1700516558574697700,12.02069775390625,-0.5153656005859375,0.1421661376953125,0.1224365234375
1700516558584707800,12.030707763671876,-0.9005126953125,-0.4173431396484375,0.0262298583984375
1700516558594717700,12.0407177734375,-0.8481292724609375,-0.390350341796875,0.0905303955078125
1700516558604727800,12.050727783203126,-0.7170257568359375,0.1569976806640625,0.02142333984375
1700516558614737700,12.060737548828126,-1.2233734130859375,-0.29095458984375,0.0117950439453125
1700516558624747800,12.070747802734376,-1.08648681640625,-0.4964447021484375,0.004241943359375
1700516558634757600,12.080757568359376,-1.0836944580078125,0.296478271484375,0.0046844482421875
1700516558644767700,12.090767822265626,-0.7907257080078125,-0.2781982421875,-0.036529541015625
1700516558654777900,12.10077783203125,-0.915679931640625,-0.5253448486328125,-0.1397247314453125
1700516558664787700,12.11078759765625,-1.3127288818359375,-0.020782470703125,-0.030181884765625
1700516558674796800,12.120796875,-0.8595733642578125,-0.0585479736328125,0.0828399658203125
1700516558684807000,12.130806884765626,-1.1351776123046875,-0.33038330078125,-0.0016937255859375
1700516558694816800,12.140816650390626,-1.35833740234375,-0.1839447021484375,0.126068115234375
1700516558704827000,12.150826904296874,-0.8659820556640625,0.0058135986328125,0.103607177734375
1700516558714836700,12.160836669921874,-0.684661865234375,-0.322265625,0.120758056640625
1700516558724846800,12.170846923828124,-0.80047607421875,-0.30194091796875,0.100433349609375
1700516558734857000,12.18085693359375,-0.83740234375,0.1678619384765625,-0.0421600341796875
1700516558744866800,12.19086669921875,-0.9963836669921875,-0.426422119140625,0.0579986572265625
1700516558754877000,12.200876953125,-1.501983642578125,-0.4806060791015625,-0.0818328857421875
1700516558764886800,12.21088671875,-1.4527130126953125,0.1278839111328125,0.0345916748046875
1700516558774897000,12.22089697265625,-0.8405609130859375,-0.1443023681640625,0.0103759765625
1700516558784906800,12.23090673828125,-0.856048583984375,-0.5180511474609375,-0.066009521484375
1700516558794916900,12.240916748046875,-1.0952606201171875,-0.1618804931640625,0.0932159423828125
1700516558804927000,12.250927001953125,-1.076141357421875,-0.0001678466796875,0.069671630859375
1700516558814936800,12.260936767578125,-1.1239471435546875,-0.3438262939453125,0.0727081298828125
1700516558824947000,12.270947021484375,-1.171173095703125,-0.3299102783203125,0.1244964599609375
1700516558834956500,12.28095654296875,-0.7775726318359375,0.2985687255859375,0.1217498779296875
1700516558844965600,12.290965576171875,-0.62884521484375,-0.40283203125,0.131011962890625
1700516558854975700,12.300975830078125,-0.900238037109375,-0.4778289794921875,-0.0161895751953125
1700516558864985600,12.310985595703125,-0.94580078125,0.1153564453125,0.1092529296875
1700516558874995700,12.32099560546875,-0.9464111328125,-0.0703277587890625,0.0483551025390625
1700516558885005800,12.331005859375,-1.093505859375,-0.41058349609375,-0.139862060546875
1700516558895015700,12.341015625,-1.185943603515625,-0.0969085693359375,0.1646881103515625
1700516558905025800,12.35102587890625,-0.708770751953125,0.1627044677734375,0.016204833984375
1700516558915035600,12.36103564453125,-0.8951263427734375,-0.2758331298828125,0.05419921875
1700516558925045800,12.371045654296875,-0.96929931640625,-0.46539306640625,0.131500244140625
1700516558935055600,12.3810556640625,-1.0266876220703125,0.2124481201171875,0.079132080078125
1700516558945065700,12.391065673828125,-1.0150909423828125,-0.1862640380859375,0.2338714599609375
1700516558955075800,12.401075927734375,-1.4938812255859375,-0.5847625732421875,0.0463104248046875
1700516558965085700,12.411085693359375,-0.925140380859375,0.1934814453125,0.1366729736328125
1700516558975095800,12.421095703125,-0.5679931640625,-0.25042724609375,0.1180877685546875
1700516558985105700,12.431105712890625,-0.8228302001953125,-0.460693359375,-0.058837890625
1700516558995114800,12.44111474609375,-1.064056396484375,-0.0714874267578125,0.1160736083984375
1700516559005124900,12.451124755859375,-0.99078369140625,-0.1031646728515625,0.14837646484375
1700516559015134700,12.461134765625,-1.113372802734375,-0.257354736328125,0.1174774169921875
1700516559025144800,12.471144775390625,-1.11590576171875,-0.3583526611328125,0.2621917724609375
1700516559035155000,12.481155029296875,-0.6472320556640625,0.23773193359375,0.0149688720703125
1700516559045164800,12.491164794921875,-0.8296661376953125,-0.26959228515625,0.20062255859375
1700516559055175000,12.5011748046875,-0.859222412109375,-0.56256103515625,0.0130615234375
1700516559065184800,12.511184814453125,-1.10235595703125,0.220367431640625,0.0868682861328125
1700516559075195000,12.52119482421875,-0.7492523193359375,-0.1186065673828125,0.096435546875
1700516559085204700,12.531204833984376,-0.90155029296875,-0.3685455322265625,-0.0587615966796875
1700516559095214800,12.54121484375,-0.9238433837890625,0.0166168212890625,0.0580596923828125
1700516559105225000,12.551224853515626,-0.7852935791015625,-0.071136474609375,0.1351470947265625
1700516559115234800,12.56123486328125,-0.9724884033203125,-0.282623291015625,0.140411376953125
1700516559125245000,12.571244873046876,-0.903289794921875,-0.2067718505859375,0.1438140869140625
1700516559135253800,12.581253662109376,-0.899017333984375,0.0489959716796875,0.0966644287109375
1700516559145263600,12.591263671875,-0.9469451904296875,-0.160797119140625,0.215301513671875
1700516559155273700,12.601273681640626,-1.3440399169921875,-0.5302886962890625,-0.0315399169921875
1700516559165283600,12.61128369140625,-1.271331787109375,0.233612060546875,0.2433929443359375
1700516559175293700,12.621293701171876,-0.845947265625,-0.18145751953125,0.1740875244140625
1700516559185303800,12.6313037109375,-1.3037872314453125,-0.594024658203125,-0.0787353515625
1700516559195313700,12.641313720703126,-1.0649261474609375,0.097320556640625,0.1070709228515625
1700516559205323800,12.65132373046875,-0.69732666015625,-0.13427734375,0.2232666015625
1700516559215333600,12.661333740234374,-0.9416351318359375,-0.50250244140625,-0.0640106201171875
1700516559225343700,12.67134375,-1.0123443603515625,0.08837890625,0.0606231689453125
1700516559235353600,12.681353515625,-0.848419189453125,-0.171844482421875,0.19342041015625
1700516559245363700,12.69136376953125,-1.1230010986328125,-0.315277099609375,0.2629547119140625
1700516559255373800,12.701373779296874,-1.2912139892578125,-0.2720489501953125,0.2048797607421875
1700516559265382700,12.711382568359374,-0.70880126953125,0.2454681396484375,0.0955657958984375
1700516559275392800,12.721392822265624,-0.720306396484375,-0.3122406005859375,0.0619659423828125
1700516559285403000,12.73140283203125,-1.0236663818359375,-0.3815155029296875,0.0596923828125
1700516559295412700,12.741412841796874,-1.3091278076171875,0.110260009765625,0.1448974609375
1700516559305423600,12.751423583984375,-0.9820556640625,-0.0859222412109375,0.229522705078125
1700516559315433500,12.76143359375,-1.1501007080078125,-0.451416015625,0.02984619140625
1700516559325443600,12.771443603515625,-0.9627532958984375,0.0658721923828125,0.19134521484375
1700516559335453400,12.781453369140625,-0.64697265625,-0.0699920654296875,0.1916046142578125
1700516559345463600,12.791463623046875,-1.079742431640625,-0.45440673828125,0.0595550537109375
1700516559355473400,12.801473388671875,-1.2620391845703125,-0.067291259765625,0.2711334228515625
1700516559365483500,12.8114833984375,-1.0269622802734375,0.0465087890625,0.0806732177734375
1700516559375493600,12.82149365234375,-0.864044189453125,-0.2931365966796875,0.1254425048828125
1700516559385502500,12.83150244140625,-1.111968994140625,-0.3115386962890625,0.152587890625
1700516559395512600,12.8415126953125,-0.9078521728515625,0.09454345703125,0.179443359375
1700516559405522700,12.851522705078125,-0.7929534912109375,-0.20172119140625,0.207183837890625
1700516559415532500,12.861532470703125,-1.182891845703125,-0.4151763916015625,0.0224609375
1700516559425542700,12.871542724609375,-1.0178070068359375,0.0946807861328125,0.0898284912109375
1700516559435552500,12.881552490234375,-0.85162353515625,-0.0939178466796875,0.1529693603515625
