time,seconds_elapsed,z,y,x
1700516546572497000,0.018496826171875,0.04291657358407974,0.033903904259204865,0.2149258852005005
1700516546582508000,0.028508056640625,-0.02112019807100296,-0.14487649500370026,-0.01629668101668358
1700516546592518000,0.038517822265625,-0.006857373286038637,0.15665192902088165,-0.228522390127182
1700516546602527700,0.04852783203125,-0.022601183503866196,-0.11462990939617157,0.023688551038503647
1700516546612537900,0.058537841796875,0.03653857111930847,0.09263219684362411,0.11541447788476944
1700516546622548000,0.0685478515625,0.025791648775339127,-0.09102711081504822,0.01859871856868267
1700516546632559000,0.07855908203125,-0.04898032546043396,0.07214184105396271,-0.16319744288921356
1700516546642569000,0.08856884765625,0.028258269652724266,-0.040702953934669495,-0.058101385831832886
1700516546652579000,0.0985791015625,-0.008583900518715382,0.015223427675664425,0.037401169538497925
1700516546662589200,0.108589111328125,0.052328452467918396,0.043299004435539246,0.19377826154232025
1700516546672599000,0.11859912109375,-0.026753317564725876,-0.17263035476207733,-0.010246512480080128
1700516546682610000,0.12860986328125,-0.01727885566651821,0.1349455714225769,-0.23348411917686462
1700516546692620000,0.1386201171875,-0.026129072532057762,-0.12609454989433289,0.003689010627567768
1700516546702630100,0.148630126953125,0.012928315438330173,0.07185741513967514,0.1416143923997879
1700516546712640000,0.158639892578125,0.0222051702439785,-0.14194728434085846,0.03080238774418831
1700516546722650000,0.168650146484375,-0.058517903089523315,0.04863305017352104,-0.17417393624782562
1700516546732661000,0.178660888671875,0.020049074664711952,-0.07279857248067856,-0.048169925808906555
1700516546742671000,0.188671142578125,-0.02414075657725334,0.005798766855150461,0.014543522149324417
1700516546752681000,0.198680908203125,0.04755739867687225,0.05325017124414444,0.16394925117492676
1700516546762691000,0.208691162109375,-0.03051130287349224,-0.24917706847190857,0.03200453892350197
1700516546772701000,0.218700927734375,-0.021854165941476822,0.16835731267929077,-0.2695891261100769
1700516546782711000,0.2287109375,-0.022374015301465988,-0.11988592147827148,-0.03056030534207821
1700516546792722000,0.238721923828125,0.008378837257623672,0.064863421022892,0.10950172692537308
1700516546802732000,0.24873193359375,0.016832510009407997,-0.13220597803592682,0.019183814525604248
1700516546812742000,0.258741943359375,-0.05528536066412926,0.02899276837706566,-0.1517847329378128
1700516546822752000,0.268751953125,0.018269818276166916,-0.05729764327406883,-0.07379806041717529
1700516546832762000,0.27876220703125,-0.0344085730612278,-0.018688200041651726,-0.001246625673957169
1700516546842773000,0.28877294921875,0.03931305184960365,0.021221665665507317,0.14813967049121857
1700516546852782800,0.298782958984375,-0.028444690629839897,-0.23499466478824615,0.031072964891791344
1700516546862793000,0.30879296875,-0.01254908088594675,0.18127231299877167,-0.2548152506351471
1700516546872803000,0.318802978515625,-0.011840680614113808,-0.08139099925756454,-0.029820479452610016
1700516546882813000,0.32881298828125,0.012239888310432434,0.08170445263385773,0.10930918157100677
1700516546892823000,0.338822998046875,0.016576047986745834,-0.16863322257995605,0.041679803282022476
1700516546902834000,0.348833984375,-0.04832598567008972,0.08695273846387863,-0.16823481023311615
1700516546912844000,0.358843994140625,0.02876586839556694,-0.04054396227002144,-0.0484548844397068
1700516546922854000,0.36885400390625,-0.024290425702929497,0.01673317328095436,0.0044352286495268345
1700516546932864000,0.378864013671875,0.03636280074715614,0.023436617106199265,0.16428108513355255
1700516546942873900,0.388873779296875,-0.023061111569404602,-0.2089119404554367,0.05425684526562691
1700516546952885000,0.398885009765625,-0.011535216122865677,0.1763920783996582,-0.2770289480686188
1700516546962894800,0.408894775390625,-0.028023645281791687,-0.09605302661657333,0.0027196200098842382
1700516546972905000,0.418905029296875,0.031796280294656754,0.14511485397815704,0.20892418920993805
1700516546982914800,0.428914794921875,0.034384340047836304,-0.13886228203773499,0.0846959799528122
1700516546992925000,0.438925048828125,-0.04198393598198891,0.14302825927734375,-0.13993605971336365
1700516547002935000,0.44893505859375,0.02430267632007599,-0.07066778093576431,-0.020002469420433044
1700516547012946000,0.45894580078125,-0.024998027831315994,0.017474597319960594,-0.015733689069747925
1700516547022955800,0.468955810546875,0.04812385141849518,-0.02070687711238861,0.1923404186964035
1700516547032966000,0.4789658203125,-0.021436583250761032,-0.11136940121650696,-0.015264440327882767
1700516547042976000,0.48897607421875,-0.003486077766865492,0.14322640001773834,-0.2170010209083557
1700516547052985900,0.49898583984375,-0.023274162784218788,-0.08368717133998871,-0.004990231245756149
1700516547062997000,0.5089970703125,0.021793978288769722,0.055214252322912216,0.16559801995754242
1700516547073006800,0.5190068359375,0.01176424790173769,-0.14651407301425934,0.016873255372047424
1700516547083017000,0.529016845703125,-0.043413788080215454,0.12550225853919983,-0.22420167922973633
1700516547093026800,0.53902685546875,0.02713281847536564,-0.11011318862438202,-0.0051843756809830666
1700516547103037000,0.549036865234375,-0.023610521107912064,0.04044223204255104,0.02965509705245495
1700516547113046800,0.559046875,0.043645214289426804,-0.017972609028220177,0.2198021411895752
1700516547123058200,0.56905810546875,-0.013844975270330906,-0.0911237820982933,-0.036430444568395615
1700516547133068000,0.579068115234375,-0.01799924112856388,0.12166038900613785,-0.22327463328838348
1700516547143078100,0.589078125,-0.013331783935427666,-0.08385255932807922,0.044737644493579865
1700516547153087700,0.599087646484375,0.028354410082101822,0.07374772429466248,0.19472767412662506
1700516547163097900,0.609097900390625,0.022727683186531067,-0.12884639203548431,0.018873289227485657
1700516547173108000,0.61910791015625,-0.04501993954181671,0.10623961687088013,-0.18394985795021057
1700516547183119000,0.629119140625,0.02887958474457264,-0.06898465752601624,-0.02552107162773609
1700516547193129000,0.63912890625,-0.018397649750113487,0.03145459666848183,0.04813583567738533
1700516547203139000,0.64913916015625,0.046540603041648865,-0.03364184871315956,0.2359723150730133
1700516547213149200,0.659149169921875,-0.007160174660384655,-0.04741678386926651,-0.05872749537229538
1700516547223159000,0.669158935546875,-0.012620986439287663,0.06734415143728256,-0.18427184224128723
1700516547233169200,0.679169189453125,-0.01528760977089405,-0.06581709533929825,0.045643918216228485
1700516547243180000,0.689179931640625,0.027999144047498703,0.04301724210381508,0.17814497649669647
1700516547253190100,0.699190185546875,0.020202206447720528,-0.08746620267629623,-0.014139787293970585
1700516547263200000,0.709199951171875,-0.036502085626125336,0.0506538562476635,-0.15717869997024536
1700516547273210000,0.719210205078125,0.013148559257388115,-0.07389606535434723,-0.013170130550861359
1700516547283220000,0.729219970703125,-0.007201720029115677,0.010329603217542171,0.050209373235702515
1700516547293225500,0.7392255859375,0.03503601625561714,-0.06295180320739746,0.20421572029590607
1700516547303236600,0.749236572265625,-0.02100435085594654,-0.02075880765914917,-0.11177713423967361
1700516547313246500,0.75924658203125,-0.018797390162944794,0.04360766336321831,-0.1536305695772171
1700516547323256600,0.769256591796875,-0.005801163613796234,-0.02358122542500496,0.04934251680970192
1700516547333266400,0.779266357421875,0.028543494641780853,-0.018675683066248894,0.17286232113838196
1700516547343276500,0.789276611328125,0.00038269624928943813,-0.061708904802799225,-0.05904760584235191
1700516547353286400,0.799286376953125,-0.028067853301763535,0.0878070816397667,-0.18884368240833282
1700516547363297800,0.8092978515625,0.02052391692996025,-0.11161787062883377,0.0336783342063427
1700516547373307600,0.8193076171875,-0.01119166798889637,0.061344049870967865,0.03532923012971878
1700516547383317800,0.82931787109375,0.03921584412455559,-0.07904661446809769,0.1907225400209427
1700516547393327600,0.83932763671875,-0.024419322609901428,-0.02701191045343876,-0.09330757707357407
1700516547403337500,0.84933740234375,-0.0070366039872169495,0.08092281222343445,-0.1734415590763092
1700516547413347600,0.85934765625,-0.013584252446889877,-0.04511607810854912,0.046365633606910706
1700516547423358700,0.869358642578125,0.0320572704076767,0.03322160243988037,0.14743073284626007
1700516547433368600,0.87936865234375,-0.0007715177489444613,-0.061459630727767944,-0.06502027809619904
1700516547443378700,0.889378662109375,-0.024536501616239548,0.11109562963247299,-0.1666901856660843
1700516547453388800,0.899388916015625,0.023997744545340538,-0.11465920507907867,0.033064477145671844
1700516547463398700,0.909398681640625,-0.009070194326341152,0.09415872395038605,0.02359480783343315
1700516547473408800,0.91940869140625,0.04150323569774628,-0.09373608231544495,0.17255446314811707
1700516547483419600,0.929419677734375,-0.022190522402524948,-0.00577719509601593,-0.09874415397644043
1700516547493429800,0.9394296875,-0.004421379882842302,0.08144239336252213,-0.16410371661186218
1700516547503439600,0.949439697265625,-0.012140019796788692,-0.04573819413781166,0.04940163716673851
1700516547513449700,0.95944970703125,0.03738492354750633,0.024466993287205696,0.13832591474056244
1700516547523459600,0.96945947265625,-0.006364955101162195,-0.05601479858160019,-0.054185740649700165
1700516547533469700,0.9794697265625,-0.03369031846523285,0.09428974986076355,-0.17965151369571686
1700516547543480600,0.98948046875,0.02345845475792885,-0.10810303688049316,0.02822631224989891
1700516547553490700,0.99949072265625,-0.006905576679855585,0.0661633089184761,0.013905695639550686
1700516547563500500,1.00950048828125,0.03904673457145691,-0.09760245680809021,0.18308860063552856
1700516547573510700,1.0195107421875,-0.02400040812790394,-0.019828565418720245,-0.11296702921390533
1700516547583520800,1.029520751953125,-0.010987403802573681,0.09553131461143494,-0.17644214630126953
1700516547593530600,1.039530517578125,-0.012720588594675064,-0.056587379425764084,0.06598860025405884
1700516547603541500,1.04954150390625,0.04280126094818115,0.01889193244278431,0.14474652707576752
1700516547613551600,1.059551513671875,-0.008970857597887516,-0.10310454666614532,-0.01377999410033226
1700516547623561700,1.069561767578125,-0.036325518041849136,0.12532302737236023,-0.19371859729290009
1700516547633571600,1.079571533203125,0.014424213208258152,-0.12512382864952087,0.04676031321287155
1700516547643581700,1.089581787109375,-0.0065202172845602036,0.07134342193603516,0.033252496272325516
1700516547653591600,1.099591552734375,0.03822621330618858,-0.1214931383728981,0.20878943800926208
1700516547663601700,1.1096015625,-0.022113291546702385,-0.004652808886021376,-0.10096602886915207
1700516547673612500,1.119612548828125,-0.01384018175303936,0.0864025354385376,-0.19572237133979797
1700516547683622700,1.12962255859375,-0.011095527559518814,-0.05301181972026825,0.059603143483400345
1700516547693632500,1.139632568359375,0.04062226042151451,0.008703210391104221,0.1548476368188858
1700516547703642600,1.149642578125,-0.005369465332478285,-0.08813917636871338,-0.040159404277801514
1700516547713652700,1.15965283203125,-0.038059502840042114,0.1411246359348297,-0.2117607146501541
1700516547723662600,1.16966259765625,0.01588362455368042,-0.12970659136772156,0.04543539136648178
1700516547733673500,1.179673583984375,-0.007123689632862806,0.09009500592947006,0.0299680195748806
1700516547743683600,1.18968359375,0.034622691571712494,-0.1418418288230896,0.1984955072402954
1700516547753693700,1.199693603515625,-0.03068627417087555,0.005094893276691437,-0.11390233039855957
1700516547763703600,1.20970361328125,-0.017017332836985588,0.08543793857097626,-0.18392455577850342
1700516547773713700,1.219713623046875,-0.01074079517275095,-0.05560627207159996,0.06621763855218887
1700516547783723500,1.2297236328125,0.04621569812297821,0.020114056766033173,0.15687163174152374
1700516547793733600,1.239733642578125,-0.024757010862231255,-0.10481137037277222,-0.05796503275632858
1700516547803744500,1.24974462890625,-0.028660673648118973,0.15317809581756592,-0.2092626690864563
1700516547813754600,1.259754638671875,0.025311214849352837,-0.12348625063896179,0.023632625117897987
1700516547823764500,1.269764404296875,0.00250576832331717,0.10096842795610428,0.06646957248449326
1700516547833774600,1.279774658203125,0.0456729456782341,-0.07680503278970718,0.20310038328170776
1700516547843784400,1.289784423828125,-0.03338565304875374,-0.05435218662023544,-0.07880906015634537
1700516547853794600,1.299794677734375,0.010018279775977135,0.15249259769916534,-0.1571885496377945
1700516547863805400,1.309805419921875,-0.004878911189734936,-0.06137068197131157,0.08786407858133316
1700516547873815600,1.319815673828125,0.05528642609715462,0.08234414458274841,0.16939541697502136
1700516547883825700,1.32982568359375,-0.005053614266216755,-0.1279883235692978,-0.005135373678058386
1700516547893835500,1.33983544921875,-0.01733851060271263,0.1669924557209015,-0.1892136037349701
1700516547903845600,1.349845703125,0.022885074838995934,-0.10801621526479721,0.023470439016819
1700516547913855500,1.35985546875,0.015563513152301311,0.11171507835388184,0.04652249440550804
1700516547923865600,1.369865478515625,0.05263578146696091,-0.0586145780980587,0.1979714035987854
1700516547933876500,1.37987646484375,-0.01474379189312458,-0.028373850509524345,-0.09599018096923828
1700516547943886600,1.389886474609375,0.006155097857117653,0.1230340451002121,-0.17153367400169373
1700516547953896400,1.399896484375,-0.004201669245958328,-0.038178279995918274,0.06373583525419235
1700516547963906600,1.409906494140625,0.05464247241616249,0.0531495027244091,0.1573009341955185
1700516547973916400,1.41991650390625,0.00436145905405283,-0.09608498960733414,-0.03621046990156174
1700516547983926500,1.429926513671875,-0.027995148673653603,0.12250780314207077,-0.1870604306459427
1700516547993937400,1.4399375,0.0241364948451519,-0.07017403095960617,0.014255900867283344
1700516548003947500,1.449947509765625,0.007238471880555153,0.08343496918678284,0.05805185064673424
1700516548013957400,1.459957275390625,0.0521196611225605,-0.020547086372971535,0.18625935912132263
1700516548023967500,1.469967529296875,-0.012207929976284504,-0.015241270884871483,-0.10861223191022873
1700516548033977600,1.4799775390625,0.010731473565101624,0.13053111732006073,-0.16949155926704407
1700516548043987500,1.489987548828125,-0.00020453077740967274,-0.03717293590307236,0.03940519690513611
1700516548053997600,1.49999755859375,0.04676990211009979,0.06876707822084427,0.12696434557437897
1700516548064008700,1.5100087890625,0.00911626685410738,-0.11572180688381195,-0.0434233732521534
1700516548074018600,1.5200185546875,-0.05432875081896782,0.06790128350257874,-0.17088519036769867
1700516548084028400,1.5300283203125,0.030765369534492493,-0.06804083287715912,-0.010098706930875778
1700516548094038500,1.54003857421875,0.00424294825643301,0.04724394530057907,0.04366651922464371
1700516548104048400,1.55004833984375,0.04644313082098961,-0.010832940228283405,0.19808298349380493
1700516548114058500,1.56005859375,-0.032529979944229126,-0.1425108015537262,-0.09575182944536209
1700516548124068600,1.570068603515625,-0.017789116129279137,0.10945086181163788,-0.2465280145406723
1700516548134079700,1.580079833984375,-0.026193520054221153,-0.10374024510383606,-0.010031594894826412
1700516548144089600,1.590089599609375,0.03777507692575455,0.059777311980724335,0.11350072920322418
1700516548154099700,1.600099609375,-0.00945102609694004,-0.12471849471330643,-0.04302949085831642
1700516548164109800,1.61010986328125,-0.04007338359951973,0.07640369236469269,-0.1712830662727356
1700516548174119700,1.62011962890625,0.029230589047074318,-0.05344298481941223,-0.04337969794869423
1700516548184129800,1.6301298828125,-0.01895398274064064,0.040529850870370865,0.03087455965578556
1700516548194140700,1.640140625,0.0631781667470932,0.029835660010576248,0.2041909545660019
1700516548204150800,1.65015087890625,-0.021645907312631607,-0.1412777602672577,-0.019217103719711304
1700516548214160600,1.66016064453125,-0.005681055132299662,0.161762535572052,-0.22712530195713043
1700516548224170800,1.670170654296875,-0.01158688124269247,-0.0842517614364624,-0.015052985399961472
1700516548234180600,1.6801806640625,0.046730753034353256,0.11436652392148972,0.1438399851322174
1700516548244190700,1.690190673828125,0.003984089009463787,-0.13303928077220917,0.02213486284017563
1700516548254200600,1.70020068359375,-0.0389106459915638,0.086905337870121,-0.1453140527009964
1700516548264211700,1.710211669921875,0.029077190905809402,-0.03440457955002785,-0.02202061377465725
1700516548274221600,1.7202216796875,-0.007237406447529793,0.036319125443696976,0.052447762340307236
1700516548284231700,1.730231689453125,0.05511917918920517,0.03867975249886513,0.22934849560260773
1700516548294241500,1.740241455078125,-0.01979740709066391,-0.14802780747413635,-0.001076715998351574
1700516548304251400,1.75025146484375,-0.007736216764897108,0.15181083977222443,-0.21572084724903107
1700516548314261500,1.760261474609375,-0.02153938077390194,-0.10355275869369507,0.03176911547780037
1700516548324272400,1.7702724609375,0.03792208060622215,0.10960186272859573,0.17139598727226257
1700516548334282500,1.780282470703125,0.007909322157502174,-0.17228388786315918,0.039978574961423874
1700516548344292400,1.790292236328125,-0.03662645444273949,0.1023186519742012,-0.15772464871406555
1700516548354302500,1.800302490234375,0.01992284134030342,-0.06771912425756454,-0.0026610305067151785
1700516548364312300,1.810312255859375,-0.018222946673631668,0.025108549743890762,0.04701517894864082
1700516548374322400,1.820322509765625,0.046369098126888275,-0.008810269646346569,0.22220803797245026
1700516548384332500,1.83033251953125,-0.020437363535165787,-0.09532146155834198,-0.03506184741854668
1700516548394343700,1.84034375,-0.012559734284877777,0.11835647374391556,-0.1840587854385376
1700516548404353500,1.850353515625,-0.01714329980313778,-0.07841544598340988,0.03671034425497055
1700516548414363600,1.86036376953125,0.03400830179452896,0.08473486453294754,0.16797542572021484
1700516548424373500,1.87037353515625,0.006056294776499271,-0.1378827691078186,0.015686551108956337
1700516548434383600,1.880383544921875,-0.035964127629995346,0.11580196768045425,-0.17240852117538452
1700516548444393500,1.8903935546875,0.020907146856188774,-0.08350075036287308,0.02881513722240925
1700516548454404600,1.900404541015625,-0.011247861199080944,0.048230644315481186,0.04668601229786873
1700516548464414700,1.910414794921875,0.049802444875240326,-0.00683154072612524,0.1939721405506134
1700516548474424600,1.920424560546875,-0.02021951787173748,-0.0781235620379448,-0.04176422581076622
1700516548484434700,1.9304345703125,-0.010403905063867569,0.10941889882087708,-0.18006964027881622
1700516548494444500,1.940444580078125,-0.01543381717056036,-0.07259457558393478,0.0381990522146225
1700516548504454700,1.95045458984375,0.028416993096470833,0.06301864981651306,0.1514347940683365
1700516548514464500,1.960464599609375,0.006003297865390778,-0.13673947751522064,0.00034914040588773787
1700516548524475600,1.9704755859375,-0.03736042231321335,0.11664219200611115,-0.1961814910173416
1700516548534485500,1.980485595703125,0.021710887551307678,-0.09249664098024368,0.022584671154618263
1700516548544495600,1.99049560546875,-0.006148173473775387,0.05127836763858795,0.051727909594774246
1700516548554505500,2.00050537109375,0.0506884790956974,0.01883014664053917,0.1725483387708664
1700516548564515600,2.010515625,-0.012969328090548515,-0.08951763063669205,-0.042994871735572815
1700516548574525700,2.020525634765625,-0.006645918358117342,0.12622371315956116,-0.19824863970279694
1700516548584536600,2.03053662109375,-0.006265086587518454,-0.08514392375946045,0.051414456218481064
1700516548594546400,2.04054638671875,0.02515195868909359,0.08137927949428558,0.13958798348903656
1700516548604556500,2.050556640625,0.011571435257792473,-0.13125282526016235,0.008554872125387192
1700516548614566700,2.060566650390625,-0.035108983516693115,0.1218595951795578,-0.20982620120048523
1700516548624576500,2.070576416015625,0.017169132828712463,-0.09136693179607391,0.02467844821512699
1700516548634586600,2.080586669921875,-0.006709834095090628,0.047511857002973557,0.0572182834148407
1700516548644597500,2.090597412109375,0.0550568588078022,0.04373682662844658,0.17485809326171875
1700516548654607600,2.100607666015625,-0.008255532942712307,-0.08985266089439392,-0.03746747970581055
1700516548664617500,2.110617431640625,-0.005056543741375208,0.12572143971920013,-0.2048191875219345
1700516548674627600,2.120627685546875,0.00025726135936565697,-0.09297947585582733,0.04838351160287857
1700516548684637400,2.130637451171875,0.018073009327054024,0.0806245356798172,0.1368800848722458
1700516548694647600,2.1406474609375,0.010618023574352264,-0.13022591173648834,0.020139090716838837
1700516548704658400,2.150658447265625,-0.03364957123994827,0.10467101633548737,-0.21412400901317596
1700516548714668500,2.16066845703125,0.017709488049149513,-0.08210152387619019,0.01224494818598032
1700516548724678400,2.170678466796875,-0.00800199992954731,0.03963742405176163,0.062181614339351654
1700516548734688500,2.1806884765625,0.051605671644210815,0.04008457064628601,0.1681986004114151
1700516548744698600,2.19069873046875,-0.013190902769565582,-0.09260822832584381,-0.040408410131931305
1700516548754708500,2.20070849609375,-0.010784736834466457,0.12629908323287964,-0.2109694927930832
1700516548764719400,2.21071923828125,0.003659183392301202,-0.09680883586406708,0.04041773080825806
1700516548774729500,2.2207294921875,0.016262592747807503,0.08255533128976822,0.13804441690444946
1700516548784739600,2.230739501953125,0.01715741492807865,-0.13130661845207214,0.018215488642454147
1700516548794749400,2.24074951171875,-0.036252811551094055,0.11416598409414291,-0.2296459823846817
1700516548804759600,2.250759521484375,0.016460731625556946,-0.08623555302619934,0.010605772957205772
1700516548814769400,2.260769287109375,-0.009254484437406063,0.04724900424480438,0.07354345917701721
1700516548824780500,2.270780517578125,0.04764421656727791,0.025198031216859818,0.16920553147792816
1700516548834790400,2.280790283203125,-0.018761970102787018,-0.05032069608569145,-0.05330503359436989
1700516548844800500,2.290800537109375,-0.01679788902401924,0.10317672044038773,-0.18460233509540558
1700516548854810400,2.300810302734375,-0.007255249656736851,-0.08616124838590622,0.0397103950381279
1700516548864820500,2.310820556640625,0.011952000670135021,0.0575258769094944,0.13211914896965027
1700516548874830600,2.32083056640625,0.010203901678323746,-0.11293986439704895,0.041193243116140366
1700516548884841500,2.330841552734375,-0.04297063499689102,0.0884166806936264,-0.22626030445098877
1700516548894851300,2.340851318359375,0.006272010505199432,-0.06708768755197525,0.002653839997947216
1700516548904861400,2.350861328125,-0.026808178052306175,0.04385747015476227,0.08343444019556046
1700516548914871600,2.36087158203125,0.03887442871928215,0.06635665148496628,0.1015535220503807
1700516548924881400,2.37088134765625,-0.02082698419690132,-0.1281324028968811,0.0323781780898571
1700516548934891500,2.3808916015625,-0.014401043765246868,0.14246606826782227,-0.21873366832733154
1700516548944902400,2.39090234375,-0.00649598240852356,-0.10187070816755295,0.04266783595085144
1700516548954912500,2.40091259765625,-0.004971322603523731,0.09543677419424057,0.09298267215490341
1700516548964922400,2.41092236328125,0.02774933911859989,-0.1266663372516632,0.08725074678659439
1700516548974932500,2.420932373046875,-0.03680994734168053,0.07622206956148148,-0.18584975600242615
1700516548984942300,2.4309423828125,0.006127933505922556,-0.02413303218781948,-0.01636805385351181
1700516548994952400,2.440952392578125,-0.029795179143548012,-0.027417508885264397,0.0673164576292038
1700516549004963300,2.45096337890625,0.02539590373635292,0.09586634486913681,0.06704055517911911
1700516549014973400,2.460973388671875,-0.008792692795395851,-0.14038826525211334,0.09541813284158707
1700516549024983300,2.4709833984375,-0.01818060129880905,0.08579293638467789,-0.22266210615634918
1700516549034993400,2.480993408203125,-0.007438475266098976,-0.06730527430772781,-0.047018639743328094
1700516549045003500,2.49100341796875,-0.01088753528892994,0.049011483788490295,0.086009182035923
1700516549055014700,2.5010146484375,0.03573482856154442,-0.08808884769678116,0.11265783756971359
1700516549065024500,2.5110244140625,-0.035895947366952896,-0.011488344520330429,-0.1934349685907364
1700516549075034600,2.52103466796875,-0.009314672090113163,0.050458647310733795,-0.09167692065238953
1700516549085044700,2.531044677734375,-0.020564397796988487,-0.10796668380498886,0.06204472854733467
1700516549095054600,2.5410546875,0.012618323788046837,0.07618531584739685,0.04404255747795105
1700516549105064700,2.551064697265625,0.0026498453225940466,-0.16168130934238434,0.1025008112192154
1700516549115075600,2.56107568359375,-0.030654048547148705,0.041839323937892914,-0.21824471652507782
1700516549125085700,2.571085693359375,-0.009316270239651203,-0.014662299305200577,-0.07584363222122192
1700516549135095600,2.581095458984375,-0.025167936459183693,0.013103284873068333,0.06584852188825607
1700516549145105700,2.591105712890625,0.03170067071914673,-0.0553162507712841,0.11888031661510468
1700516549155115500,2.601115478515625,-0.019156383350491524,-0.0449506975710392,-0.12729084491729736
1700516549165126700,2.611126708984375,-0.022612901404500008,0.09965468943119049,-0.1387416422367096
1700516549175136500,2.621136474609375,0.0027715517207980156,-0.11405892670154572,0.06953486800193787
1700516549185146600,2.631146728515625,0.0033712955191731453,0.08551862835884094,0.061112355440855026
1700516549195156500,2.641156494140625,0.019821641966700554,-0.1021314263343811,0.1460605412721634
1700516549205166600,2.65116650390625,-0.028842832893133163,0.054436877369880676,-0.17022979259490967
1700516549215176700,2.6611767578125,-0.007428887765854597,0.017737718299031258,-0.104659304022789
1700516549225187600,2.6711875,-0.010790329426527023,0.009206813760101795,0.06538593024015427
1700516549235197400,2.681197509765625,0.03708052262663841,-0.012630041688680649,0.13829688727855682
1700516549245207600,2.69120751953125,-0.008569253608584404,-0.04480661824345589,-0.12084146589040756
1700516549255217700,2.7012177734375,-0.0274468045681715,0.10828039795160294,-0.1654406189918518
1700516549265227500,2.7112275390625,0.018312694504857063,-0.10726466774940491,0.08076142519712448
1700516549275238400,2.72123828125,0.0014314490836113691,0.04831613227725029,0.060512345284223557
1700516549285248500,2.73124853515625,0.033785395324230194,-0.0528981015086174,0.15466707944869995
1700516549295260000,2.741260009765625,-0.021682126447558403,0.00640756543725729,-0.13972727954387665
1700516549305270000,2.75127001953125,-0.0016016251174733043,0.03213503211736679,-0.11668640375137329
1700516549315280000,2.76127978515625,-0.012389025650918484,-0.028899291530251503,0.07087497413158417
1700516549325291000,2.771291015625,0.02865108661353588,0.029276395216584206,0.1260380893945694
1700516549335300900,2.78130078125,0.002886067610234022,-0.08833998441696167,-0.07901971787214279
1700516549345311000,2.79131103515625,-0.03468181565403938,0.08311352878808975,-0.19150738418102264
1700516549355320800,2.80132080078125,0.029499568045139313,-0.08081602305173874,0.07397888600826263
1700516549365331000,2.8113310546875,-0.0030890004709362984,0.02166987583041191,0.05892803147435188
1700516549375341800,2.821341796875,0.04122732952237129,-0.015558719635009766,0.14336514472961426
1700516549385352000,2.83135205078125,-0.010813765227794647,-0.04007844254374504,-0.08238515257835388
1700516549395361800,2.84136181640625,-0.007749265991151333,0.05930806323885918,-0.18398341536521912
1700516549405372000,2.851371826171875,-0.0011685950448736548,-0.07084780931472778,0.05717886611819267
1700516549415382000,2.861382080078125,0.011867311783134937,0.04187820851802826,0.1046646237373352
1700516549425393000,2.871392822265625,-0.001198688754811883,-0.13645105063915253,-0.042336802929639816
1700516549435402800,2.88140283203125,-0.0325171984732151,0.09183724224567413,-0.24426060914993286
1700516549445412900,2.891412841796875,0.01745116151869297,-0.08934719115495682,0.013081979937851429
1700516549455423000,2.901423095703125,-0.016021044924855232,0.035347338765859604,0.036858681589365005
1700516549465432800,2.911432861328125,0.05294949933886528,0.04470169171690941,0.136098712682724
1700516549475444000,2.92144384765625,-0.01840776950120926,-0.09951833635568619,-0.030717432498931885
1700516549485453800,2.931453857421875,-0.004512726329267025,0.08060456812381744,-0.22936475276947021
1700516549495464000,2.9414638671875,-0.0011105381418019533,-0.08426295220851898,0.032289229333400726
1700516549505473800,2.951473876953125,0.00848829373717308,0.07228538393974304,0.10637917369604111
1700516549515484000,2.96148388671875,0.02002936787903309,-0.11375533044338226,0.013568805530667305
1700516549525494800,2.971494873046875,-0.023630494251847267,0.0957488939166069,-0.21070744097232819
1700516549535505000,2.9815048828125,0.013185310177505016,-0.054012101143598557,0.021211013197898865
1700516549545514800,2.9915146484375,-0.021253090351819992,0.035099130123853683,0.08306266367435455
1700516549555524900,3.00152490234375,0.04976649209856987,0.09736330807209015,0.15257462859153748
1700516549565534700,3.01153466796875,-0.004216050263494253,-0.07560314983129501,0.026460902765393257
1700516549575545900,3.0215458984375,-0.01053253561258316,0.1002107560634613,-0.17933860421180725
1700516549585555700,3.0315556640625,0.006956443190574646,-0.047873783856630325,0.030827155336737633
1700516549595565800,3.04156591796875,0.008079231716692448,0.07751316577196121,0.14209109544754028
1700516549605575700,3.05157568359375,0.027829766273498535,-0.07896219193935394,0.05259237065911293
1700516549615585800,3.061585693359375,-0.02702549286186695,0.08465389907360077,-0.21484465897083282
1700516549625596700,3.0715966796875,0.012647618539631367,-0.002429868094623089,0.015115569345653057
1700516549635606800,3.081606689453125,-0.028852153569459915,0.040522392839193344,0.07508675754070282
1700516549645617000,3.091616943359375,0.040766071528196335,0.10860344022512436,0.1011979877948761
1700516549655626800,3.101626708984375,-0.0065071675926446915,-0.08758097887039185,0.06377604603767395
1700516549665637600,3.1116376953125,-0.006924485322088003,0.11019468307495117,-0.20992393791675568
1700516549675647700,3.121647705078125,0.003923369105905294,-0.03638357296586037,0.02359134517610073
1700516549685657900,3.131657958984375,0.01347799226641655,0.0821547880768776,0.11983159184455872
1700516549695667700,3.141667724609375,0.03110865131020546,-0.073308564722538,0.04922853410243988
1700516549705677800,3.151677734375,-0.024080568924546242,0.05759857967495918,-0.21883460879325867
1700516549715689000,3.16168896484375,0.006680273450911045,0.0073053170926868916,-0.004201935604214668
1700516549725699000,3.171698974609375,-0.013457219116389751,0.0014761901693418622,0.07799040526151657
1700516549735709000,3.181708984375,0.0200986098498106,0.10038359463214874,0.08101814985275269
1700516549745719000,3.191718994140625,-0.005304217804223299,-0.09353367984294891,0.04421086981892586
1700516549755729000,3.20172900390625,-0.012745622545480728,0.07631128281354904,-0.19103281199932098
1700516549765740000,3.211739990234375,0.0024708807468414307,-0.04807351902127266,0.015512380748987198
1700516549775750000,3.22175,-0.018507903441786766,0.06761392951011658,0.09884082525968552
1700516549785760000,3.231760009765625,0.03058028034865856,-0.06106149032711983,0.06860435754060745
1700516549795769900,3.241769775390625,-0.02490401826798916,0.007700796704739332,-0.18727588653564453
1700516549805781000,3.251781005859375,-0.00839588139206171,0.03406662493944168,-0.05814079940319061
1700516549815790800,3.261790771484375,-0.01125105656683445,-0.07252480089664459,0.08696792274713516
1700516549825801000,3.271801025390625,0.019481556490063667,0.09077810496091843,0.06620751321315765
1700516549835810800,3.281810791015625,-0.003694869577884674,-0.1298496127128601,0.1067136600613594
1700516549845821000,3.291821044921875,-0.014639662578701973,0.09089075773954391,-0.21038998663425446
1700516549855831800,3.301831787109375,-0.009485114365816116,-0.043779172003269196,-0.012377041392028332
1700516549865842000,3.311842041015625,-0.009810819290578365,0.06077653169631958,0.0855279490351677
1700516549875851800,3.321851806640625,0.03364291414618492,-0.0778023898601532,0.12464339286088943
1700516549885862000,3.33186181640625,-0.011997274123132229,0.001350222621113062,-0.16433221101760864
1700516549895872800,3.341872802734375,-0.019629627466201782,0.06943020969629288,-0.09880407154560089
1700516549905883000,3.3518828125,0.0038402783684432507,-0.07750064879655838,0.08845795691013336
1700516549915892700,3.361892822265625,0.01213069912046194,0.06689967215061188,0.07157644629478455
1700516549925902800,3.37190283203125,0.015688415616750717,-0.096002958714962,0.13482093811035156
1700516549935913000,3.381912841796875,-0.01859658770263195,0.06052592769265175,-0.18095406889915466
1700516549945923800,3.391923828125,-0.005411010701209307,0.00301682879216969,-0.07703939080238342
1700516549955933700,3.40193359375,-0.00760998297482729,0.04495921730995178,0.07175993919372559
1700516549965943800,3.41194384765625,0.0339297391474247,-0.06323995441198349,0.13048264384269714
1700516549975954000,3.421953857421875,-0.007464041467756033,-0.016979249194264412,-0.15196529030799866
1700516549985964800,3.43196484375,-0.01852628029882908,0.11954237520694733,-0.14683391153812408
1700516549995974700,3.441974609375,0.01133894082158804,-0.12050431221723557,0.08478040248155594
1700516550005984800,3.45198486328125,0.020259732380509377,0.10005682706832886,0.05151911824941635
1700516550015995000,3.461994873046875,0.03369724377989769,-0.10910838097333908,0.14711222052574158
1700516550026005800,3.472005859375,-0.03658251091837883,0.0006807039608247578,-0.18199856579303741
1700516550036015900,3.482015869140625,0.010691792704164982,0.09772389382123947,-0.16585208475589752
1700516550046025700,3.492025634765625,-0.010876882821321487,-0.039807334542274475,0.04623141139745712
1700516550056035800,3.502035888671875,0.054655786603689194,0.04151575267314911,0.11888031661510468
1700516550066045700,3.512045654296875,-0.02046825736761093,-0.10834484547376633,-0.08450529724359512
1700516550076056800,3.522056884765625,-0.03257552161812782,0.15691131353378296,-0.24070368707180023
1700516550086067000,3.53206689453125,0.0180522371083498,-0.132751926779747,-0.0282867643982172
1700516550096077000,3.5420771484375,-0.0055028898641467094,0.0859503298997879,0.01696460321545601
1700516550106086700,3.552086669921875,0.05590267851948738,-0.015398663468658924,0.1538018137216568
1700516550116098000,3.56209814453125,-0.04556721821427345,-0.10137322545051575,-0.10111702978610992
1700516550126108000,3.57210791015625,0.00812344066798687,0.16562731564044952,-0.26640427112579346
1700516550136118000,3.582117919921875,-0.020114323124289513,-0.10769503563642502,-0.031311050057411194
1700516550146128000,3.5921279296875,0.0353768989443779,0.06539898365736008,0.05686061829328537
1700516550156139000,3.602138916015625,-0.012077702209353447,-0.16353780031204224,-0.08729708939790726
1700516550166148900,3.61214892578125,-0.047561392188072205,0.10327445715665817,-0.2997260093688965
1700516550176159000,3.622158935546875,0.029756831005215645,-0.09605063498020172,-0.12170912325382233
1700516550186168800,3.6321689453125,-0.024405473843216896,0.003099653171375394,-0.03204794600605965
1700516550196180000,3.642179931640625,0.04912147298455238,0.0703873485326767,0.1208726242184639
1700516550206189800,3.65218994140625,-0.02353834919631481,-0.24948279559612274,0.009247826412320137
1700516550216200000,3.662199951171875,-0.012858807109296322,0.16071803867816925,-0.28779610991477966
1700516550226209800,3.672209716796875,-0.021457888185977936,-0.1208939328789711,-0.07272852957248688
1700516550236221000,3.682220947265625,0.009181248024106026,0.1012355387210846,0.08537322282791138
1700516550246230800,3.692230712890625,0.030459638684988022,-0.13614559173583984,0.07231547683477402
1700516550256241000,3.702240966796875,-0.050575558096170425,0.04365027695894241,-0.09386684000492096
1700516550266250800,3.712250732421875,0.034504715353250504,0.04109630361199379,-0.0029052423778921366
1700516550276262000,3.722261962890625,-0.018026137724518776,0.03693058714270592,0.07711395621299744
1700516550286271700,3.732271728515625,0.07180521637201309,0.20894601941108704,0.24253247678279877
1700516550296281600,3.742281494140625,0.003926032222807407,-0.24184805154800415,0.20804427564144135
1700516550306291500,3.75229150390625,-0.0007091998122632504,0.25877776741981506,-0.18417969346046448
1700516550316302600,3.762302490234375,0.0007512777228839695,-0.027169035747647285,0.012329370714724064
1700516550326312400,3.7723125,0.030549120157957077,0.1471226066350937,0.17309056222438812
1700516550336322600,3.782322509765625,0.04831480234861374,-0.10977043956518173,0.1508403718471527
1700516550346332700,3.792332763671875,-0.03924061357975006,0.10453120619058609,-0.09103456884622574
1700516550356343600,3.802343505859375,0.04379914700984955,0.04043876752257347,-0.018751850351691246
1700516550366353400,3.812353515625,-0.01272751297801733,0.04963865876197815,0.036250416189432144
1700516550376363500,3.822363525390625,0.05874161049723625,0.14101117849349976,0.18576347827911377
1700516550386373600,3.83237353515625,0.013513145968317986,-0.21857814490795135,0.15795500576496124
1700516550396384500,3.842384521484375,-0.00595642626285553,0.21162542700767517,-0.21289175748825073
1700516550406394400,3.852394287109375,-0.003032541600987315,-0.08553434163331985,-0.027308320626616478
1700516550416404500,3.862404541015625,0.030015157535672188,0.148106649518013,0.11551967263221741
1700516550426414600,3.87241455078125,0.038066692650318146,-0.1629505753517151,0.11077152192592621
1700516550436425500,3.882425537109375,-0.049977947026491165,0.06643867492675781,-0.16577911376953125
1700516550446435300,3.892435302734375,0.02190636470913887,-0.012182364240288734,-0.0668831616640091
1700516550456445400,3.902445556640625,-0.024055268615484238,0.024600151926279068,0.02358841709792614
1700516550466455600,3.91245556640625,0.04144517704844475,0.07713313400745392,0.1475827991962433
1700516550476466400,3.922466552734375,-0.01299196481704712,-0.1733667254447937,0.04104303941130638
1700516550486476500,3.9324765625,-0.02311517298221588,0.14222638309001923,-0.25129935145378113
1700516550496486400,3.942486328125,-0.009771936573088169,-0.11022663861513138,-0.041613489389419556
1700516550506496500,3.95249658203125,0.01299303025007248,0.10026855021715164,0.08984386920928955
1700516550516507400,3.96250732421875,0.026208700612187386,-0.1382361650466919,0.09151952713727951
1700516550526517500,3.972517578125,-0.044330447912216187,0.02220863290131092,-0.22106687724590302
1700516550536527400,3.98252734375,0.002900981344282627,0.043776243925094604,-0.0985175222158432
1700516550546537500,3.992537353515625,-0.03374198451638222,-0.06987947970628738,0.030308105051517487
1700516550556548400,4.00254833984375,0.037098899483680725,0.17552362382411957,0.08209247142076492
1700516550566558500,4.012558349609375,-0.0022274679504334927,-0.20762775838375092,0.13562972843647003
1700516550576568300,4.022568359375,-0.02588352933526039,0.09752096235752106,-0.2363606095314026
1700516550586578400,4.032578369140625,-0.012724583968520164,-0.014308897778391838,-0.10453546047210693
1700516550596589600,4.042589599609375,-0.004062119405716658,0.05061657354235649,0.0650935173034668
1700516550606599700,4.052599609375,0.04229738935828209,-0.09048941731452942,0.1020246371626854
1700516550616609500,4.062609619140625,-0.03669463098049164,-0.04933159798383713,-0.18079668283462524
1700516550626619600,4.07261962890625,-0.004513259045779705,0.11319659650325775,-0.14932024478912354
1700516550636630500,4.082630615234375,-0.018065020442008972,-0.15151788294315338,0.018033329397439957
1700516550646640600,4.092640625,0.02612214721739292,0.16798686981201172,0.034515898674726486
1700516550656650500,4.102650390625,0.012464925646781921,-0.15014448761940002,0.17692656815052032
1700516550666661400,4.112661376953125,-0.032100412994623184,0.005957491230219603,-0.18647001683712006
1700516550676671500,4.12267138671875,0.0016559535870328546,0.11637002229690552,-0.17255206406116486
1700516550686681600,4.132681640625,-0.010332798585295677,-0.0556185208261013,0.07363693416118622
1700516550696691500,4.14269140625,0.06147587671875954,0.03325489163398743,0.12851856648921967
1700516550706702600,4.15270263671875,-0.024381238967180252,-0.10526037961244583,-0.07712247967720032
1700516550716712400,4.16271240234375,-0.021674668416380882,0.15387025475502014,-0.1445300132036209
1700516550726722600,4.17272265625,0.015028217807412148,-0.14436329901218414,0.0412726067006588
1700516550736732400,4.182732421875,0.011186075396835804,0.16456390917301178,0.08391966670751572
1700516550746743600,4.19274365234375,0.039754871279001236,-0.053828611969947815,0.2499549835920334
1700516550756753400,4.20275341796875,-0.028026042506098747,-0.07866604626178741,-0.10696879029273987
1700516550766763500,4.212763427734375,-0.01398772094398737,0.16617166996002197,-0.21421456336975098
1700516550776773400,4.2227734375,-0.013578925281763077,-0.10389577597379684,0.07557838410139084
1700516550786784500,4.232784423828125,0.05102963000535965,0.08590425550937653,0.17186923325061798
1700516550796794400,4.24279443359375,-0.01980219967663288,-0.1743622124195099,-0.015901735052466393
1700516550806804500,4.252804443359375,-0.04254266619682312,0.18573205173015594,-0.18339405953884125
1700516550816815400,4.2628154296875,0.021797707304358482,-0.13660737872123718,0.024415060877799988
1700516550826825500,4.272825439453125,-0.0068419273011386395,0.1249358132481575,0.08402007073163986
1700516550836835300,4.28283544921875,0.04739760980010033,-0.06292836368083954,0.24250398576259613
1700516550846845400,4.292845458984375,-0.035050660371780396,-0.08883319795131683,-0.0920039564371109
1700516550856856600,4.302856689453125,-0.013854030519723892,0.17561575770378113,-0.23475924134254456
1700516550866866700,4.31286669921875,-0.018067684024572372,-0.12668044865131378,0.04825754463672638
1700516550876876300,4.322876220703125,0.04032665118575096,0.0776953250169754,0.15627002716064453
1700516550886887400,4.332887451171875,-0.005116198677569628,-0.21185632050037384,-0.03205274045467377
1700516550896897500,4.3428974609375,-0.056470733135938644,0.19023731350898743,-0.24580018222332
1700516550906907600,4.35290771484375,0.041552770882844925,-0.13664093613624573,-0.0038195056840777397
1700516550916917500,4.36291748046875,-0.007766043767333031,0.09168890863656998,0.07550034672021866
1700516550926928600,4.3729287109375,0.055982042104005814,-0.021351894363760948,0.2157546579837799
1700516550936938500,4.3829384765625,-0.03689463436603546,-0.15742051601409912,-0.0867876261472702
1700516550946948600,4.392948486328125,-0.014428474009037018,0.24016758799552917,-0.268085777759552
1700516550956958500,4.40295849609375,-0.011071293614804745,-0.16168104112148285,0.07863275706768036
1700516550966969600,4.412969482421875,0.04676830396056175,0.13300545513629913,0.1857251226902008
1700516550976979500,4.4229794921875,0.0067718857899308205,-0.18714378774166107,0.009974869899451733
1700516550986989600,4.432989501953125,-0.05952591076493263,0.2139114886522293,-0.22919510304927826
1700516550997000400,4.44300048828125,0.037097301334142685,-0.13285978138446808,0.016344351693987846
1700516551007010600,4.453010498046875,-0.001172323478385806,0.09450866281986237,0.10453733056783676
1700516551017020400,4.4630205078125,0.050456516444683075,-0.016234897077083588,0.23455125093460083
1700516551027030500,4.473030517578125,-0.03262558579444885,-0.143027201294899,-0.08210472017526627
1700516551037041400,4.48304150390625,-0.020202472805976868,0.22916820645332336,-0.26420289278030396
1700516551047051500,4.493051513671875,-0.012930712662637234,-0.15485429763793945,0.07596161216497421
1700516551057061400,4.503061279296875,0.03639236092567444,0.08398198336362839,0.1878252923488617
1700516551067072500,4.513072509765625,-0.0010183927370235324,-0.19730907678604126,-0.01013971958309412
1700516551077082400,4.523082275390625,-0.06455103307962418,0.20758648216724396,-0.26264333724975586
1700516551087092500,4.533092529296875,0.0334535650908947,-0.12260235100984573,0.0028703550342470407
1700516551097102300,4.543102294921875,0.004664260428398848,0.08275000751018524,0.11240297555923462
1700516551107113500,4.553113525390625,0.05078994482755661,-0.02454795315861702,0.22271643579006195
1700516551117123300,4.563123291015625,-0.02882206067442894,-0.11312788724899292,-0.10169573128223419
1700516551127133400,4.573133544921875,-0.011680624447762966,0.22332975268363953,-0.25843289494514465
1700516551137144600,4.58314453125,-0.004667988512665033,-0.14800117909908295,0.09538298100233078
1700516551147154700,4.59315478515625,0.0410265289247036,0.08571463823318481,0.20223060250282288
1700516551157164500,4.60316455078125,0.002386725042015314,-0.17437393963336945,0.002097771968692541
1700516551167175400,4.613175537109375,-0.05350770056247711,0.17665545642375946,-0.2647528350353241
1700516551177185500,4.623185546875,0.021518342196941376,-0.15042945742607117,0.012870258651673794
1700516551187195600,4.633195556640625,0.0005850964807905257,0.07213570922613144,0.08930084854364395
1700516551197205500,4.64320556640625,0.040893103927373886,-0.07475865632295609,0.2146822065114975
1700516551207216400,4.65321630859375,-0.04224812239408493,-0.10561563819646835,-0.1038891151547432
1700516551217226500,4.6632265625,-0.0157102532684803,0.1552489697933197,-0.24834616482257843
1700516551227236600,4.673236572265625,-0.019719108939170837,-0.14054779708385468,0.07230695337057114
1700516551237247500,4.68324755859375,0.03153448924422264,0.06815881282091141,0.20696276426315308
1700516551247257300,4.69325732421875,-0.012533368542790413,-0.16958050429821014,0.016286294907331467
1700516551257267500,4.703267333984375,-0.057798851281404495,0.12998703122138977,-0.23130086064338684
1700516551267277600,4.713277587890625,0.011465707793831825,-0.10833659023046494,0.006779609248042107
1700516551277288400,4.723288330078125,-0.022581741213798523,0.019997676834464073,0.0982072576880455
1700516551287298600,4.733298583984375,0.03670981153845787,-0.003136138431727886,0.22196568548679352
1700516551297308200,4.74330810546875,-0.047617584466934204,-0.201569065451622,0.001967277145013213
1700516551307319000,4.753319091796875,-0.038365233689546585,0.18567399680614471,-0.25545546412467957
1700516551317329200,4.7633291015625,-0.036011796444654465,-0.1468978375196457,0.011653194203972816
1700516551327339300,4.77333935546875,-0.00805979035794735,0.0780378133058548,0.14189454913139343
1700516551337349000,4.78334912109375,-0.016336895525455475,-0.2198583334684372,0.05097929388284683
1700516551347360300,4.7933603515625,-0.05239689350128174,0.1376982033252716,-0.2046615332365036
1700516551357370000,4.8033701171875,-0.003995007835328579,-0.09614970535039902,-0.021319668740034103
1700516551367380200,4.813380126953125,-0.03238750249147415,0.03368020057678223,0.013191435486078262
1700516551377391400,4.823391357421875,0.03850691393017769,0.055570852011442184,0.1558346003293991
1700516551387401200,4.833401123046875,-0.018680211156606674,-0.20754121243953705,0.060742974281311035
1700516551397411000,4.8434111328125,-0.023497868329286575,0.1914415955543518,-0.2388613075017929
1700516551407422200,4.853422119140625,-0.008268316276371479,-0.1052667647600174,-0.01462634652853012
1700516551417432300,4.863432373046875,0.010085390880703926,0.0968027114868164,0.12177277356386185
1700516551427442400,4.8734423828125,0.027754399925470352,-0.16598577797412872,0.06586237251758575
1700516551437452300,4.883452392578125,-0.029937924817204475,0.14618943631649017,-0.20898383855819702
1700516551447463200,4.893463134765625,0.023693345487117767,-0.0397559329867363,-0.0028796761762350798
1700516551457473300,4.903473388671875,-0.0016852483386173844,0.06071474775671959,0.08199793100357056
1700516551467483400,4.9134833984375,0.07330963015556335,0.13896428048610687,0.18694564700126648
1700516551477494300,4.923494384765625,0.014663098379969597,-0.12640348076820374,0.07247419655323029
1700516551487504100,4.933504150390625,-0.0032959282398223877,0.15823091566562653,-0.19027699530124664
1700516551497514200,4.94351416015625,0.003478088416159153,-0.06812366098165512,0.016211194917559624
1700516551507525000,4.953525146484375,0.03172757104039192,0.08927635103464127,0.10912089794874191
1700516551517535200,4.96353515625,0.012552809901535511,-0.1257360875606537,0.020434169098734856
1700516551527545000,4.973545166015625,-0.024709340184926987,0.08594180643558502,-0.2069864720106125
1700516551537556200,4.98355615234375,0.014415157958865166,-0.027282221242785454,0.0009731190511956811
1700516551547566000,4.993566162109375,-0.006202502176165581,0.006667223758995533,0.07659623771905899
1700516551557576200,5.003576171875,0.05469014123082161,0.10469978302717209,0.13636130094528198
1700516551567586300,5.01358642578125,0.002502039773389697,-0.11061439663171768,0.007154582068324089
1700516551577597200,5.02359716796875,-0.005598763469606638,0.08387546241283417,-0.17485755681991577
1700516551587607000,5.03360693359375,0.009370332583785057,-0.06252089887857437,0.046963512897491455
1700516551597617200,5.0436171875,0.019648801535367966,0.05501078814268112,0.13955630362033844
1700516551607628000,5.0536279296875,0.010008159093558788,-0.0829249769449234,0.002927879337221384
1700516551617638100,5.06363818359375,-0.016699351370334625,0.05585341155529022,-0.21164673566818237
1700516551627648000,5.07364794921875,0.019110843539237976,-0.008595085702836514,0.01960699073970318
1700516551637659400,5.083659423828125,-0.0038834214210510254,0.02304060384631157,0.09513583779335022
1700516551647669200,5.093669189453125,0.05518229678273201,0.10818905383348465,0.13187973201274872
1700516551657679400,5.103679443359375,0.003519367426633835,-0.060994911938905716,-0.007160707376897335
1700516551667690200,5.113690185546875,-0.011663047596812248,0.07451923936605453,-0.16099101305007935
1700516551677700400,5.123700439453125,0.005851231049746275,-0.04553579166531563,0.03599182143807411
1700516551687710200,5.133710205078125,0.022598519921302795,0.06574705243110657,0.10510724782943726
1700516551697720300,5.14372021484375,0.011668906547129154,-0.07968311011791229,-0.0031587753910571337
1700516551707731200,5.153731201171875,-0.009782057255506516,0.09198318421840668,-0.19489678740501404
1700516551717741300,5.1637412109375,0.00860440731048584,-0.021392107009887695,0.036618463695049286
1700516551727751200,5.173751220703125,-0.006142314523458481,0.02996642142534256,0.08055369555950165
1700516551737762300,5.18376220703125,0.053167879581451416,0.1372646540403366,0.09561360627412796
1700516551747772200,5.193772216796875,0.018691929057240486,-0.08533220738172531,0.04224386066198349
1700516551757782300,5.2037822265625,-0.011901400052011013,0.07684870809316635,-0.1393752098083496
1700516551767793200,5.213793212890625,0.014340856112539768,-0.061829280108213425,0.04669320210814476
1700516551777803300,5.22380322265625,0.01810337044298649,0.0793432891368866,0.11974131315946579
1700516551787813000,5.233813232421875,0.026224413886666298,-0.07009759545326233,0.044268395751714706
1700516551797824300,5.24382421875,-0.007701063062995672,0.028497688472270966,-0.17114990949630737
1700516551807834000,5.253834228515625,0.010757040232419968,-0.023002786561846733,0.004886367823928595
1700516551817844200,5.26384423828125,-0.014726481400430202,0.007534881588071585,0.08360115438699722
1700516551827855000,5.273855224609375,0.04195943474769592,0.08549599349498749,0.12215307354927063
1700516551837865200,5.283865234375,-0.007275223266333342,-0.05391250178217888,-0.024383103474974632
1700516551847875000,5.293875,-0.011381285265088081,0.027908597141504288,-0.1741800606250763
1700516551857885200,5.30388525390625,0.007797469384968281,-0.0574457161128521,0.03470231965184212
1700516551867896300,5.313896240234375,0.009781524538993835,0.04893744736909866,0.1253475397825241
1700516551877906400,5.323906494140625,-0.011207113973796368,-0.0310447346419096,0.0109855392947793
1700516551887916300,5.333916259765625,-0.006472013890743256,0.010280600748956203,-0.22304107248783112
1700516551897927200,5.34392724609375,-0.0010186590952798724,-0.010881676338613033,0.001133441342972219
1700516551907937300,5.353937255859375,-0.020232301205396652,0.001097755040973425,0.08803265541791916
1700516551917947400,5.363947509765625,0.027698472142219543,0.08842014521360397,0.08110284060239792
1700516551927958300,5.373958251953125,-0.022007297724485397,-0.0717061460018158,-0.015105982311069965
1700516551937968000,5.383968017578125,-0.009837983176112175,0.04199671745300293,-0.19902575016021729
1700516551947978200,5.393978271484375,0.0016013587592169642,-0.05838235095143318,0.04517253860831261
1700516551957989000,5.403989013671875,0.009997772984206676,0.07623191922903061,0.10996191948652267
1700516551967999200,5.413999267578125,-0.002957174088805914,-0.037823546677827835,0.03536704555153847
1700516551978009300,5.42400927734375,0.0007126618875190616,0.013962420634925365,-0.2293383777141571
1700516551988020200,5.434020263671875,-0.005923402961343527,-0.0075780246406793594,-0.012011655606329441
1700516551998030000,5.444030029296875,-0.017057547345757484,-0.009970875456929207,0.08345548063516617
1700516552008040200,5.454040283203125,0.021953769028186798,0.08505896478891373,0.06445622444152832
1700516552018051000,5.464051025390625,-0.013217268511652946,-0.06839663535356522,-0.032103609293699265
1700516552028061200,5.474061279296875,-0.014848721213638783,0.012414591386914253,-0.21444785594940186
1700516552038071000,5.484071044921875,0.006077333353459835,-0.0389695018529892,-0.011590609326958656
1700516552048082200,5.494082275390625,0.008139153011143208,0.04393763095140457,0.04921095445752144
1700516552058092000,5.504092041015625,0.004226702731102705,-0.024754349142313004,-0.010469951666891575
1700516552068102100,5.51410205078125,-0.011056113056838512,-0.04968872666358948,-0.28432920575141907
1700516552078113300,5.52411328125,-0.02990170568227768,0.08177395910024643,-0.15709108114242554
1700516552088123400,5.534123291015625,-0.004954278469085693,-0.1418045312166214,-0.030466828495264053
1700516552098133200,5.54413330078125,-0.0049409628845751286,0.04225850850343704,-0.07467716932296753
1700516552108143400,5.554143310546875,0.009010273031890392,-0.09596887230873108,-0.02455993741750717
1700516552118154200,5.564154296875,-0.0357646569609642,-0.05308585613965988,-0.31892845034599304
1700516552128164400,5.574164306640625,-0.01642105169594288,0.033244241029024124,-0.24648168683052063
1700516552138174200,5.58417431640625,-0.02509230375289917,-0.06378297507762909,-0.047995489090681076
1700516552148185300,5.594185302734375,0.021387314423918724,-0.027477962896227837,0.07730996608734131
1700516552158195200,5.6041953125,-0.008115450851619244,-0.06793670356273651,-0.14610473811626434
1700516552168205300,5.614205322265625,-0.033494576811790466,0.0629374235868454,-0.20507006347179413
1700516552178216200,5.62421630859375,-0.004978246986865997,-0.09837450832128525,-0.0219724103808403
1700516552188226300,5.634226318359375,0.000511593243572861,0.08248715102672577,0.09520001709461212
1700516552198236200,5.644236083984375,0.009782057255506516,-0.04447958245873451,0.25775963068008423
1700516552208247300,5.654247314453125,-0.03603603318333626,-0.09065400063991547,-0.025598304346203804
1700516552218257200,5.664257080078125,-0.010271811857819557,0.06703362613916397,-0.13415513932704926
1700516552228267300,5.674267333984375,-0.03395397216081619,-0.03237578272819519,0.05709231272339821
1700516552238278100,5.684278076171875,0.023970579728484154,0.05876744166016579,0.21371148526668549
1700516552248288300,5.694288330078125,-0.02688860520720482,-0.17660805583000183,0.054728757590055466
1700516552258298000,5.704298095703125,-0.032773394137620926,0.1291438639163971,-0.09989437460899353
1700516552268309000,5.71430908203125,0.0011997540714219213,-0.09897611290216446,0.01077008992433548
1700516552278319000,5.724319091796875,-0.008485097438097,0.08263522386550903,0.03472921997308731
1700516552288329200,5.7343291015625,0.03640088438987732,-0.005123389419168234,0.24674400687217712
1700516552298343400,5.744343505859375,-0.01534753106534481,-0.09713507443666458,-0.010159427300095558
1700516552308353500,5.754353515625,0.003370763035491109,0.11791518330574036,-0.19645899534225464
1700516552318363400,5.76436328125,-0.014097975566983223,-0.04992521554231644,0.000059388490626588464
1700516552328374300,5.774374267578125,0.040526654571294785,0.10073060542345047,0.17494171857833862
1700516552338384400,5.78438427734375,0.024501081556081772,-0.08574260026216507,0.06990931183099747
1700516552348394500,5.79439453125,0.00449887802824378,0.12453687191009521,-0.13969957828521729
1700516552358405400,5.8044052734375,0.0117352195084095,-0.04601889103651047,-0.019274627789855003
1700516552368415200,5.814415283203125,0.029523802921175957,0.09266176074743271,0.05697194114327431
1700516552378425300,5.82442529296875,0.06432493031024933,0.03139574080705643,0.26086699962615967
1700516552388435500,5.834435546875,0.0073745595291256905,-0.08059604465961456,-0.028794363141059875
1700516552398446300,5.8444462890625,-0.0015214639715850353,0.06687010824680328,-0.22519902884960175
1700516552408456400,5.85445654296875,-0.011547999456524849,-0.052803825587034225,-0.01167423278093338
1700516552418466300,5.86446630859375,0.024932779371738434,0.06958653777837753,0.18710491061210632
1700516552428477200,5.874477294921875,0.02461320161819458,-0.13223765790462494,0.01540478877723217
1700516552438487300,5.8844873046875,-0.029107019305229187,0.03828427195549011,-0.22180376946926117
1700516552448497400,5.894497314453125,0.009894974529743195,-0.05778234079480171,-0.09225189685821533
1700516552458508300,5.90450830078125,-0.002445314545184374,-0.001603222917765379,0.04952973499894142
1700516552468518100,5.91451806640625,0.03971225768327713,0.006399309728294611,0.21122010052204132
1700516552478528300,5.9245283203125,-0.02014947682619095,-0.07255223393440247,-0.09812257438898087
1700516552488539400,5.934539306640625,-0.0016399745363742113,0.029693979769945145,-0.2803903818130493
1700516552498549500,5.944549560546875,-0.012547750025987625,-0.06245352327823639,-0.06894391030073166
1700516552508559400,5.954559326171875,0.015511048957705498,0.07116605341434479,0.14570100605487823
1700516552518570500,5.964570556640625,0.011366104707121849,-0.09789354354143143,-0.009283246472477913
1700516552528580400,5.974580322265625,-0.015557121485471725,0.06198880076408386,-0.19904625415802002
1700516552538590500,5.984590576171875,0.025978071615099907,-0.016883907839655876,-0.04109257459640503
1700516552548601300,5.994601318359375,0.004022438544780016,0.005501824431121349,0.07341962307691574
1700516552558611500,6.004611572265625,0.06318403035402298,0.1117161437869072,0.23320741951465607
1700516552568621300,6.014621337890625,0.019571304321289062,-0.10436742007732391,0.04566149413585663
1700516552578632400,6.024632568359375,0.017371799796819687,0.12163721770048141,-0.19822093844413757
1700516552588642300,6.034642333984375,0.005644303746521473,-0.03087296150624752,0.05534501373767853
1700516552598652400,6.04465234375,0.04544498026371002,0.08574819564819336,0.25185808539390564
1700516552608663300,6.054663330078125,0.038301315158605576,-0.052920471876859665,0.07456371933221817
1700516552618673400,6.06467333984375,-0.018075140193104744,0.09226787835359573,-0.13721963763237
1700516552628683300,6.074683349609375,0.030101176351308823,0.058464907109737396,-0.01483220886439085
1700516552638694400,6.0846943359375,0.022971095517277718,0.037154026329517365,0.10086296498775482
1700516552648704300,6.094704345703125,0.007705590222030878,0.2256632149219513,0.4825322926044464
1700516552658714400,6.10471435546875,0.0463845431804657,-0.28540751338005066,0.0070091737434268
1700516552668724200,6.11472412109375,-0.050635214895009995,0.2773285508155823,-0.38597673177719116
1700516552678735400,6.1247353515625,0.017107613384723663,-0.007041930686682463,0.17439444363117218
1700516552688745200,6.1347451171875,0.023932762444019318,-0.007422762457281351,0.28148654103279114
1700516552698755300,6.14475537109375,0.005649363622069359,-0.025892850011587143,-0.20231661200523376
1700516552708766500,6.154766357421875,0.006238721311092377,0.04267369583249092,-0.1364252120256424
1700516552718776600,6.164776611328125,0.03482615575194359,-0.06590764224529266,-0.01056449394673109
1700516552728786200,6.1747861328125,0.010671818628907204,0.012291819788515568,0.3890361785888672
1700516552738797300,6.18479736328125,0.024276044219732285,-0.12234935164451599,-0.026760507375001907
1700516552748807400,6.194807373046875,-0.10457620769739151,0.033358488231897354,-0.22635696828365326
1700516552758817500,6.204817626953125,0.0634641945362091,0.19825848937034607,0.11859802156686783
1700516552768828400,6.214828369140625,0.0029353362042456865,-0.06173127517104149,0.3015500009059906
1700516552778838300,6.22483837890625,0.017831195145845413,0.09537605196237564,-0.005169728305190802
1700516552788848400,6.234848388671875,0.002689526416361332,0.07790891081094742,-0.13700231909751892
1700516552798859300,6.244859375,-0.16669870913028717,0.11606535315513611,0.43464547395706177
1700516552808869400,6.254869384765625,0.12674756348133087,-0.41737887263298035,0.04723915085196495
1700516552818879500,6.26487939453125,-0.1572924107313156,0.13561828434467316,-0.245894193649292
1700516552828889300,6.274889404296875,0.05873148888349533,-0.000180029688635841,0.09813588857650757
1700516552838900200,6.284900146484375,0.0028719529509544373,-0.11785925924777985,-0.159986212849617
1700516552848910300,6.294910400390625,-0.05053294822573662,-0.12031043320894241,0.003132942598313093
1700516552858920400,6.30492041015625,0.07930600643157959,0.28807705640792847,0.006679740734398365
1700516552868931300,6.314931396484375,0.05788407102227211,-0.6020445823669434,0.2798340320587158
1700516552878941200,6.324941162109375,-0.014780543744564056,0.3590758740901947,-0.5495182275772095
1700516552888951300,6.334951416015625,-0.07030665129423141,0.07912171632051468,0.3622514307498932
1700516552898962200,6.344962158203125,0.10960452258586884,-0.26557281613349915,-0.024538898840546608
1700516552908972300,6.35497216796875,-0.1361069679260254,0.071344755589962,-0.22604139149188995
1700516552918982100,6.364982177734375,0.023073093965649605,0.4600096642971039,0.1972893625497818
1700516552928993500,6.37499365234375,0.11512712389230728,-0.8286423087120056,0.2906416952610016
1700516552939003100,6.385003173828125,-0.10363291949033737,0.4786517918109894,-0.45350784063339233
1700516552949013200,6.39501318359375,0.12982217967510223,-0.2994208037853241,0.12780776619911194
1700516552959024400,6.4050244140625,-0.024717064574360847,0.00015180018090177327,-0.1828600913286209
1700516552969034500,6.415034423828125,-0.06327111274003983,-0.04493791237473488,-0.26676350831985474
1700516552979044400,6.42504443359375,0.08921562880277634,-0.12510599195957184,-0.08027779310941696
1700516552989054500,6.435054443359375,-0.021195033565163612,-0.08231138437986374,-0.46119797229766846
1700516552999065300,6.4450654296875,-0.12728925049304962,0.2040921449661255,-0.027699004858732224
1700516553009075500,6.455075439453125,0.06412545591592789,-0.3142703175544739,-0.08579427003860474
1700516553019085300,6.465085205078125,-0.0542677640914917,0.0878257229924202,-0.0687526986002922
1700516553029096400,6.475096435546875,-0.04223427176475525,-0.09492278099060059,0.30505338311195374
1700516553039106300,6.485106201171875,0.24314580857753754,-0.461038202047348,-0.3739776015281677
1700516553049116400,6.495116455078125,-0.015448731370270252,0.733798086643219,-0.3308016359806061
1700516553059127300,6.505127197265625,0.0021611552219837904,-0.49874722957611084,0.020555341616272926
1700516553069137400,6.515137451171875,0.05752907320857048,0.19974134862422943,-0.04592115432024002
1700516553079147300,6.525147216796875,-0.11144503206014633,0.2456425130367279,0.5580694079399109
1700516553089158400,6.535158447265625,0.12316187471151352,-0.6177934408187866,-0.03249455988407135
1700516553099168300,6.545168212890625,0.004511661361902952,0.6697146892547607,0.11103411018848419
1700516553109178400,6.555178466796875,0.04635658115148544,-0.45654863119125366,0.033003754913806915
1700516553119188200,6.565188232421875,-0.004899417515844107,0.27879247069358826,-0.14698705077171326
1700516553129199400,6.575199462890625,-0.03242345154285431,-0.02767024375498295,0.40874141454696655
1700516553139209200,6.585209228515625,0.11447065323591232,-0.5503779053688049,-0.18487638235092163
1700516553149219300,6.59521923828125,-0.0157155804336071,0.6004597544670105,0.1435909867286682
1700516553159230200,6.605230224609375,0.10654694586992264,-0.47973597049713135,-0.02797331102192402
1700516553169240300,6.615240234375,0.00589677132666111,0.11491753160953522,-0.40684446692466736
1700516553179250200,6.625250244140625,0.04398103803396225,0.05903775244951248,-0.2825011909008026
1700516553189261300,6.63526123046875,0.05486298352479935,-0.611490786075592,-0.5695276260375977
1700516553199271400,6.645271484375,0.010953315533697605,0.1905267983675003,-0.3624724745750427
1700516553209281500,6.655281494140625,0.023313311859965324,0.008046475239098072,0.2728451192378998
1700516553219291400,6.66529150390625,-0.06819956004619598,-0.45295095443725586,0.016320649534463882
1700516553229302500,6.675302490234375,-0.046787478029727936,0.5914883613586426,0.5405164957046509
1700516553239312400,6.6853125,-0.11194730550050735,-0.318969190120697,0.13121847808361053
1700516553249322500,6.695322509765625,-0.14669357240200043,-0.6503154635429382,-0.5147522687911987
1700516553259333400,6.70533349609375,-0.19248715043067932,0.27804866433143616,-0.5927256345748901
1700516553269343500,6.715343505859375,-0.06745494157075882,0.7155793905258179,0.4395046532154083
1700516553279353300,6.725353271484375,0.12664157152175903,-0.6606200337409973,0.8935368657112122
1700516553289364200,6.7353642578125,-0.019820842891931534,0.29131385684013367,0.557242751121521
1700516553299371500,6.74537158203125,-0.007610781583935022,0.40140387415885925,0.5059137940406799
1700516553309381400,6.75538134765625,-0.05620840936899185,-0.3225375711917877,-0.2779218852519989
1700516553319391500,6.7653916015625,-0.039809998124837875,-0.11009720712900162,-0.4751662611961365
1700516553329402400,6.77540234375,-0.004191016778349876,-0.34578457474708557,-0.7440254092216492
1700516553339412500,6.78541259765625,0.021080518141388893,0.4803812503814697,-0.5713865160942078
1700516553349422300,6.79542236328125,0.01312032900750637,-0.3112417757511139,0.07453548908233643
1700516553359433500,6.80543359375,-0.03202051669359207,0.2058221399784088,0.5200021862983704
1700516553369443300,6.815443359375,-0.03959215059876442,0.36537957191467285,0.6488999724388123
1700516553379453400,6.825453369140625,0.02797704003751278,-0.5465594530105591,0.1976662129163742
1700516553389464600,6.835464599609375,-0.011259312741458416,0.17851781845092773,-0.027215907350182533
1700516553399474700,6.845474609375,0.014991199597716331,-0.22182533144950867,-0.42868930101394653
1700516553409484500,6.855484619140625,0.026067286729812622,0.3881511986255646,-0.13139158487319946
1700516553419494700,6.86549462890625,0.11571035534143448,-0.42932525277137756,0.09064308553934097
1700516553429505500,6.875505615234375,-0.03154567629098892,0.3537895083427429,0.23936384916305542
1700516553439515600,6.885515625,-0.007421697489917278,0.02558205835521221,0.460335373878479
1700516553449525500,6.895525390625,-0.05120379850268364,-0.0009478190331719816,0.23956039547920227
1700516553459535600,6.90553564453125,-0.018550515174865723,0.23244602978229523,0.20075787603855133
1700516553469546500,6.91554638671875,0.10528514534235,-0.7094852924346924,-0.45052215456962585
1700516553479556600,6.925556640625,0.012072907760739326,0.42713695764541626,-0.831908106803894
1700516553489566500,6.93556640625,-0.026998594403266907,-0.10847347974777222,-0.43603670597076416
1700516553499577600,6.94557763671875,0.03867921978235245,0.06395234912633896,0.5392158031463623
1700516553509587500,6.95558740234375,0.04447904974222183,-0.18846897780895233,0.901470422744751
1700516553519597600,6.96559765625,-0.06905363500118256,0.13349014520645142,0.3195231258869171
1700516553529607400,6.975607421875,0.11072544753551483,0.12601785361766815,0.12124573439359665
1700516553539618600,6.98561865234375,-0.048228517174720764,-0.23493874073028564,-0.2803698778152466
1700516553549628400,6.99562841796875,0.02034362033009529,0.13657435774803162,-0.01082814671099186
1700516553559638500,7.005638427734375,0.05596845969557762,-0.16280941665172577,-0.12450437992811203
1700516553569649400,7.0156494140625,0.08256598562002182,0.5207625031471252,0.40407609939575195
1700516553579659500,7.025659423828125,0.08218834549188614,-0.26330435276031494,0.37698617577552795
1700516553589669400,7.03566943359375,0.04447558894753456,0.43649184703826904,0.3050837516784668
1700516553599679500,7.045679443359375,0.03026336431503296,-0.3143635392189026,-0.017055150121450424
1700516553609690400,7.0556904296875,-0.03639449179172516,0.29562658071517944,-0.0540350042283535
1700516553619700500,7.065700439453125,-0.08001014590263367,-0.17699581384658813,0.25638464093208313
1700516553629710300,7.07571044921875,-0.07582978159189224,0.18907298147678375,0.09207746386528015
1700516553639720400,7.085720458984375,0.12030111253261566,-0.557458758354187,-0.09577898681163788
1700516553649731300,7.0957314453125,-0.07651208341121674,0.07445026189088821,-0.5990349650382996
1700516553659741400,7.105741455078125,-0.023193202912807465,-0.1451079249382019,-0.38965854048728943
1700516553669751300,7.115751220703125,-0.05468162149190903,-0.190548375248909,-0.2989877760410309
1700516553679762700,7.1257626953125,0.12442581355571747,-0.02576315402984619,0.030963774770498276
1700516553689772500,7.1357724609375,0.10903913527727127,-0.3295765817165375,-0.29455867409706116
1700516553699782700,7.14578271484375,0.10121716558933258,0.38114869594573975,-0.20728793740272522
1700516553709792500,7.15579248046875,0.001564873498864472,-0.23895639181137085,-0.1471889168024063
1700516553719803600,7.1658037109375,0.05955946817994118,0.2793155312538147,0.0951736569404602
1700516553729813500,7.1758134765625,0.0844496339559555,-0.26514244079589844,0.04935423284769058
1700516553739823600,7.18582373046875,0.029575468972325325,0.34952816367149353,0.10427926480770111
1700516553749833500,7.19583349609375,-0.02618180215358734,-0.0704730972647667,0.1712431162595749
1700516553759844600,7.2058447265625,-0.014489460736513138,0.5341414213180542,0.3548544943332672
1700516553769854500,7.2158544921875,0.11336357891559601,-0.3370334208011627,0.19974081218242645
1700516553779864600,7.225864501953125,-0.02696317434310913,0.3272910416126251,0.049377936869859695
1700516553789874400,7.23587451171875,-0.05137903615832329,-0.08649095147848129,0.21852168440818787
1700516553799885600,7.245885498046875,0.009101352654397488,0.4694351255893707,0.2254650741815567
1700516553809895400,7.2558955078125,0.18455199897289276,-0.4347458779811859,0.0774732232093811
1700516553819905500,7.265905517578125,-0.007161772809922695,0.4676651954650879,-0.041734930127859116
1700516553829915600,7.27591552734375,0.01799018494784832,-0.2368175983428955,0.1028161272406578
1700516553839926500,7.285926513671875,-0.00711596617475152,0.5880107879638672,0.33008256554603577
1700516553849936400,7.295936279296875,0.19776873290538788,-0.6117368936538696,0.07434426993131638
1700516553859946500,7.305946533203125,-0.05882683023810387,0.4994438886642456,-0.0684666782617569
1700516553869956600,7.31595654296875,-0.05149861052632332,-0.27786198258399963,0.010120278224349022
1700516553879967500,7.325967529296875,-0.09311902523040771,0.24881353974342346,0.03021063283085823
1700516553889977300,7.335977294921875,0.15537573397159576,-0.5110779404640198,-0.44076380133628845
1700516553899987500,7.345987548828125,-0.05278278887271881,0.13789795339107513,-0.4340915381908417
1700516553909997600,7.35599755859375,-0.03575160726904869,-0.4288754463195801,-0.42790526151657104
1700516553920008400,7.366008544921875,-0.08941270411014557,-0.16358333826065063,-0.4944019913673401
1700516553930018300,7.376018310546875,0.025404158979654312,-0.27057477831840515,-0.44274652004241943
1700516553940028400,7.3860283203125,0.014307566918432713,-0.1305241882801056,-0.6324672102928162
1700516553950038500,7.39603857421875,0.05903109535574913,0.2807304561138153,0.22772397100925446
1700516553960049700,7.406049560546875,-0.034875959157943726,-0.13427045941352844,0.22772051393985748
1700516553970059500,7.4160595703125,0.014247379265725613,0.01188169326633215,0.25947150588035583
1700516553980069400,7.4260693359375,0.018317488953471184,0.7041163444519043,0.18898244202136993
1700516553990079500,7.43607958984375,-0.09143324196338654,-0.21537542343139648,0.341239869594574
1700516554000090600,7.446090576171875,0.050818704068660736,0.1235019639134407,0.5770598649978638
1700516554010100500,7.4561005859375,0.049375005066394806,0.17892500758171082,0.1444176286458969
1700516554020110600,7.466110595703125,0.18118417263031006,0.09482984244823456,0.18689104914665222
1700516554030120700,7.47612060546875,0.02159717120230198,0.1941838562488556,0.19670747220516205
1700516554040131600,7.486131591796875,0.21987643837928772,-0.44529783725738525,-0.06927334517240524
1700516554050141700,7.4961416015625,0.09691961854696274,0.40692993998527527,-0.33298274874687195
1700516554060151600,7.506151611328125,0.009672867134213448,-0.27865853905677795,0.03338592126965523
1700516554070161700,7.51616162109375,0.05161126330494881,0.4156685769557953,0.24381984770298004
1700516554080172500,7.526172607421875,0.22068843245506287,-0.2010662704706192,-0.05577777698636055
1700516554090182700,7.5361826171875,0.01571611315011978,0.4241294264793396,0.1760842204093933
1700516554100192500,7.546192626953125,-0.05133242905139923,-0.2314358800649643,0.24055615067481995
1700516554110202600,7.55620263671875,0.18704472482204437,-0.16561080515384674,0.28347352147102356
1700516554120212500,7.56621240234375,-0.0707324892282486,0.19475723803043365,-0.048948898911476135
1700516554130223600,7.5762236328125,0.012338425032794476,-0.056771669536828995,0.2907431423664093
1700516554140233500,7.5862333984375,-0.10327738523483276,0.1563560515642166,0.12036635726690292
1700516554150243600,7.59624365234375,0.12763093411922455,-0.32936298847198486,-0.05572904273867607
1700516554160253400,7.60625341796875,-0.04279540106654167,-0.03755536302924156,-0.43377700448036194
1700516554170264600,7.6162646484375,-0.06845948845148087,-0.2820005416870117,-0.38287654519081116
1700516554180274400,7.6262744140625,-0.14567597210407257,0.1054992601275444,-0.1758141666650772
1700516554190284500,7.636284423828125,0.003777960315346718,-0.5108619332313538,-0.5749894976615906
1700516554200294400,7.64629443359375,0.03825737535953522,-0.03695455566048622,-0.5111234784126282
1700516554210304500,7.656304443359375,-0.048958487808704376,-0.2547540068626404,-0.6785444021224976
1700516554220315400,7.6663154296875,0.10347126424312592,-0.08808218687772751,-0.25718680024147034
1700516554230325500,7.676325439453125,0.08241737633943558,0.16419453918933868,-0.165405735373497
1700516554240335400,7.68633544921875,0.16712906956672668,-0.025973277166485786,0.4583449363708496
1700516554250345500,7.696345458984375,-0.03839399293065071,0.4686894416809082,1.0703963041305542
1700516554260356400,7.7063564453125,0.1681610494852066,0.23585008084774017,0.5616359114646912
1700516554270366500,7.716366455078125,0.21627584099769592,0.3030046224594116,0.3815039396286011
1700516554280376300,7.726376220703125,-0.10228615999221802,0.03221119940280914,0.3593911826610565
1700516554290386400,7.736386474609375,0.1611417531967163,-0.12843334674835205,0.13652615249156952
1700516554300396500,7.746396484375,0.03382480889558792,0.07245342433452606,-0.517497181892395
1700516554310407400,7.756407470703125,-0.003138801548629999,-0.07252267003059387,-0.12605220079421997
1700516554320417300,7.766417236328125,-0.13616396486759186,0.2839193344116211,0.324046790599823
1700516554330427400,7.776427490234375,0.17681126296520233,-0.4873158633708954,-0.298348605632782
1700516554340437500,7.7864375,0.13577353954315186,0.31943419575691223,-0.32382655143737793
1700516554350447400,7.796447265625,-0.14772793650627136,-0.1393701434135437,0.048645567148923874
1700516554360458500,7.80645849609375,0.06346152722835541,-0.18989989161491394,0.0495917871594429
1700516554370468400,7.81646826171875,0.0378994457423687,0.15740400552749634,-0.18857604265213013
1700516554380478500,7.826478515625,0.017556356266140938,-0.018610702827572823,0.11850480735301971
1700516554390488300,7.83648828125,-0.000770452490542084,0.14305409789085388,0.35909345746040344
1700516554400499500,7.84649951171875,0.07827456295490265,0.0472245030105114,0.07462283968925476
1700516554410509300,7.85650927734375,0.0951097384095192,0.44334521889686584,0.4600174129009247
1700516554420519400,7.86651953125,-0.050742007791996,0.18066778779029846,0.40740159153938293
1700516554430529300,7.876529296875,0.22380007803440094,-0.23012001812458038,-0.03783286735415459
1700516554440539400,7.886539306640625,0.02762363851070404,0.25993064045906067,-0.19328397512435913
1700516554450549200,7.89654931640625,-0.06842672824859619,-0.25181466341018677,0.09329213201999664
1700516554460560400,7.906560302734375,0.12764397263526917,0.0770508423447609,-0.12623170018196106
1700516554470570200,7.9165703125,0.061828747391700745,-0.21782393753528595,-0.5590054988861084
1700516554480580400,7.926580322265625,0.05934241786599159,-0.03629995137453079,-0.2895178198814392
1700516554490590200,7.936590087890625,-0.15135996043682098,-0.10710088908672333,-0.0691729485988617
1700516554500600300,7.946600341796875,0.11438623070716858,-0.48920324444770813,-0.23178449273109436
1700516554510611200,7.956611083984375,0.13596582412719727,0.01986398547887802,-0.4273262917995453
1700516554520621300,7.966621337890625,0.05974908545613289,-0.12799471616744995,-0.41596391797065735
1700516554530631400,7.97663134765625,0.039752472192049026,0.15491794049739838,0.2862570583820343
1700516554540641300,7.986641357421875,0.0700501874089241,-0.3188256621360779,-0.12804478406906128
1700516554550651400,7.9966513671875,0.09811724722385406,0.3575834333896637,0.19468505680561066
1700516554560662300,8.006662353515624,-0.07254903763532639,0.4762224555015564,0.5586049556732178
1700516554570672400,8.01667236328125,0.03459179773926735,0.08803345263004303,0.26223695278167725
1700516554580682200,8.02668212890625,0.12000443786382675,0.43675121665000916,0.28567302227020264
1700516554590692400,8.0366923828125,-0.030007965862751007,0.15672090649604797,0.6345759034156799
1700516554600702200,8.0467021484375,0.16930913925170898,-0.2796071469783783,0.37756434082984924
1700516554610713600,8.056713623046875,0.022727150470018387,0.4220593571662903,-0.4453931748867035
1700516554620723500,8.066723388671875,-0.05380943417549133,-0.3325294852256775,-0.2409028857946396
1700516554630733600,8.076733642578125,0.06991863250732422,0.13528165221214294,-0.18121746182441711
1700516554640743400,8.086743408203125,0.10054498165845871,-0.12257172167301178,-0.4440954327583313
1700516554650753500,8.09675341796875,0.1252005249261856,0.12621626257896423,-0.10620739310979843
1700516554660763400,8.106763427734375,-0.036792367696762085,-0.19642730057239532,-0.31863176822662354
1700516554670774500,8.1167744140625,0.1495460867881775,-0.2687678039073944,-0.550512433052063
1700516554680784400,8.126784423828125,0.160194993019104,0.12450198084115982,-0.24350586533546448
1700516554690794500,8.13679443359375,0.09829887002706528,-0.02220303937792778,0.382033109664917
1700516554700804400,8.146804443359375,0.003861050819978118,0.3720875382423401,0.8447674512863159
1700516554710814500,8.156814453125,0.047377634793519974,0.15783916413784027,0.187616765499115
1700516554720825300,8.166825439453126,-0.018748387694358826,0.154403418302536,0.14780810475349426
1700516554730835500,8.17683544921875,-0.058166101574897766,0.1462794542312622,0.15449316799640656
1700516554740845600,8.186845458984376,0.07437782734632492,-0.2673773765563965,-0.27411118149757385
1700516554750855400,8.19685546875,0.01344843115657568,0.14271454513072968,-0.20476379990577698
1700516554760865500,8.206865478515626,-0.11697722226381302,-0.22722703218460083,0.05326641723513603
1700516554770875400,8.21687548828125,0.11157312989234924,-0.20842909812927246,-0.2864448130130768
1700516554780886500,8.226886474609374,0.008523447439074516,-0.12358266115188599,-0.8570204377174377
1700516554790896400,8.236896484375,0.04249739274382591,-0.09351556748151779,-0.26285746693611145
1700516554800906500,8.246906494140624,-0.04820534586906433,0.12377334386110306,0.2932262718677521
1700516554810916400,8.256916259765624,0.03682965412735939,-0.36752554774284363,-0.24726252257823944
1700516554820926500,8.266926513671875,0.10132075846195221,0.3083208203315735,-0.07780051976442337
1700516554830936300,8.276936279296875,-0.01233336515724659,-0.017001885920763016,-0.06821021437644958
1700516554840947500,8.286947509765625,0.014371216297149658,0.030175745487213135,0.027271835133433342
1700516554850957300,8.296957275390625,0.03081490471959114,-0.4891984462738037,-0.7812092900276184
1700516554860967400,8.306967529296875,-0.07022329419851303,0.20396697521209717,-0.48264575004577637
1700516554870977300,8.316977294921875,-0.08526696264743805,0.108377605676651,-0.4022054970264435
1700516554880987400,8.3269873046875,0.002843723399564624,-0.3712236285209656,-0.4298882484436035
1700516554890997500,8.33699755859375,0.08984439820051193,0.4588586688041687,0.47016245126724243
1700516554901008400,8.34700830078125,-0.0013989584986120462,0.008773251436650753,0.992621123790741
1700516554911018500,8.3570185546875,0.010192982852458954,-0.004448011517524719,0.5507630109786987
1700516554921028400,8.3670283203125,0.12093840539455414,0.6295260190963745,0.41233137249946594
1700516554931038500,8.37703857421875,0.08235479146242142,0.10783831775188446,0.7478010058403015
1700516554941048300,8.38704833984375,0.1407182365655899,0.18074022233486176,1.0225145816802979
1700516554951058400,8.397058349609376,0.10275620222091675,0.3331010043621063,0.282429039478302
1700516554961068300,8.407068359375,-0.06913699209690094,-0.20977745950222015,0.12125185877084732
1700516554971079400,8.417079345703126,-0.1504233330488205,0.32312241196632385,0.09349719434976578
1700516554981089300,8.42708935546875,0.16054441034793854,-0.44933706521987915,-0.45574650168418884
1700516554991099400,8.437099365234374,0.01679389365017414,-0.19764170050621033,-0.18138843774795532
1700516555001109200,8.447109130859374,-0.005334311630576849,-0.20223724842071533,-0.26263535022735596
1700516555011119400,8.457119384765624,0.22018137574195862,-0.4042774438858032,-0.32707640528678894
1700516555021129500,8.46712939453125,0.027000991627573967,0.21893367171287537,-0.286241352558136
1700516555031140400,8.477140380859375,0.07067816704511642,-0.38075506687164307,0.04806819185614586
1700516555041150200,8.487150146484375,0.10876882076263428,0.3312098979949951,0.17026999592781067
1700516555051160300,8.497160400390625,0.06561975926160812,0.13920742273330688,-0.2786140441894531
1700516555061170400,8.50717041015625,0.06843738257884979,0.10015669465065002,-0.09437364339828491
1700516555071180300,8.51718017578125,-0.05090206116437912,-0.04721997678279877,-0.024759940803050995
1700516555081190400,8.5271904296875,0.0696650967001915,-0.2550725042819977,-0.36685869097709656
1700516555091200300,8.5372001953125,-0.0933816134929657,-0.12384311854839325,-0.5425522327423096
1700516555101211400,8.54721142578125,-0.06580378115177155,-0.3487510681152344,-0.45118582248687744
1700516555111221200,8.55722119140625,-0.1089392676949501,0.015537148341536522,0.14781449735164642
1700516555121231400,8.5672314453125,0.06103379279375076,-0.6554319262504578,-0.4706261157989502
1700516555131241200,8.5772412109375,0.03032142110168934,0.6011457443237305,-0.043063048273324966
1700516555141251300,8.587251220703125,-0.05423634126782417,0.3835636377334595,0.6142719388008118
1700516555151261400,8.597261474609375,0.027846544981002808,-0.17877347767353058,0.7852178812026978
1700516555161271300,8.607271240234375,0.12700535356998444,0.6106977462768555,0.7398934960365295
1700516555171282200,8.6172822265625,0.12961445748806,0.12365563213825226,0.8887684941291809
1700516555181292300,8.627292236328126,0.24532000720500946,-0.33270204067230225,0.5141437649726868
1700516555191302400,8.637302490234376,0.04466121271252632,0.7377027869224548,-0.2612625062465668
1700516555201312300,8.647312255859376,-0.08586616814136505,-0.4583771526813507,0.40625083446502686
1700516555211322400,8.657322265625,0.051479700952768326,0.16862070560455322,0.32214847207069397
1700516555221332200,8.667332275390624,0.04873637855052948,-0.004502872936427593,-0.3142916262149811
1700516555231342300,8.67734228515625,0.014120079576969147,-0.10524173080921173,0.11065061390399933
1700516555241353200,8.687353271484374,-0.005419266410171986,0.224282369017601,-0.19262218475341797
1700516555251363300,8.69736328125,0.2796177864074707,-0.6697019338607788,-0.5075052976608276
1700516555261373200,8.707373291015625,-0.06865575909614563,0.13549843430519104,-0.5419831275939941
1700516555271383300,8.71738330078125,-0.014301707968115807,-0.6074175238609314,-0.13609765470027924
1700516555281393400,8.727393310546875,0.061882007867097855,0.11010626703500748,0.006996124051511288
1700516555291403300,8.7374033203125,-0.002654372714459896,-0.14949947595596313,-0.062440741807222366
1700516555301417500,8.74741748046875,-0.08277025073766708,-0.1232718676328659,0.47207218408584595
1700516555311427300,8.75742724609375,-0.27307334542274475,0.14087669551372528,0.3625968396663666
1700516555321438200,8.767438232421876,-0.09617873281240463,-0.46728596091270447,-0.02738049067556858
1700516555331448300,8.7774482421875,-0.09578564763069153,0.1517421305179596,-0.06258828192949295
1700516555341458400,8.78745849609375,-0.14814792573451996,-0.3272111415863037,0.1322198212146759
1700516555351468300,8.79746826171875,-0.13878105580806732,0.04121614620089531,0.42326125502586365
1700516555361478400,8.807478515625,0.02412850596010685,0.43564948439598083,-2.414824962615967
1700516555371488300,8.81748828125,-0.2218274623155594,-0.6015776991844177,0.229606032371521
1700516555381498400,8.827498291015624,-0.1738884449005127,0.8099682331085205,0.94076007604599
1700516555391508200,8.83750830078125,-0.1896681934595108,-0.769666314125061,0.5978993773460388
1700516555401519400,8.847519287109375,-0.04747963324189186,0.06083432212471962,-0.08920124918222427
1700516555411529200,8.857529296875,-0.08383231610059738,-0.10276073217391968,-0.6726417541503906
1700516555421539300,8.867539306640625,-0.0466279573738575,-0.054962318390607834,-0.5128414630889893
1700516555431549200,8.877549072265625,-0.023316241800785065,-0.042690739035606384,-0.4621564447879791
1700516555441559300,8.887559326171875,0.040076844394207,0.05335376784205437,-0.29223158955574036
1700516555451569400,8.8975693359375,-0.06527434289455414,0.042280878871679306,0.2822839021682739
1700516555461579300,8.907579345703125,-0.02973073162138462,-0.1337687224149704,-0.15655551850795746
1700516555471589400,8.91758935546875,0.07678026705980301,0.32979413866996765,-0.03929733857512474
1700516555481600300,8.927600341796875,-0.04863224923610687,-0.16477377712726593,0.2078235000371933
1700516555491610400,8.9376103515625,-0.025714950636029243,0.15622875094413757,0.1767212450504303
1700516555501620200,8.9476201171875,-0.06226417422294617,0.19072574377059937,0.10330774635076523
1700516555511630300,8.95763037109375,-0.038238998502492905,-0.22795993089675903,0.43201905488967896
1700516555521640200,8.96764013671875,-0.14234915375709534,0.397194504737854,0.28817880153656006
1700516555531650300,8.977650390625,-0.008025968447327614,-0.12620587646961212,-0.06741072982549667
1700516555541660400,8.987660400390626,0.02196149155497551,0.2779197692871094,0.17483413219451904
1700516555551670300,8.997670166015626,-0.1306309849023819,0.11150895059108734,0.2041454166173935
1700516555561680400,9.007680419921876,0.03676120936870575,-0.1698785126209259,0.15989166498184204
1700516555571691300,9.017691162109376,-0.0463150329887867,0.14575479924678802,-0.168075293302536
1700516555581701400,9.027701416015624,-0.08933653682470322,-0.4255467653274536,-0.301745742559433
1700516555591711200,9.037711181640624,-0.03358246013522148,0.21270853281021118,-0.37023425102233887
1700516555601721300,9.047721435546874,-0.05428747460246086,-0.2105492502450943,-0.4726564884185791
1700516555611731200,9.057731201171874,0.0931757465004921,0.0745682418346405,-0.1694159209728241
1700516555621741300,9.0677412109375,-0.12340955436229706,0.1611207127571106,0.12106090784072876
1700516555631751400,9.07775146484375,0.045648977160453796,-0.29769718647003174,-0.17979666590690613
1700516555641761300,9.08776123046875,0.04456933215260506,0.4540146291255951,-0.44099125266075134
1700516555651771400,9.097771484375,-0.010424677282571793,-0.2946161925792694,-0.06181463226675987
1700516555661782300,9.1077822265625,-0.1102394238114357,0.13870835304260254,0.1417163908481598
1700516555671792400,9.11779248046875,-0.008677111007273197,0.14927950501441956,-0.3503449559211731
1700516555681802200,9.12780224609375,0.11286663264036179,0.3303565979003906,0.18898643553256989
1700516555691812400,9.137812255859375,-0.12365642935037613,0.14284344017505646,0.35584625601768494
1700516555701822200,9.147822265625,-0.01200047042220831,-0.2605178654193878,-0.15869882702827454
1700516555711832300,9.157832275390625,0.013368269428610802,0.40599119663238525,-0.2849411964416504
1700516555721842200,9.16784228515625,-0.09287028759717941,-0.47642725706100464,-0.000993625377304852
1700516555731852300,9.177852294921875,-0.06374195963144302,0.010578075423836708,0.04911614581942558
1700516555741862400,9.1878623046875,-0.06477367132902145,-0.03759957477450371,-0.007151652593165636
1700516555751873300,9.197873291015625,-0.03297632560133934,-0.1995573192834854,0.12896651029586792
1700516555761883100,9.207883056640625,-0.14888082444667816,0.22486427426338196,0.08205678313970566
1700516555771893200,9.217893310546875,0.06460509449243546,-0.2193422019481659,0.08764143288135529
1700516555781903400,9.2279033203125,0.04368409886956215,0.46495115756988525,0.2151557207107544
1700516555791913200,9.237913330078126,-0.11520116031169891,0.00256462418474257,0.5713255405426025
1700516555801923300,9.24792333984375,0.11941507458686829,0.017829330638051033,0.5769237875938416
1700516555811933200,9.25793310546875,-0.026166623458266258,0.5392658710479736,0.05657326430082321
1700516555821943300,9.267943359375,-0.008262990042567253,-0.2508969306945801,0.3858225345611572
1700516555831953400,9.277953369140626,-0.12179434299468994,0.2335565686225891,0.35858291387557983
1700516555841963300,9.28796337890625,0.05711095780134201,-0.1380356401205063,-0.25890877842903137
1700516555851974100,9.29797412109375,-0.06046866998076439,0.03663870319724083,0.04205770418047905
1700516555861984300,9.307984375,-0.12454325705766678,-0.12136584520339966,0.019102854654192924
1700516555871994400,9.317994384765624,0.07387635111808777,-0.5700573325157166,-0.22641396522521973
1700516555882004200,9.328004150390624,-0.07289737462997437,0.008437959477305412,-0.5193939208984375
1700516555892014300,9.338014404296874,0.12686660885810852,-0.45310357213020325,-0.7279641628265381
1700516555902024200,9.348024169921874,-0.13445208966732025,-0.06846427917480469,-0.437063068151474
1700516555912034300,9.358034423828125,-0.009969810023903847,-0.30506590008735657,-0.5132611989974976
1700516555922044200,9.368044189453125,0.24218013882637024,0.45652997493743896,0.07272213697433472
1700516555932054300,9.37805419921875,0.06763843446969986,0.26062095165252686,0.9050542712211609
1700516555942064400,9.388064453125,0.152627632021904,0.11032384634017944,0.9686614274978638
1700516555952074200,9.39807421875,0.020259466022253036,0.49423980712890625,0.4726889729499817
1700516555962085000,9.408085205078125,-0.1187753826379776,-0.2142912596464157,0.4964672923088074
1700516555972095200,9.41809521484375,-0.06442958861589432,0.15982934832572937,0.21228429675102234
1700516555982105300,9.428105224609375,0.005902630276978016,0.31824296712875366,-0.1856960952281952
1700516555992115200,9.438115234375,0.05215481296181679,-0.1392340511083603,0.3874097764492035
1700516556002125300,9.448125244140625,-0.06881794333457947,0.5320851802825928,0.3536539375782013
1700516556012135200,9.45813525390625,0.06584931910037994,-0.1827429234981537,0.22662276029586792
1700516556022145300,9.468145263671875,0.09584157168865204,0.17916709184646606,0.023920247331261635
1700516556032155400,9.4781552734375,-0.05523182824254036,0.056172993034124374,-0.16906411945819855
1700516556042165200,9.488165283203125,0.11833836138248444,-0.17737877368927002,0.07823115587234497
1700516556052175400,9.49817529296875,0.04965516924858093,0.38639405369758606,-0.2915263772010803
1700516556062185200,9.508185302734375,0.0482756532728672,-0.2551843523979187,-0.031388282775878906
1700516556072195300,9.5181953125,-0.05718392878770828,0.2600126564502716,-0.23655475676059723
1700516556082206200,9.528206298828126,0.15966875851154327,-0.9414942860603333,-1.0169552564620972
1700516556092216300,9.53821630859375,-0.015109444037079811,0.1692468225955963,-0.9510307908058167
1700516556102226200,9.54822607421875,-0.0676669254899025,-0.4876559376716614,-0.9853472113609314
1700516556112236300,9.558236328125,-0.06748875975608826,-0.3365090489387512,-0.5506160259246826
1700516556122246100,9.56824609375,-0.09085693210363388,-0.3430529534816742,-1.0637328624725342
1700516556132256300,9.57825634765625,0.2143104374408722,0.18038655817508698,-0.1156805232167244
1700516556142266400,9.588266357421874,0.06240372359752655,0.5158873200416565,0.6123603582382202
1700516556152276200,9.598276123046874,-0.05950913205742836,-0.10356687009334564,0.42077866196632385
1700516556162286300,9.608286376953124,0.0319502092897892,0.7905660271644592,0.6196555495262146
1700516556172296200,9.618296142578124,-0.030243389308452606,0.26829057931900024,0.8707258105278015
1700516556182306300,9.628306396484374,0.1067887619137764,0.013313674367964268,0.7945245504379272
1700516556192316400,9.63831640625,-0.010009757243096828,0.6827543377876282,0.058027349412441254
1700516556202326300,9.648326171875,0.004142014309763908,-0.45052456855773926,0.3368363380432129
1700516556212337200,9.658337158203125,-0.09656116366386414,0.36981213092803955,0.27118223905563354
1700516556222347300,9.66834716796875,0.04218873381614685,-0.3178655803203583,-0.09595395624637604
1700516556232357400,9.678357421875,0.11810427159070969,0.0007448861724697053,0.13684040307998657
1700516556242367200,9.6883671875,-0.05136625096201897,0.011018030345439911,-0.01384071446955204
1700516556252377300,9.69837744140625,0.12843626737594604,-0.7214964032173157,-0.14660941064357758
1700516556262387200,9.70838720703125,0.0014439659425988793,0.5997204184532166,-0.75113445520401
1700516556272397300,9.718397216796875,0.07762528955936432,-0.21676160395145416,-0.43369337916374207
1700516556282407200,9.7284072265625,-0.08147168904542923,0.19101496040821075,-0.2660931944847107
1700516556292417300,9.738417236328125,0.021567875519394875,-0.17632655799388885,-0.8669074177742004
1700516556302427000,9.748427001953125,0.046895869076251984,0.25815272331237793,-0.4908999502658844
1700516556312436700,9.758436767578125,-0.03675534948706627,-0.2526141405105591,-0.3364531099796295
1700516556322446800,9.76844677734375,-0.023439545184373856,0.06981290131807327,-0.2310289591550827
1700516556332456700,9.778456787109375,-0.1077650785446167,0.003576092654839158,-0.22848670184612274
1700516556342466800,9.788466796875,0.08013185113668442,-0.22979751229286194,-0.19207942485809326
1700516556352477000,9.798476806640625,-0.12135705351829529,0.4474360942840576,0.15831507742404938
1700516556362487800,9.80848779296875,0.07596533745527267,-0.33224985003471375,-0.4424450695514679
1700516556372498000,9.818497802734376,0.050098586827516556,0.4730874001979828,-0.018861304968595505
1700516556382507800,9.8285078125,0.04946102574467659,0.2757303714752197,0.37388303875923157
1700516556392518000,9.838517822265626,0.1654914915561676,0.13390666246414185,0.35036414861679077
1700516556402527700,9.84852783203125,0.07875899225473404,0.6219386458396912,0.2918771207332611
1700516556412537900,9.858537841796876,0.11698387563228607,-0.08459105342626572,0.44090601801872253
1700516556422547700,9.868547607421876,0.07422363013029099,0.3285309970378876,0.6933428049087524
1700516556432557800,9.878557861328124,0.1370294839143753,0.10020862519741058,0.19908007979393005
1700516556442568000,9.88856787109375,0.0674368292093277,-0.17639660835266113,0.42314833402633667
1700516556452577800,9.898577880859374,-0.051890093833208084,0.538640558719635,0.1989181637763977
1700516556462588000,9.908587890625,0.21063633263111115,-0.4586658477783203,0.009423329494893551
1700516556472597800,9.91859765625,-0.023997211828827858,0.3476618230342865,-0.1475907862186432
1700516556482607900,9.92860791015625,-0.05916371941566467,-0.4015389084815979,-0.08002746105194092
1700516556492617700,9.93861767578125,0.05360330641269684,0.04868977516889572,-0.198225200176239
1700516556502627800,9.9486279296875,-0.1047530472278595,-0.22235211730003357,-0.5682493448257446
1700516556512638000,9.958637939453125,0.04512353613972664,0.00941986683756113,-0.43328857421875
1700516556522647800,9.968647705078125,-0.07371789962053299,-0.08314947783946991,-0.34876278042793274
1700516556532658000,9.978657958984375,-0.02082698419690132,-0.2920704782009125,-0.2649432420730591
1700516556542668800,9.988668701171875,0.016517192125320435,0.28937774896621704,-0.34885305166244507
1700516556552679000,9.998678955078125,-0.0005914880894124508,-0.2397630661725998,0.2653997242450714
1700516556562688800,10.008688720703125,0.004840028937906027,0.24999092519283295,0.6646605730056763
1700516556572699000,10.018698974609375,0.07229949533939362,0.10387766361236572,0.43757760524749756
1700516556582708700,10.028708740234375,0.08999194204807281,0.21684150397777557,0.6826313138008118
1700516556592718800,10.03871875,-0.02039102464914322,0.26778003573417664,0.5955147743225098
1700516556602729000,10.04872900390625,0.1208297461271286,-0.14659130573272705,0.07985594868659973
1700516556612738800,10.05873876953125,0.054969776421785355,0.4563419818878174,-0.045160554349422455
1700516556622749000,10.0687490234375,-0.05174814909696579,-0.11478224396705627,0.15421566367149353
1700516556632758800,10.0787587890625,0.22504962980747223,-0.3761187791824341,0.026697658002376556
1700516556642769000,10.088768798828125,-0.01531717088073492,0.573606014251709,-0.38497963547706604
1700516556652778800,10.09877880859375,0.014946725219488144,-0.3638168275356293,0.07058282196521759
1700516556662788900,10.108788818359375,-0.02496500499546528,0.41140246391296387,0.2670340836048126
1700516556672799000,10.118799072265626,0.0810098946094513,-0.017772339284420013,0.15709641575813293
1700516556682808800,10.128808837890626,0.05571359768509865,0.1897406429052353,0.2965749502182007
1700516556692819000,10.13881884765625,-0.05159208923578262,0.06872260570526123,0.09344206750392914
1700516556702828800,10.148828857421876,0.07225102931261063,-0.39285513758659363,0.11619717627763748
1700516556712839000,10.1588388671875,-0.025111211463809013,0.36346954107284546,-0.029619943350553513
1700516556722848800,10.168848876953126,-0.005886651109904051,-0.39156538248062134,0.22061945497989655
1700516556732859000,10.17885888671875,-0.0075998627580702305,0.20647993683815002,0.01961391419172287
1700516556742869000,10.188868896484376,-0.05897676572203636,-0.13963033258914948,-0.36990028619766235
1700516556752878800,10.19887890625,0.0718451589345932,-0.031496673822402954,-0.2914896309375763
1700516556762890000,10.208889892578124,-0.07495413720607758,-0.28575530648231506,-0.6287222504615784
1700516556772899800,10.21889990234375,0.06250838190317154,-0.4796110689640045,-0.8969030976295471
1700516556782910000,10.228909912109375,-0.01594594307243824,-0.32316020131111145,-1.4180296659469604
1700516556792919800,10.238919921875,0.04472166672348976,0.3492077887058258,-0.8780343532562256
1700516556802930000,10.248929931640625,0.020868264138698578,0.13306191563606262,-0.04574698209762573
1700516556812939800,10.258939697265625,-0.01510092243552208,-0.3781992197036743,-0.27390798926353455
1700516556822950000,10.268949951171875,0.02918371744453907,0.43424198031425476,0.08100590109825134
1700516556832960000,10.2789599609375,-0.003948935307562351,-0.007811317685991526,0.22416652739048004
1700516556842969900,10.288969970703125,-0.06322664022445679,0.04710838943719864,0.520781934261322
1700516556852980000,10.29897998046875,-0.05645395442843437,0.41360941529273987,0.4336489140987396
1700516556862989800,10.30898974609375,-0.0332876481115818,-0.13895229995250702,0.9270942807197571
1700516556873000000,10.319,-0.10768784582614899,0.2327703982591629,0.9837834239006042
1700516556883009800,10.329009765625,0.01762613095343113,-0.1382196545600891,0.19429118931293488
1700516556893020000,10.33902001953125,0.07269417494535446,0.2856389284133911,0.11713647842407227
1700516556903030000,10.349030029296875,-0.07454374432563782,0.26048538088798523,0.10962662845849991
1700516556913040000,10.359039794921875,0.05882842838764191,-0.3938485085964203,-0.0037848844658583403
1700516556923050000,10.369050048828125,0.0790330320596695,0.4252738058567047,-0.06539418548345566
1700516556933059800,10.379059814453125,-0.009079781360924244,-0.4371091425418854,0.27806544303894043
1700516556943070000,10.389070068359375,0.1263587325811386,0.1996702402830124,0.061959508806467056
1700516556953080000,10.399080078125,0.06501175463199615,0.1385118067264557,-0.23463967442512512
1700516556963090000,10.40908984375,0.02966095693409443,0.1389901041984558,-0.0998629480600357
1700516556973100000,10.41910009765625,-0.032890837639570236,0.2103833258152008,0.001067661214619875
1700516556983110000,10.42910986328125,0.05074360594153404,-0.42880940437316895,-0.11229032278060913
1700516556993120000,10.4391201171875,-0.037339117377996445,0.25683364272117615,-0.4227699041366577
1700516557003129900,10.4491298828125,-0.019644808024168015,-0.4175945818424225,-0.29857897758483887
1700516557013140000,10.459139892578126,-0.006109557580202818,0.23302100598812103,-0.09366630762815475
1700516557023150000,10.469150146484376,-0.06332065165042877,-0.11336570978164673,-0.21229735016822815
1700516557033160000,10.479159912109376,0.02774534374475479,0.1283169537782669,0.11442697793245316
1700516557043170000,10.489170166015626,-0.05216386914253235,0.23875132203102112,0.29949721693992615
1700516557053180000,10.499179931640626,0.03297792375087738,-0.10553814470767975,0.045274537056684494
1700516557063190000,10.50918994140625,0.0887375921010971,0.45586153864860535,-0.13453809916973114
1700516557073199900,10.519199951171874,0.0013632721966132522,-0.15051068365573883,0.3848035931587219
1700516557083210000,10.5292099609375,0.15369156002998352,0.2630670368671417,0.510097324848175
1700516557093220000,10.53922021484375,0.08989953249692917,0.11269538849592209,0.4193195104598999
1700516557103230000,10.54922998046875,0.15775926411151886,-0.024470722302794456,0.3247794210910797
1700516557113240000,10.559239990234374,-0.03075205348432064,0.5427737832069397,0.31418296694755554
1700516557123251000,10.5692509765625,0.16367575526237488,-0.42282235622406006,-0.10023605823516846
1700516557133261000,10.579260986328125,-0.0035228293854743242,0.39072301983833313,-0.06095682829618454
1700516557143271000,10.58927099609375,-0.0265373345464468,-0.3690249025821686,-0.13507312536239624
1700516557153281000,10.599281005859375,0.13760820031166077,-0.13495701551437378,-0.2612566351890564
1700516557163291000,10.609290771484375,-0.0830160602927208,-0.11320671439170837,-0.4459737539291382
1700516557173301000,10.619301025390625,-0.08248662203550339,-0.22253160178661346,-0.31542345881462097
1700516557183311000,10.62931103515625,-0.16309304535388947,0.035710059106349945,-0.2820205092430115
1700516557193321000,10.639321044921875,-0.06806454062461853,-0.261626273393631,-0.5522953867912292
1700516557203331000,10.6493310546875,0.015172028914093971,0.2553388178348541,-0.1735115945339203
1700516557213341000,10.6593408203125,-0.03092169761657715,-0.3357159495353699,0.10001847892999649
1700516557223351000,10.66935107421875,-0.0691058337688446,0.12111151218414307,0.1350555568933487
1700516557233361000,10.67936083984375,-0.06889011710882187,0.08537961542606354,-0.31173551082611084
1700516557243370800,10.689370849609375,0.038117557764053345,-0.11244931071996689,-0.010261425748467445
1700516557253380900,10.699380859375,-0.2181539088487625,0.2575114369392395,0.2278941422700882
1700516557263390700,10.709390625,0.0903000682592392,-0.3460460901260376,-0.21151331067085266
1700516557273400800,10.71940087890625,0.07223930954933167,0.4339841902256012,-0.29080867767333984
1700516557283410700,10.72941064453125,0.06193101033568382,-0.5753085613250732,-0.27316710352897644
1700516557293420800,10.7394208984375,0.007282946724444628,-0.17617502808570862,-0.3201814591884613
1700516557303431000,10.749430908203125,0.022963106632232666,-0.2013152688741684,-0.7329599857330322
1700516557313441000,10.75944091796875,0.057552773505449295,0.4580368101596832,-0.5507773756980896
1700516557323451100,10.769451171875,-0.04266357421875,0.16701242327690125,-0.01625007577240467
1700516557333461000,10.7794609375,0.1012086421251297,-0.44182509183883667,0.08903054147958755
1700516557343471000,10.78947119140625,0.02570536360144615,0.3080340027809143,-0.18842236697673798
1700516557353481000,10.79948095703125,-0.021579593420028687,-0.07974303513765335,-0.15390807390213013
1700516557363491000,10.809490966796876,-0.03466716781258583,0.07943437248468399,0.2462148368358612
1700516557373501200,10.819501220703126,0.06660112738609314,0.10645347088575363,0.08565471321344376
1700516557383511000,10.829510986328126,0.018759040161967278,-0.08422166854143143,0.5259473919868469
1700516557393521200,10.839521240234374,0.014730743132531643,0.11282561719417572,0.670282244682312
1700516557403531000,10.849531005859374,0.20521999895572662,0.04054982215166092,0.2069217562675476
1700516557413541000,10.859541015625,0.1671208143234253,0.5574952363967896,0.37791773676872253
1700516557423551000,10.869551025390624,0.020505808293819427,0.0832967534661293,0.5374807715415955
1700516557433561000,10.87956103515625,0.13391812145709991,-0.005667206831276417,0.5752276182174683
1700516557443571200,10.8895712890625,0.21548648178577423,0.23039644956588745,0.11435240507125854
1700516557453581000,10.8995810546875,0.06435129046440125,-0.28408870100975037,0.20529723167419434
1700516557463591200,10.909591064453124,0.13516899943351746,0.24131141602993011,-0.2602590024471283
1700516557473601000,10.91960107421875,0.04037937894463539,-0.285013884305954,-0.4697038531303406
1700516557483611100,10.929611083984375,0.04249259829521179,0.05892403796315193,-0.2904800474643707
1700516557493621000,10.93962109375,-0.14007827639579773,-0.34335070848464966,-0.21249336004257202
1700516557503631000,10.949631103515625,-0.04933638870716095,-0.4446648061275482,-0.3537311851978302
1700516557513641200,10.95964111328125,-0.015739016234874725,-0.3674009144306183,-0.7747372388839722
1700516557523651000,10.969651123046875,-0.07615815103054047,-0.07245209813117981,-0.49600815773010254
1700516557533661200,10.9796611328125,-0.1044561043381691,0.21677730977535248,-0.38270342350006104
1700516557543671000,10.989671142578125,0.026105370372533798,-0.29713499546051025,-0.3010871410369873
1700516557553681200,10.99968115234375,0.07735950499773026,0.5696203112602234,0.43484386801719666
1700516557563691300,11.009691162109375,-0.0299078319221735,0.1456964761018753,0.7569444179534912
1700516557573701000,11.019701171875,-0.008810269646346569,-0.20944350957870483,0.4060244858264923
1700516557583711200,11.029711181640625,0.08293350040912628,0.6231120228767395,0.13394474983215332
1700516557593721000,11.03972119140625,-0.09079195559024811,-0.3546004295349121,0.33884143829345703
1700516557603731200,11.049731201171875,0.03248470649123192,0.0399431549012661,0.3419826328754425
1700516557613741000,11.059740966796875,0.10890357941389084,-0.08762625604867935,-0.08631757646799088
1700516557623751200,11.069751220703125,-0.021093301475048065,-0.07323213666677475,0.1307140737771988
1700516557633761300,11.07976123046875,0.027893150225281715,-0.02221289463341236,-0.05880392715334892
1700516557643771100,11.089771240234375,0.1060531958937645,-0.39723870158195496,-0.3524928092956543
1700516557653781200,11.09978125,0.008481902070343494,-0.08473246544599533,-0.6460674405097961
1700516557663791000,11.109791015625,-0.06057572737336159,-0.37909671664237976,-0.6592916250228882
1700516557673801200,11.11980126953125,-0.08576523512601852,0.019508453086018562,-0.26192161440849304
1700516557683811000,11.12981103515625,-0.011988219805061817,-0.3958674371242523,-0.4417742192745209
1700516557693821200,11.1398212890625,-0.06673348695039749,0.3380848467350006,-0.6508541703224182
1700516557703831300,11.149831298828126,-0.1256101280450821,-0.161669060587883,-0.4464488625526428
1700516557713841200,11.159841064453126,-0.13736531138420105,-0.13016200065612793,-0.19328956305980682
1700516557723851300,11.169851318359376,-0.08139578998088837,0.15280845761299133,0.061169080436229706
1700516557733861000,11.179861083984376,-0.006353503558784723,-0.2943432033061981,0.24768783152103424
1700516557743871200,11.189871337890626,-0.049489520490169525,-0.12411102652549744,0.1573725789785385
1700516557753881300,11.19988134765625,-0.055515456944704056,-0.17449058592319489,-0.05023866891860962
1700516557763891200,11.20989111328125,0.039378032088279724,0.32730036973953247,-0.11859748512506485
1700516557773901300,11.2199013671875,-0.0036064526066184044,-0.3617329001426697,0.21521350741386414
1700516557783911200,11.2299111328125,-0.022519955411553383,0.07581167668104172,0.1153862476348877
1700516557793921300,11.23992138671875,-0.03340083360671997,0.02731098234653473,-0.41081708669662476
1700516557803931100,11.24993115234375,-0.015334747731685638,-0.2314193695783615,0.0503862090408802
1700516557813941200,11.259941162109374,-0.04326358437538147,0.3321899175643921,0.26080629229545593
1700516557823951400,11.269951416015624,-0.01979021541774273,-0.18797895312309265,-0.15410567820072174
1700516557833961200,11.279961181640624,-0.06653721630573273,-0.020845361053943634,0.3542635440826416
1700516557843971300,11.289971435546875,-0.11694606393575668,0.20587460696697235,0.4476582109928131
1700516557853981200,11.299981201171875,-0.07048641890287399,-0.10175751894712448,-0.05086104944348335
1700516557863991000,11.309990966796875,-0.09944190084934235,0.3064264953136444,0.058711517602205276
1700516557874001200,11.320001220703125,-0.09797742962837219,-0.14016883075237274,0.16786330938339233
1700516557884010000,11.330010009765624,-0.02503824234008789,-0.023126091808080673,0.29209762811660767
1700516557894020000,11.34002001953125,-0.028069717809557915,-0.012196212075650692,-0.21322917938232422
1700516557904030200,11.3500302734375,-0.022938605397939682,-0.3826373815536499,-0.01446762215346098
1700516557914040000,11.3600400390625,0.0015813850332051516,0.18606626987457275,-0.1300370991230011
1700516557924050200,11.37005029296875,0.02798902429640293,-0.3181241750717163,-0.42506447434425354
1700516557934060000,11.38006005859375,0.0520956926047802,0.34484341740608215,-0.024811340495944023
1700516557944070100,11.390070068359375,-0.02857145667076111,-0.3180248439311981,-0.11696869879961014
1700516557954080000,11.400080078125,0.05146026238799095,0.2371062934398651,0.011052118614315987
1700516557964090000,11.410090087890625,-0.034098315984010696,-0.27245789766311646,-0.6352035999298096
1700516557974100200,11.420100341796875,-0.012748286128044128,0.13006852567195892,0.20932899415493011
1700516557984110000,11.430110107421875,-0.05494127795100212,0.018864234909415245,-0.07179349660873413
1700516557994120200,11.4401201171875,-0.027842016890645027,-0.1083376556634903,-0.20779792964458466
1700516558004130000,11.450130126953125,-0.0693974494934082,0.15553925931453705,-0.1444844752550125
1700516558014140200,11.46014013671875,-0.045169342309236526,-0.17028971016407013,0.1738026887178421
1700516558024150000,11.47014990234375,-0.09167984873056412,0.01990979164838791,0.12422048300504684
1700516558034160000,11.48016015625,-0.06381892412900925,0.033915888518095016,-0.31504717469215393
1700516558044170200,11.490170166015625,0.012093947269022465,-0.2106669545173645,0.20408602058887482
1700516558054180000,11.50018017578125,-0.056467268615961075,0.21193702518939972,0.3266172707080841
1700516558064190200,11.510190185546875,0.0026522420812398195,-0.25517237186431885,-0.2666921317577362
1700516558074200000,11.520199951171875,-0.00014753911818843335,0.14911092817783356,0.5701556205749512
1700516558084210200,11.530210205078125,0.0355774350464344,0.3340570628643036,0.6272426247596741
1700516558094220300,11.54022021484375,0.10769397020339966,-0.06791806221008301,0.2614419758319855
1700516558104230100,11.550230224609376,0.07079161703586578,0.2989339828491211,0.14174142479896545
1700516558114240300,11.560240234375,-0.09949436783790588,-0.07063502073287964,0.11781664937734604
1700516558124250000,11.57025,-0.038723692297935486,0.011304319836199284,-0.010118680074810982
1700516558134260200,11.58026025390625,-0.06590737402439117,-0.02287016250193119,-0.1825096309185028
1700516558144270000,11.59027001953125,-0.07978910207748413,-0.3829204738140106,0.09723787009716034
1700516558154280200,11.6002802734375,-0.18698106706142426,0.11816579103469849,-0.05023893713951111
1700516558164290300,11.610290283203126,-0.050490602850914,-0.11250683665275574,-0.3594561815261841
1700516558174300200,11.620300048828126,-0.04234372824430466,-0.26188141107559204,-0.9135710597038269
1700516558184310300,11.630310302734374,-0.12801842391490936,-0.14936445653438568,-0.6265970468521118
1700516558194320100,11.640320068359374,-0.10115937143564224,-0.09688473492860794,-0.3586446940898895
1700516558204330200,11.650330322265624,-0.04278954118490219,-0.17964299023151398,-0.2738232910633087
1700516558214340000,11.660340087890624,0.06262077391147614,0.3377484679222107,-0.11687255650758743
1700516558224350200,11.67035009765625,-0.09334512799978256,-0.12363112717866898,0.04472672566771507
1700516558234360300,11.6803603515625,-0.1628355234861374,0.16586753726005554,0.2882469594478607
1700516558244369200,11.690369140625,-0.05176865682005882,0.5815044045448303,1.0084000825881958
1700516558254379000,11.70037890625,-0.04790867120027542,0.3921142518520355,1.493903636932373
1700516558264389000,11.71038916015625,0.08207836002111435,0.060859356075525284,1.0618680715560913
1700516558274399000,11.72039892578125,0.09167852252721786,0.34134960174560547,0.6366552710533142
1700516558284409000,11.7304091796875,-0.05615514889359474,-0.23025476932525635,0.2686152160167694
1700516558294419000,11.7404189453125,-0.1267816424369812,-0.26418745517730713,0.025403626263141632
1700516558304428800,11.7504287109375,-0.021320734173059464,0.0993039533495903,-0.5314300656318665
1700516558314439000,11.76043896484375,-0.029218871146440506,-0.500745415687561,-0.4550814926624298
1700516558324448800,11.77044873046875,-0.14584562182426453,-0.02316870167851448,-0.6670776605606079
1700516558334459000,11.780458984375,-0.032215461134910583,-0.224004864692688,-1.051559567451477
1700516558344468700,11.79046875,-0.012236958369612694,0.14431323111057281,-1.0101261138916016
1700516558354478800,11.800478759765625,0.007110373582690954,-0.10383931547403336,-0.48611050844192505
1700516558364489000,11.810489013671875,-0.05561026558279991,0.24155163764953613,-0.2522367835044861
1700516558374498800,11.820498779296875,-0.11474921554327011,0.0444691963493824,-0.029412483796477318
1700516558384509000,11.830509033203125,-0.043956540524959564,0.1459082067012787,0.41794583201408386
1700516558394518800,11.840518798828125,-0.1663772612810135,0.24603614211082458,0.6964672207832336
1700516558404529000,11.85052880859375,-0.06604106724262238,-0.2477293759584427,0.15111175179481506
1700516558414538800,11.860538818359375,-0.054552190005779266,0.18422763049602509,0.34413206577301025
1700516558424548900,11.870548828125,-0.12716886401176453,-0.008982841856777668,0.4411510229110718
1700516558434559000,11.88055908203125,-0.015729693695902824,-0.0641733929514885,-0.05433700978755951
1700516558444568800,11.89056884765625,0.06485836207866669,0.4890359938144684,-0.11331670731306076
1700516558454579000,11.900578857421875,-0.06618168205022812,0.02690298669040203,0.16005784273147583
1700516558464588800,11.9105888671875,0.05098302289843559,0.08032812923192978,0.20263220369815826
1700516558474597600,11.92059765625,0.10614480823278427,0.11407729983329773,-0.16791629791259766
1700516558484607700,11.930607666015625,-0.07724311947822571,0.005043760873377323,-0.023210247978568077
1700516558494617600,11.94061767578125,-0.15066860616207123,0.16110792756080627,-0.10446701943874359
1700516558504627700,11.950627685546875,-0.12373285740613937,-0.4480912387371063,-0.6129552721977234
1700516558514637800,11.960637939453125,-0.020930049940943718,0.3601810932159424,-0.5052056312561035
1700516558524647700,11.970647705078125,-0.2468915432691574,-0.40459489822387695,-0.6309481263160706
1700516558534657800,11.98065771484375,-0.12262019515037537,-0.23760323226451874,-0.22519902884960175
1700516558544667600,11.990667724609375,0.023745276033878326,0.19089458882808685,-0.3959750235080719
1700516558554677800,12.000677734375,-0.05368932709097862,-0.11246369779109955,0.39197495579719543
1700516558564687600,12.0106875,-0.11371005326509476,-0.18502338230609894,0.7351334095001221
1700516558574697700,12.02069775390625,0.06420215219259262,-0.41064825654029846,0.30284935235977173
1700516558584707800,12.030707763671876,0.10051941871643066,0.5170100927352905,-0.22969657182693481
1700516558594717700,12.0407177734375,-0.04898751527070999,0.22511674463748932,-0.023919181898236275
1700516558604727800,12.050727783203126,-0.028684375807642937,-0.3963547945022583,-0.1702958345413208
1700516558614737700,12.060737548828126,0.029157087206840515,0.9028273224830627,0.16243311762809753
1700516558624747800,12.070747802734376,-0.10363957285881042,0.17116482555866241,0.4656132459640503
1700516558634757600,12.080757568359376,-0.03656706586480141,-0.3042629659175873,0.22160856425762177
1700516558644767700,12.090767822265626,-0.0037923413328826427,0.7867308259010315,-0.10794457793235779
1700516558654777900,12.10077783203125,-0.1904493123292923,-0.09286442399024963,0.16953976452350616
1700516558664787700,12.11078759765625,-0.11628719419240952,-0.0475909560918808,0.2869710624217987
1700516558674796800,12.120796875,0.048869539052248,0.09393554925918579,-0.1464802473783493
1700516558684807000,12.130806884765626,-0.01293577253818512,-0.12659576535224915,0.33795034885406494
1700516558694816800,12.140816650390626,0.008526376448571682,-0.0341142937541008,0.5067138075828552
1700516558704827000,12.150826904296874,0.10103660076856613,-0.05422408878803253,0.04258660972118378
1700516558714836700,12.160836669921874,0.06813377887010574,0.15764714777469635,-0.13180197775363922
1700516558724846800,12.170846923828124,-0.046300653368234634,0.015894010663032532,-0.35964977741241455
