time,seconds_elapsed,z,y,x
1700516546617543000,0.06354296875,0.06640731543302536,0.008253306150436401,0.11026597023010254
1700516546627554000,0.073553955078125,-0.035806410014629364,-0.05860455334186554,-0.10463941097259521
1700516546637564000,0.08356396484375,-0.01429963018745184,0.10524415224790573,-0.11801236122846603
1700516546647574000,0.093573974609375,-0.016332419589161873,-0.07309256494045258,0.019301017746329308
1700516546657583900,0.103583984375,0.03040853701531887,0.1908464878797531,0.07922513037919998
1700516546667594000,0.113593994140625,0.021993214264512062,-0.19867277145385742,0.17993736267089844
1700516546677603800,0.123603759765625,-0.04237310588359833,0.05518916994333267,-0.19665342569351196
1700516546687615000,0.133614990234375,-0.009875882416963577,-0.004494132474064827,-0.1124221682548523
1700516546697624800,0.143624755859375,-0.016345171257853508,-0.0012879269197583199,0.08606602996587753
1700516546707635000,0.153635009765625,0.0472407303750515,-0.06464266777038574,0.12561237812042236
1700516546717645000,0.16364501953125,-0.043904587626457214,-0.05860345438122749,-0.09697084128856659
1700516546727655000,0.173655029296875,-0.030259083956480026,0.07999011129140854,-0.12497478723526001
1700516546737665800,0.183665771484375,-0.020389078184962273,-0.12160661816596985,0.020548155531287193
1700516546747676000,0.193676025390625,0.01933516561985016,0.17456138134002686,0.04091361165046692
1700516546757686000,0.20368603515625,0.01729917712509632,-0.21278101205825806,0.20508475601673126
1700516546767696000,0.21369580078125,-0.060245417058467865,-0.012558171525597572,-0.19192783534526825
1700516546777706000,0.2237060546875,-0.002954835072159767,0.06273290514945984,-0.1558190882205963
1700516546787716900,0.233716796875,-0.03268210589885712,-0.058288056403398514,0.053226009011268616
1700516546797727000,0.24372705078125,0.052460040897130966,-0.038398418575525284,0.10056211054325104
1700516546807736800,0.25373681640625,-0.04257672652602196,-0.09448032826185226,-0.08951754868030548
1700516546817747000,0.263746826171875,-0.02687392756342888,0.06819433718919754,-0.12405768036842346
1700516546827756800,0.2737568359375,-0.018443424254655838,-0.1027451828122139,-0.015409761108458042
1700516546837767000,0.283766845703125,-0.000040647340938448906,0.11828789114952087,0.03313640132546425
1700516546847778000,0.293778076171875,0.014791828580200672,-0.21513189375400543,0.1862785518169403
1700516546857788200,0.3037880859375,-0.046362750232219696,0.0216977521777153,-0.16521954536437988
1700516546867798000,0.313798095703125,-0.001782763283699751,0.06354959309101105,-0.15762899816036224
1700516546877807900,0.323807861328125,-0.01315227709710598,-0.004269442521035671,0.053171757608652115
1700516546887818000,0.33381787109375,0.040246766060590744,-0.04280511662364006,0.12258651852607727
1700516546897829000,0.3438291015625,-0.0310926903039217,-0.07276983559131622,-0.08248409628868103
1700516546907839000,0.3538388671875,-0.02189040370285511,0.10233460366725922,-0.12694451212882996
1700516546917849000,0.36384912109375,-0.006055883597582579,-0.07381884008646011,0.010034985840320587
1700516546927859000,0.37385888671875,0.005666818935424089,0.15849855542182922,0.039755597710609436
1700516546937869000,0.383869140625,0.016803376376628876,-0.22321268916130066,0.2198616862297058
1700516546947879200,0.393879150390625,-0.03949718177318573,0.04817487299442291,-0.17716583609580994
1700516546957890000,0.40389013671875,-0.014251279644668102,0.03750356286764145,-0.1587742418050766
1700516546967900200,0.413900146484375,-0.009280755184590816,0.04340565949678421,0.129775270819664
1700516546977910000,0.423909912109375,0.05025618150830269,-0.03424973413348198,0.19743338227272034
1700516546987920100,0.433920166015625,-0.02989564649760723,-0.007041550241410732,-0.06979005038738251
1700516546997930000,0.443929931640625,-0.02080036699771881,0.08059042692184448,-0.09780308604240417
1700516547007941000,0.453941162109375,-0.00992960948497057,-0.06227298825979233,0.010966809466481209
1700516547017951000,0.463950927734375,0.017341578379273415,0.15497741103172302,0.06699588894844055
1700516547027961000,0.473961181640625,0.015794815495610237,-0.1978171169757843,0.18304872512817383
1700516547037971000,0.483970947265625,-0.025970637798309326,0.1251167207956314,-0.2024116963148117
1700516547047981000,0.49398095703125,-0.00719082448631525,-0.04313274845480919,-0.09717288613319397
1700516547057991000,0.503990966796875,-0.016668718308210373,0.0737014189362526,0.07997632026672363
1700516547068002000,0.514001953125,0.04317411035299301,-0.101944699883461,0.16448375582695007
1700516547078012000,0.524011962890625,-0.03533421829342842,0.005463371518999338,-0.1522989720106125
1700516547088022000,0.53402197265625,-0.025409415364265442,0.07726405560970306,-0.12096581608057022
1700516547098031900,0.544031982421875,-0.008399889804422855,-0.06383173912763596,0.046388983726501465
1700516547108042000,0.5540419921875,0.02355564571917057,0.15217778086662292,0.09272319078445435
1700516547118052000,0.564052001953125,0.014038420282304287,-0.1981574445962906,0.1904333531856537
1700516547128063000,0.57406298828125,-0.041242413222789764,0.129171684384346,-0.22943423688411713
1700516547138073000,0.584072998046875,-0.008545841090381145,-0.03610466793179512,-0.06148999184370041
1700516547148083000,0.5940830078125,-0.01762828603386879,0.06260593235492706,0.12368039786815643
1700516547158093000,0.604093017578125,0.047887399792671204,-0.06722340732812881,0.18126952648162842
1700516547168103000,0.61410302734375,-0.031513411551713943,0.021710988134145737,-0.14287258684635162
1700516547178114000,0.624114013671875,-0.012552103959023952,0.06019318476319313,-0.09376009553670883
1700516547188124000,0.6341240234375,-0.011356344446539879,-0.01858312077820301,0.03122738189995289
1700516547198134000,0.644134033203125,0.03187890723347664,0.11763384938240051,0.12030353397130966
1700516547208144000,0.654143798828125,0.009398365393280983,-0.15337687730789185,0.18264545500278473
1700516547218154000,0.664154052734375,-0.026282228529453278,0.10509879887104034,-0.21662046015262604
1700516547228163800,0.674163818359375,-0.009040123783051968,-0.05200027674436569,-0.03678411245346069
1700516547238175000,0.684175048828125,-0.014651911333203316,0.052380889654159546,0.1128263920545578
1700516547248184800,0.694184814453125,0.04370114207267761,-0.06310735642910004,0.1532936543226242
1700516547258195000,0.70419482421875,-0.03300733491778374,0.01708409935235977,-0.14899803698062897
1700516547268204800,0.714204833984375,-0.011476743035018444,0.00179462565574795,-0.06332042813301086
1700516547278215000,0.72421484375,-0.021243413910269737,0.014962133020162582,0.04152384772896767
1700516547288225000,0.73422509765625,0.023099016398191452,0.0797235518693924,0.1228884756565094
1700516547298231600,0.7442314453125,0.0019515830790624022,-0.12068909406661987,0.10806021094322205
1700516547308241700,0.75424169921875,-0.02414846047759056,0.09649355709552765,-0.20656003057956696
1700516547318251500,0.76425146484375,-0.006131024099886417,-0.05162248760461807,-0.03152206912636757
1700516547328261600,0.77426171875,-0.005776291247457266,0.06768126785755157,0.12619192898273468
1700516547338271700,0.784271728515625,0.03735210373997688,-0.10897676646709442,0.10802572965621948
1700516547348281600,0.794281494140625,-0.03007088229060173,0.049604352563619614,-0.1898629367351532
1700516547358292500,0.80429248046875,-0.00845537893474102,0.015126309357583523,-0.06307576596736908
1700516547368302600,0.814302490234375,-0.018408412113785744,-0.0033355229534208775,0.06404490023851395
1700516547378312700,0.824312744140625,0.033128444105386734,0.1066804751753807,0.09088137000799179
1700516547388322600,0.834322509765625,0.007090719882398844,-0.15809500217437744,0.12474746257066727
1700516547398332700,0.844332763671875,-0.02039431408047676,0.1412038803100586,-0.2215726524591446
1700516547408342500,0.854342529296875,-0.0018698986386880279,-0.05522395670413971,-0.02808201313018799
1700516547418353700,0.864353759765625,0.002309681847691536,0.08965636789798737,0.09406402707099915
1700516547428363500,0.874363525390625,0.03736354038119316,-0.1191418468952179,0.08984824270009995
1700516547438373600,0.88437353515625,-0.024651147425174713,0.07954661548137665,-0.18478886783123016
1700516547448383500,0.894383544921875,-0.0033248201943933964,0.011087397113442421,-0.03870037570595741
1700516547458393600,0.9043935546875,-0.008933372795581818,0.010776529088616371,0.04322409629821777
1700516547468403500,0.914403564453125,0.034411173313856125,0.1266610473394394,0.0776185542345047
1700516547478414600,0.92441455078125,0.0004950757138431072,-0.1810740977525711,0.10357093811035156
1700516547488424400,0.934424560546875,-0.01673770695924759,0.1579636037349701,-0.21555912494659424
1700516547498434600,0.9444345703125,-0.0027682131621986628,-0.0768396332859993,-0.016912881284952164
1700516547508444700,0.954444580078125,0.004051077179610729,0.11024504154920578,0.08936295658349991
1700516547518454500,0.96445458984375,0.04854024201631546,-0.1213979423046112,0.08081110566854477
1700516547528464600,0.974464599609375,-0.03485052287578583,0.05098634585738182,-0.18038134276866913
1700516547538475500,0.9844755859375,-0.003991818055510521,0.014758247882127762,-0.060944247990846634
1700516547548485600,0.994485595703125,-0.0182421263307333,0.0013897112803533673,0.04650525003671646
1700516547558495500,1.00449560546875,0.03570585325360298,0.14846466481685638,0.08740381896495819
1700516547568505600,1.014505615234375,-0.005550506990402937,-0.19995030760765076,0.11013896018266678
1700516547578515500,1.024515380859375,-0.01325574703514576,0.17889317870140076,-0.23422273993492126
1700516547588525600,1.034525634765625,-0.0075195650570094585,-0.08970899134874344,-0.01425096020102501
1700516547598535400,1.044535400390625,0.00005227664951235056,0.10678966343402863,0.11105275899171829
1700516547608546600,1.054546630859375,0.04960092157125473,-0.1125141903758049,0.1313582956790924
1700516547618556400,1.064556396484375,-0.04727404564619064,0.040104083716869354,-0.16614310443401337
1700516547628566500,1.07456640625,-0.00026578945107758045,0.043951284140348434,-0.07401689887046814
1700516547638576400,1.084576416015625,-0.02305835671722889,-0.03894031420350075,0.08029413223266602
1700516547648586500,1.09458642578125,0.03726809844374657,0.15024025738239288,0.0977998897433281
1700516547658596600,1.1045966796875,0.0016647059237584472,-0.20480236411094666,0.13854482769966125
1700516547668607700,1.114607666015625,-0.02325369231402874,0.175682932138443,-0.2536320090293884
1700516547678617600,1.12461767578125,-0.010272741317749023,-0.08357147127389908,-0.024034880101680756
1700516547688627500,1.13462744140625,-0.0051392316818237305,0.11772701889276505,0.11949165165424347
1700516547698637600,1.144637451171875,0.0528581440448761,-0.12064608186483383,0.12248506397008896
1700516547708647400,1.1546474609375,-0.049601390957832336,0.04870299994945526,-0.20215028524398804
1700516547718657500,1.164657470703125,-0.0022831535898149014,0.04840466380119324,-0.07819885015487671
1700516547728667400,1.17466748046875,-0.016657298430800438,-0.03330804407596588,0.0766029804944992
1700516547738678800,1.1846787109375,0.0374249592423439,0.15877889096736908,0.10121539235115051
1700516547748688600,1.194688720703125,-0.000020149163901805878,-0.20405177772045135,0.1214895024895668
1700516547758698800,1.20469873046875,-0.023719724267721176,0.17883463203907013,-0.2610951066017151
1700516547768708600,1.21470849609375,-0.008944772183895111,-0.08315090090036392,-0.016044853255152702
1700516547778718700,1.22471875,0.003177508246153593,0.1024426519870758,0.11712804436683655
1700516547788728800,1.234728759765625,0.04533481225371361,-0.1505209058523178,0.08845112472772598
1700516547798739700,1.24473974609375,-0.0391831211745739,0.02923772856593132,-0.19248779118061066
1700516547808749600,1.25474951171875,-0.00006794161163270473,0.08160638809204102,-0.09101122617721558
1700516547818759700,1.264759765625,-0.015935176983475685,-0.03830946609377861,0.08361801505088806
1700516547828769800,1.274769775390625,0.04999110847711563,0.19266915321350098,0.11543027311563492
1700516547838779600,1.284779541015625,-0.0033553943503648043,-0.23306362330913544,0.14047947525978088
1700516547848789800,1.294789794921875,-0.022258512675762177,0.2100813239812851,-0.2066425383090973
1700516547858799600,1.304799560546875,-0.0006626201211474836,-0.04738418012857437,-0.002472667023539543
1700516547868810800,1.314810791015625,0.012404445558786392,0.10557501018047333,0.13243667781352997
1700516547878820600,1.324820556640625,0.05723476782441139,-0.08800537884235382,0.14624090492725372
1700516547888830700,1.334830810546875,-0.04430783540010452,0.050671279430389404,-0.14769963920116425
1700516547898840600,1.344840576171875,0.015344451181590557,0.08921030163764954,-0.09021245688199997
1700516547908850700,1.3548505859375,-0.006522230803966522,-0.02943192422389984,0.0734369233250618
1700516547918860800,1.36486083984375,0.05590735003352165,0.21492750942707062,0.11103788763284683
1700516547928871700,1.37487158203125,0.0090801902115345,-0.2074173539876938,0.13651928305625916
1700516547938881500,1.384881591796875,-0.010427184402942657,0.2129264771938324,-0.22875554859638214
1700516547948891600,1.3948916015625,0.0012081668246537447,-0.06557919085025787,-0.008935036137700081
1700516547958901800,1.40490185546875,0.02028081752359867,0.13837777078151703,0.11282165348529816
1700516547968911600,1.41491162109375,0.04624930024147034,-0.12827415764331818,0.11865290999412537
1700516547978921700,1.424921630859375,-0.03405332937836647,0.07549291104078293,-0.16766038537025452
1700516547988931600,1.434931640625,0.0010577879147604108,0.04196743294596672,-0.08470238000154495
1700516547998942700,1.444942626953125,-0.0056951954029500484,0.01321391947567463,0.06050017103552818
1700516548008952600,1.45495263671875,0.05717165023088455,0.15678918361663818,0.12222772091627121
1700516548018962700,1.464962646484375,0.01957922801375389,-0.12913450598716736,0.10019630193710327
1700516548028972500,1.47497265625,-0.01772153750061989,0.14545178413391113,-0.2326498180627823
1700516548038982700,1.484982666015625,0.009361471980810165,0.0010731376241892576,-0.02781936153769493
1700516548048992500,1.494992431640625,0.0177480336278677,0.07343494892120361,0.08563502877950668
1700516548059002600,1.505002685546875,0.05515003576874733,-0.07445047795772552,0.08713597059249878
1700516548069013500,1.515013427734375,-0.043689727783203125,-0.01196872815489769,-0.146161749958992
1700516548079023600,1.525023681640625,0.0008193452376872301,0.05499223247170448,-0.07808347791433334
1700516548089033700,1.53503369140625,-0.016783883795142174,-0.03986796736717224,0.0269385427236557
1700516548099043600,1.545043701171875,0.0394379161298275,0.15691547095775604,0.11129306256771088
1700516548109053700,1.5550537109375,0.006000327877700329,-0.17253407835960388,0.12667840719223022
1700516548119063600,1.5650634765625,-0.04430273547768593,0.07192123681306839,-0.24645960330963135
1700516548129074700,1.57507470703125,-0.008131680078804493,-0.028653038665652275,-0.1223914623260498
1700516548139084500,1.58508447265625,-0.011118466965854168,0.01913006789982319,0.06971436738967896
1700516548149094700,1.5950947265625,0.05562381073832512,-0.04507048800587654,0.08177715539932251
1700516548159104500,1.6051044921875,-0.055279310792684555,-0.08941564708948135,-0.15047329664230347
1700516548169114600,1.615114501953125,-0.0013356528943404555,0.10347338020801544,-0.10827789455652237
1700516548179124500,1.62512451171875,-0.024287788197398186,-0.08618537336587906,-0.000584485474973917
1700516548189134600,1.635134521484375,0.03485489264130592,0.1753719300031662,0.08901437371969223
1700516548199145500,1.6451455078125,0.025465015321969986,-0.1644551306962967,0.18044155836105347
1700516548209155600,1.655155517578125,-0.03341667726635933,0.07759930938482285,-0.1953778713941574
1700516548219165400,1.66516552734375,-0.0008285743533633649,0.01943473145365715,-0.1258578598499298
1700516548229175600,1.675175537109375,-0.008799681439995766,0.02863275818526745,0.06843703985214233
1700516548239185700,1.685185546875,0.06496775895357132,-0.02930680848658085,0.13406656682491302
1700516548249195500,1.695195556640625,-0.043672703206539154,-0.0664571076631546,-0.09909612685441971
1700516548259206700,1.70520654296875,0.004616654012352228,0.11585350334644318,-0.08222401142120361
1700516548269216500,1.715216552734375,-0.025519143790006638,-0.07958842813968658,0.01853935420513153
1700516548279226600,1.7252265625,0.034995079040527344,0.18349109590053558,0.11772824078798294
1700516548289236500,1.735236572265625,0.019604671746492386,-0.18954798579216003,0.2098722755908966
1700516548299246600,1.74524658203125,-0.03826624155044556,0.10344808548688889,-0.193695068359375
1700516548309256400,1.75525634765625,-0.005155691411346197,-0.011247076094150543,-0.07582461088895798
1700516548319266600,1.7652666015625,-0.01170116662979126,0.04448389634490013,0.09438056498765945
1700516548329277400,1.77527734375,0.04599568247795105,-0.08033446967601776,0.1713629513978958
1700516548339287600,1.78528759765625,-0.05177208408713341,-0.020342152565717697,-0.1082112118601799
1700516548349297400,1.79529736328125,-0.00007533503230661154,0.06617116928100586,-0.07866264134645462
1700516548359307500,1.8053076171875,-0.02494138665497303,-0.03684527799487114,0.04011060670018196
1700516548369317600,1.815317626953125,0.023879416286945343,0.12599530816078186,0.11915775388479233
1700516548379327500,1.825327392578125,0.010900032706558704,-0.17712284624576569,0.17908531427383423
1700516548389338400,1.83533837890625,-0.03126393258571625,0.1042606383562088,-0.19687233865261078
1700516548399348500,1.845348388671875,-0.005892321467399597,-0.039962079375982285,-0.053255386650562286
1700516548409358600,1.855358642578125,-0.006506978999823332,0.06001591682434082,0.09653037786483765
1700516548419368400,1.865368408203125,0.0372714102268219,-0.08123435080051422,0.1581791788339615
1700516548429378600,1.875378662109375,-0.035394005477428436,0.008839879184961319,-0.1343355029821396
1700516548439388400,1.885388427734375,-0.005514354445040226,0.05815668776631355,-0.058305490761995316
1700516548449398500,1.8953984375,-0.018218697980046272,-0.03989184647798538,0.05827225372195244
1700516548459409400,1.905409423828125,0.025491220876574516,0.1201762855052948,0.10425662994384766
1700516548469419500,1.91541943359375,0.008883749134838581,-0.1465960144996643,0.1584479659795761
1700516548479429400,1.925429443359375,-0.025830648839473724,0.09705643355846405,-0.19648540019989014
1700516548489439500,1.935439453125,-0.0041951281018555164,-0.048431526869535446,-0.039660897105932236
1700516548499449600,1.94544970703125,-0.007743671536445618,0.06036877632141113,0.08609571307897568
1700516548509459500,1.95545947265625,0.0384637676179409,-0.08077769726514816,0.14580005407333374
1700516548519470300,1.96547021484375,-0.03066321462392807,-0.0038851993158459663,-0.15681637823581696
1700516548529480400,1.97548046875,-0.014087432995438576,0.057107578963041306,-0.07498515397310257
1700516548539490600,1.985490478515625,-0.014270657673478127,-0.05195552483201027,0.06295327097177505
1700516548549500400,1.99550048828125,0.018096867948770523,0.10029606521129608,0.08885091543197632
1700516548559510500,2.005510498046875,0.005588890518993139,-0.13615569472312927,0.15541434288024902
1700516548569520400,2.015520263671875,-0.029877491295337677,0.08592184633016586,-0.20372731983661652
1700516548579530500,2.025530517578125,-0.010423196479678154,-0.019541556015610695,-0.04150247201323509
1700516548589541400,2.035541259765625,-0.018007347360253334,0.05683843791484833,0.08957724273204803
1700516548599551500,2.045551513671875,0.04378199204802513,-0.07077848166227341,0.14410032331943512
1700516548609561300,2.055561279296875,-0.02632385864853859,-0.0015823638532310724,-0.1541481465101242
1700516548619571500,2.065571533203125,-0.020154466852545738,0.06824233382940292,-0.09158848226070404
1700516548629581600,2.07558154296875,-0.011272824369370937,-0.0699501559138298,0.07370194047689438
1700516548639591400,2.08559130859375,0.017837846651673317,0.102938711643219,0.08127415180206299
1700516548649602300,2.095602294921875,0.014358161017298698,-0.13303573429584503,0.16993796825408936
1700516548659612400,2.1056123046875,-0.02125047706067562,0.09666859358549118,-0.20415525138378143
1700516548669622500,2.11562255859375,-0.01288602128624916,-0.01449174527078867,-0.05038167163729668
1700516548679632400,2.12563232421875,-0.014208254404366016,0.04698489233851433,0.08704302459955215
1700516548689642500,2.135642578125,0.04356449842453003,-0.07651307433843613,0.14671941101551056
1700516548699652400,2.14565234375,-0.022813264280557632,-0.010111073963344097,-0.14116090536117554
1700516548709663700,2.155663818359375,-0.025591740384697914,0.07039335370063782,-0.11191832274198532
1700516548719673300,2.16567333984375,-0.009052845649421215,-0.0783516988158226,0.0744410902261734
1700516548729683500,2.175683349609375,0.010610604658722878,0.09653516113758087,0.08650866895914078
1700516548739693300,2.185693359375,0.012658688239753246,-0.15105077624320984,0.16251006722450256
1700516548749703400,2.195703369140625,-0.025111593306064606,0.0866219624876976,-0.20415820181369781
1700516548759713500,2.205713623046875,-0.013169979676604271,-0.024920009076595306,-0.058733370155096054
1700516548769724700,2.215724609375,-0.015577477402985096,0.046928077936172485,0.08721637725830078
1700516548779734500,2.225734619140625,0.037844154983758926,-0.07985545694828033,0.15854160487651825
1700516548789744600,2.23574462890625,-0.020475875586271286,-0.0025452233385294676,-0.1547260284423828
1700516548799754500,2.24575439453125,-0.026033272966742516,0.07284113019704819,-0.12412244081497192
1700516548809764600,2.2557646484375,-0.003999343607574701,-0.09283518046140671,0.0814562737941742
1700516548819774700,2.265774658203125,0.01267176866531372,0.10225984454154968,0.0972270742058754
1700516548829785600,2.27578564453125,0.02488822117447853,-0.16221655905246735,0.12863373756408691
1700516548839795700,2.285795654296875,-0.030343487858772278,0.0881400778889656,-0.19803544878959656
1700516548849805600,2.2958056640625,-0.0009512435644865036,-0.048285141587257385,-0.04502032697200775
1700516548859815700,2.305815673828125,-0.020899713039398193,0.034342601895332336,0.08511968702077866
1700516548869825500,2.315825439453125,0.03033231571316719,-0.08457206934690475,0.1498853713274002
1700516548879835600,2.325835693359375,-0.017558958381414413,-0.04454376921057701,-0.1293879747390747
1700516548889846500,2.335846435546875,-0.030198853462934494,0.07740184664726257,-0.14416399598121643
1700516548899856600,2.345856689453125,0.005048274528235197,-0.12772390246391296,0.08824561536312103
1700516548909866500,2.355866455078125,0.005512729752808809,0.05624806508421898,0.07457747310400009
1700516548919876600,2.365876708984375,0.02438359335064888,-0.08353040367364883,0.14199472963809967
1700516548929886500,2.375886474609375,-0.026025785133242607,-0.012382987886667252,-0.14532093703746796
1700516548939897600,2.385897705078125,-0.00927936751395464,0.04191707447171211,-0.10164355486631393
1700516548949907500,2.395907470703125,-0.013531104661524296,-0.061022087931632996,0.092169851064682
1700516548959917600,2.40591748046875,0.03343583270907402,0.019393697381019592,0.13077791035175323
1700516548969927400,2.415927490234375,-0.018415382131934166,-0.09412487596273422,-0.06397932022809982
1700516548979937500,2.4259375,-0.020761167630553246,0.09684355556964874,-0.15159204602241516
1700516548989947600,2.43594775390625,0.0028450926765799522,-0.13510125875473022,0.0891481265425682
1700516548999958500,2.44595849609375,-0.0013483616057783365,0.06336978822946548,0.03600895777344704
1700516549009968600,2.45596875,0.03231026604771614,-0.06685798615217209,0.1399204283952713
1700516549019978500,2.465978515625,-0.031984128057956696,-0.06633342802524567,-0.07839540392160416
1700516549029988600,2.475988525390625,-0.007676389999687672,0.06709493696689606,-0.18370291590690613
1700516549039998500,2.48599853515625,-0.01894058659672737,-0.10666336119174957,0.048360127955675125
1700516549050008600,2.496008544921875,0.02223454788327217,0.06492862850427628,0.132685124874115
1700516549060019500,2.50601953125,0.0002551500219851732,-0.1477607637643814,-0.01784886047244072
1700516549070029600,2.516029541015625,-0.035732146352529526,0.11968878656625748,-0.21947970986366272
1700516549080039400,2.526039306640625,0.012618823908269405,-0.12887296080589294,0.043522123247385025
1700516549090049500,2.536049560546875,-0.01843816228210926,0.05012795701622963,0.03607672452926636
1700516549100059400,2.546059326171875,0.035145897418260574,-0.0218268483877182,0.11863493174314499
1700516549110070500,2.556070556640625,-0.02379731275141239,-0.09710908681154251,-0.05827166885137558
1700516549120080400,2.566080322265625,-0.01698051020503044,0.09147059172391891,-0.2094031423330307
1700516549130090500,2.576090576171875,-0.008174768649041653,-0.10690827667713165,0.04320327192544937
1700516549140100400,2.586100341796875,0.006838815286755562,0.08201733976602554,0.1020888164639473
1700516549150110500,2.5961103515625,0.006112038157880306,-0.14472393691539764,0.03173796087503433
1700516549160120600,2.60612060546875,-0.029493093490600586,0.11339417099952698,-0.21353144943714142
1700516549170131500,2.61613134765625,0.008158145472407341,-0.06564562022686005,0.008868063800036907
1700516549180141600,2.6261416015625,-0.023077435791492462,0.06026756018400192,0.06495922803878784
1700516549190151400,2.6361513671875,0.05674336105585098,0.0771554559469223,0.12267179042100906
1700516549200161500,2.64616162109375,-0.017144396901130676,-0.12421906739473343,0.011091696098446846
1700516549210171400,2.65617138671875,-0.0032778496388345957,0.13713236153125763,-0.2168639749288559
1700516549220182500,2.6661826171875,-0.0068686166778206825,-0.1002911627292633,0.0287688709795475
1700516549230192400,2.6761923828125,0.00978732481598854,0.10182172060012817,0.09598758816719055
1700516549240202500,2.686202392578125,0.017360595986247063,-0.12308387458324432,0.06639352440834045
1700516549250212400,2.69621240234375,-0.019280506297945976,0.11746694892644882,-0.22791613638401031
1700516549260222500,2.706222412109375,-0.0031322967261075974,-0.032309167087078094,-0.00028645945712924004
1700516549270233600,2.716233642578125,-0.022657262161374092,0.027669215574860573,0.08027176558971405
1700516549280243500,2.726243408203125,0.04659818485379219,0.09947243332862854,0.10946382582187653
1700516549290253300,2.73625341796875,-0.014584212563931942,-0.1225140318274498,0.04832989349961281
1700516549300265000,2.746264892578125,-0.014952119439840317,0.1020364761352539,-0.20983009040355682
1700516549310274800,2.75627490234375,0.0007501451764255762,-0.0738392174243927,0.02585168182849884
1700516549320285000,2.766284912109375,-0.003198753809556365,0.06074492260813713,0.09071195125579834
1700516549330295800,2.7762958984375,0.01791079342365265,-0.08545755594968796,0.08464127779006958
1700516549340306000,2.786305908203125,-0.026659224182367325,0.033058054745197296,-0.2127854973077774
1700516549350315800,2.796315673828125,-0.0058961547911167145,0.022532977163791656,-0.02195349708199501
1700516549360326000,2.806325927734375,-0.023889116942882538,-0.028412649407982826,0.08296827971935272
1700516549370335700,2.816335693359375,0.02027195133268833,0.07082978636026382,0.08845919370651245
1700516549380347000,2.826346923828125,-0.012457190081477165,-0.0930798277258873,0.09928201138973236
1700516549390356700,2.836356689453125,-0.02650909312069416,0.07226172834634781,-0.2090345323085785
1700516549400366800,2.846366943359375,-0.009092917665839195,-0.03157117962837219,-0.03254998102784157
1700516549410376700,2.856376708984375,-0.01688559539616108,0.023189272731542587,0.0790196880698204
1700516549420386800,2.86638671875,0.02425471879541874,-0.062489382922649384,0.09738153219223022
1700516549430397700,2.876397705078125,-0.026500338688492775,-0.037223443388938904,-0.19631746411323547
1700516549440407800,2.88640771484375,-0.024338364601135254,0.07890322059392929,-0.1160254180431366
1700516549450417700,2.896417724609375,-0.00978845078498125,-0.09677033871412277,0.05918661132454872
1700516549460427800,2.906427734375,0.0033482899889349937,0.06551872193813324,0.06102453172206879
1700516549470438000,2.91643798828125,0.009154513478279114,-0.10315205156803131,0.14852482080459595
1700516549480449000,2.926448974609375,-0.02953510731458664,0.03725123032927513,-0.19859522581100464
1700516549490459000,2.936458984375,-0.009327307343482971,0.007189200725406408,-0.08892839401960373
1700516549500468700,2.94646875,-0.01297048106789589,-0.013491510413587093,0.07946470379829407
1700516549510478800,2.956478759765625,0.03566203638911247,-0.01735655404627323,0.1318480223417282
1700516549520488700,2.96648876953125,-0.015629414469003677,-0.022260352969169617,-0.1555720418691635
1700516549530499800,2.976499755859375,-0.024507060647010803,0.05071825161576271,-0.10581674426794052
1700516549540510000,2.986510009765625,0.0008064500289037824,-0.08095971494913101,0.08088339865207672
1700516549550520000,2.99652001953125,0.013468182645738125,0.058637864887714386,0.10153008252382278
1700516549560530000,3.006530029296875,0.02347777597606182,-0.07119780033826828,0.17722241580486298
1700516549570540800,3.016540771484375,-0.018369540572166443,0.049417831003665924,-0.13614322245121002
1700516549580551000,3.026551025390625,-0.0027730665169656277,0.003993970341980457,-0.07173050194978714
1700516549590561000,3.03656103515625,-0.011217418126761913,0.030356867238879204,0.08686366677284241
1700516549600571000,3.04657080078125,0.031704045832157135,-0.024467354640364647,0.16698208451271057
1700516549610581000,3.0565810546875,-0.005044115241616964,-0.011969138868153095,-0.12260844558477402
1700516549620591900,3.066591796875,-0.016720926389098167,0.08506572246551514,-0.12819091975688934
1700516549630602000,3.07660205078125,0.008852077648043633,-0.08331343531608582,0.08095831423997879
1700516549640611800,3.08661181640625,0.019163401797413826,0.04644817113876343,0.05940522998571396
1700516549650622000,3.0966220703125,0.03303074836730957,-0.05643373727798462,0.1627473384141922
1700516549660631800,3.1066318359375,-0.01276907417923212,0.015943322330713272,-0.11924389004707336
1700516549670643000,3.116642822265625,0.0025124105159193277,0.052309852093458176,-0.11246135085821152
1700516549680652800,3.12665283203125,-0.0017234155675396323,-0.024072829633951187,0.09310418367385864
1700516549690663000,3.136662841796875,0.029107732698321342,0.027442291378974915,0.14818847179412842
1700516549700672800,3.1466728515625,0.0007078299531713128,-0.022640565410256386,-0.11791306734085083
1700516549710683000,3.156682861328125,-0.023883532732725143,0.07416986674070358,-0.15112562477588654
1700516549720693800,3.16669384765625,0.012673312798142433,-0.0665624663233757,0.09064234048128128
1700516549730704000,3.176703857421875,0.01920258440077305,0.03212735801935196,0.057291045784950256
1700516549740713700,3.186713623046875,0.03165273368358612,-0.03920456022024155,0.12673592567443848
1700516549750723800,3.196723876953125,-0.018873559311032295,-0.013944477774202824,-0.10893172770738602
1700516549760734700,3.206734619140625,-0.008636850863695145,0.031284380704164505,-0.10925320535898209
1700516549770744800,3.216744873046875,-0.004414143040776253,-0.04660828784108162,0.07431502640247345
1700516549780754700,3.226754638671875,0.02355136349797249,0.04361020401120186,0.13468247652053833
1700516549790764800,3.236764892578125,-0.0017803576774895191,-0.08138605952262878,-0.06499841064214706
1700516549800775000,3.24677490234375,-0.03150063380599022,0.07304668426513672,-0.19004832208156586
1700516549810785800,3.256785888671875,0.01728634722530842,-0.062083709985017776,0.08503491431474686
1700516549820795600,3.266795654296875,-0.007279678247869015,0.0399567075073719,0.05459481105208397
1700516549830805800,3.2768056640625,0.046952132135629654,-0.005710379686206579,0.1365421563386917
1700516549840815900,3.28681591796875,-0.020609121769666672,-0.07670383155345917,-0.07439647614955902
1700516549850826800,3.29682666015625,-0.005284229293465614,0.0929453894495964,-0.16248691082000732
1700516549860836900,3.3068369140625,0.0003003008896484971,-0.08790013194084167,0.07038529217243195
1700516549870846700,3.3168466796875,0.012896520085632801,0.06573283672332764,0.1369997262954712
1700516549880856800,3.32685693359375,0.004440992139279842,-0.10935582965612411,-0.0016365745104849339
1700516549890866700,3.33686669921875,-0.023786649107933044,0.0958002507686615,-0.21349503099918365
1700516549900878000,3.346878173828125,0.012278883717954159,-0.04973715543746948,0.04817882552742958
1700516549910888000,3.356887939453125,-0.013347916305065155,0.0545322559773922,0.07615506649017334
1700516549920898000,3.36689794921875,0.05065324902534485,0.07150759547948837,0.1333685666322708
1700516549930908000,3.376907958984375,-0.01709597185254097,-0.09902552515268326,-0.006882286164909601
1700516549940919000,3.3869189453125,0.0012641274370253086,0.15203386545181274,-0.1972399652004242
1700516549950929000,3.396928955078125,0.00022496201563626528,-0.08549773693084717,0.04326397180557251
1700516549960939000,3.40693896484375,0.009171850979328156,0.08231576532125473,0.115965336561203
1700516549970948900,3.416948974609375,0.0093766488134861,-0.11987967789173126,0.029801692813634872
1700516549980960000,3.4269599609375,-0.01780889928340912,0.14917123317718506,-0.22923918068408966
1700516549990969900,3.436969970703125,0.010856034234166145,-0.05179702490568161,0.00809479970484972
1700516550000980000,3.44697998046875,-0.01577354408800602,0.06040649116039276,0.07857169955968857
1700516550010989800,3.45698974609375,0.0420474112033844,0.12058966606855392,0.11188757419586182
1700516550021000000,3.467,-0.011052172631025314,-0.16293376684188843,0.025765854865312576
1700516550031010800,3.4770107421875,-0.012448735535144806,0.17879880964756012,-0.2570030093193054
1700516550041021000,3.48702099609375,0.001166519126854837,-0.06050988286733627,-0.01928352378308773
1700516550051030800,3.49703076171875,0.010987724177539349,0.11537725478410721,0.09193700551986694
1700516550061041000,3.507041015625,0.05063020437955856,-0.09819360822439194,0.0660848394036293
1700516550071051800,3.5170517578125,-0.049488939344882965,0.028643431141972542,-0.23189358413219452
1700516550081062000,3.527061767578125,0.009052583016455173,0.06263188272714615,-0.12318508327007294
1700516550091071700,3.53707177734375,-0.023804698139429092,-0.03628990054130554,0.024994254112243652
1700516550101081900,3.547081787109375,0.042842794209718704,0.18067480623722076,0.06619806587696075
1700516550111092000,3.557092041015625,0.015148313716053963,-0.22216425836086273,0.10146364569664001
1700516550121102800,3.567102783203125,-0.03666132688522339,0.12448152899742126,-0.2735802233219147
1700516550131112700,3.57711279296875,0.005064282566308975,-0.002848197938874364,-0.1308044195175171
1700516550141122800,3.587122802734375,-0.007157915271818638,0.026401663199067116,0.01751471310853958
1700516550151133000,3.5971328125,0.045540183782577515,-0.10615025460720062,0.030270986258983612
1700516550161143800,3.607143798828125,-0.04991932585835457,-0.06433089077472687,-0.23904509842395782
1700516550171153700,3.617153564453125,-0.013689948245882988,0.10154063254594803,-0.22555992007255554
1700516550181163800,3.627163818359375,-0.010121408849954605,-0.13684315979480743,-0.046591952443122864
1700516550191174000,3.637173828125,0.013794575817883015,0.15519721806049347,0.01569245755672455
1700516550201184800,3.647184814453125,0.018544834107160568,-0.20160634815692902,0.15456360578536987
1700516550211195000,3.65719482421875,-0.05178312584757805,-0.014390114694833755,-0.19570305943489075
1700516550221204700,3.667204833984375,-0.0029204837046563625,0.06219596415758133,-0.1982330083847046
1700516550231214800,3.67721484375,-0.03212017938494682,-0.0640149712562561,0.018933385610580444
1700516550241226000,3.68722607421875,0.054274752736091614,0.011914895847439766,0.11276770383119583
1700516550251235800,3.69723583984375,-0.03496857360005379,-0.11936323344707489,-0.021310199052095413
1700516550261245700,3.70724560546875,-0.008100260980427265,0.11974343657493591,-0.07904442399740219
1700516550271255800,3.717255859375,-0.003093518316745758,-0.07071758806705475,0.06269433349370956
1700516550281267000,3.727266845703125,0.023942088708281517,0.21499395370483398,0.12835431098937988
1700516550291277000,3.737277099609375,0.0514482818543911,-0.06921008229255676,0.3350086808204651
1700516550301286400,3.747286376953125,-0.030409542843699455,-0.023419730365276337,-0.02522508054971695
1700516550311296500,3.757296630859375,0.015214403159916401,0.2192797213792801,-0.12629364430904388
1700516550321307400,3.767307373046875,-0.009498615749180317,-0.045949358493089676,0.11748901754617691
1700516550331317500,3.7773173828125,0.07848050445318222,0.07535523176193237,0.20132027566432953
1700516550341327400,3.787327392578125,-0.017337029799818993,-0.10606124997138977,0.020569557324051857
1700516550351337500,3.79733740234375,0.0043280525133013725,0.18869182467460632,-0.07953360676765442
1700516550361348400,3.807348388671875,0.007897560484707355,-0.08901645988225937,0.03763097897171974
1700516550371358500,3.8173583984375,0.017115026712417603,0.18439297378063202,0.08084263652563095
1700516550381368300,3.827368408203125,0.04879529029130936,-0.10594767332077026,0.2859860956668854
1700516550391378400,3.83737841796875,-0.026792943477630615,0.008558932691812515,-0.06319212913513184
1700516550401389300,3.847389404296875,0.0007706745527684689,0.1298096776008606,-0.15483687818050385
1700516550411399400,3.8573994140625,-0.013157391920685768,-0.031990133225917816,0.05291898548603058
1700516550421409300,3.8674091796875,0.05679036304354668,0.035290032625198364,0.17064382135868073
1700516550431419400,3.87741943359375,-0.023965200409293175,-0.11457030475139618,-0.030684499070048332
1700516550441430500,3.887430419921875,-0.018294380977749825,0.13477320969104767,-0.15078409016132355
1700516550451440600,3.897440673828125,-0.00006983720231801271,-0.1194731816649437,0.004965547472238541
1700516550461450500,3.907450439453125,0.007119868882000446,0.0912238210439682,0.07121679931879044
1700516550471460600,3.917460693359375,0.026998501271009445,-0.1294236183166504,0.1913975477218628
1700516550481471500,3.927471435546875,-0.03103339858353138,-0.011700981296598911,-0.16053830087184906
1700516550491481600,3.937481689453125,-0.01418677344918251,0.04058779031038284,-0.1624392718076706
1700516550501491500,3.947491455078125,-0.022689688950777054,-0.04453332722187042,0.03892998397350311
1700516550511501600,3.95750146484375,0.03786633163690567,0.011488661170005798,0.14948153495788574
1700516550521512400,3.967512451171875,-0.02682821825146675,-0.16028234362602234,-0.06512526422739029
1700516550531522600,3.9775224609375,-0.0275518000125885,0.16133670508861542,-0.21611957252025604
1700516550541532400,3.987532470703125,0.014222645200788975,-0.17173267900943756,0.009451301768422127
1700516550551542500,3.99754248046875,0.0013515877071768045,0.10118674486875534,0.022306911647319794
1700516550561553400,4.007553466796875,0.04612264037132263,-0.029499951750040054,0.1793404370546341
1700516550571563500,4.0175634765625,-0.03621857240796089,-0.13698327541351318,-0.04727459326386452
1700516550581573400,4.027573486328125,-0.005681413225829601,0.15642833709716797,-0.23207688331604004
1700516550591584500,4.03758447265625,-0.022410858422517776,-0.12678766250610352,0.00835808552801609
1700516550601594400,4.047594482421875,0.04089735820889473,0.10268006473779678,0.1232914999127388
1700516550611604500,4.0576044921875,-0.009055022150278091,-0.16633543372154236,-0.00818769820034504
1700516550621614300,4.0676142578125,-0.03934568166732788,0.1324208676815033,-0.23928363621234894
1700516550631625500,4.07762548828125,0.018684333190321922,-0.1030595600605011,-0.016899563372135162
1700516550641635300,4.08763525390625,-0.017645657062530518,0.04775713011622429,0.010253211483359337
1700516550651645400,4.0976455078125,0.052845023572444916,0.08056753873825073,0.13943569362163544
1700516550661655600,4.107655517578125,-0.015736199915409088,-0.21820488572120667,0.028841212391853333
1700516550671666400,4.11766650390625,-0.0072686802595853806,0.19616512954235077,-0.26961979269981384
1700516550681676300,4.12767626953125,-0.010000960901379585,-0.09569000452756882,-0.005878040101379156
1700516550691686400,4.137686279296875,0.02781459502875805,0.12436113506555557,0.12028335779905319
1700516550701696500,4.147696533203125,0.03117815963923931,-0.12841099500656128,0.0672299712896347
1700516550711707400,4.157707275390625,-0.04786286503076553,0.07132980972528458,-0.17335253953933716
1700516550721717200,4.16771728515625,0.022331111133098602,0.009732055477797985,-0.02623305283486843
1700516550731727400,4.177727294921875,-0.01595236361026764,0.01120212022215128,0.06137455999851227
1700516550741738500,4.187738525390625,0.053622178733348846,0.16310249269008636,0.1591864675283432
1700516550751748600,4.19774853515625,-0.0026743821799755096,-0.24287112057209015,0.1387522965669632
1700516550761758500,4.207758544921875,-0.020910799503326416,0.18496213853359222,-0.258926659822464
1700516550771768600,4.2177685546875,-0.017233241349458694,-0.06456834822893143,-0.035590264946222305
1700516550781779500,4.227779541015625,0.020780999213457108,0.09991302341222763,0.13800060749053955
1700516550791789600,4.23778955078125,0.03084881231188774,-0.11124182492494583,0.12853039801120758
1700516550801799400,4.24779931640625,-0.059505827724933624,0.019282318651676178,-0.15544669330120087
1700516550811809500,4.2578095703125,0.015351101756095886,0.07285100221633911,-0.07809624075889587
1700516550821820400,4.2678203125,-0.01833251118659973,-0.025853075087070465,0.08103025704622269
1700516550831830500,4.27783056640625,0.04487069323658943,0.18409323692321777,0.1644817441701889
1700516550841840400,4.28784033203125,-0.0007656673551537097,-0.2497728019952774,0.14440476894378662
1700516550851851500,4.2978515625,-0.03317127749323845,0.18363243341445923,-0.26808902621269226
1700516550861861400,4.307861328125,-0.005895078647881746,-0.06634631752967834,-0.06783710420131683
1700516550871871500,4.31787158203125,0.005108570214360952,0.07206029444932938,0.12011175602674484
1700516550881881600,4.327881591796875,0.03452422097325325,-0.13619133830070496,0.11577168107032776
1700516550891892500,4.337892578125,-0.06167634576559067,0.0015803714049980044,-0.198245108127594
1700516550901902300,4.34790234375,0.013804610818624496,0.10306230932474136,-0.14008572697639465
1700516550911912400,4.357912353515625,-0.019797291606664658,-0.07828643918037415,0.08151458948850632
1700516550921923300,4.36792333984375,0.05771835520863533,0.21919642388820648,0.13099269568920135
1700516550931933400,4.377933349609375,0.00016558123752474785,-0.28558313846588135,0.15319973230361938
1700516550941943300,4.387943359375,-0.03421575576066971,0.18560197949409485,-0.28498348593711853
1700516550951953400,4.397953369140625,-0.011837746948003769,-0.02834385819733143,-0.07164031267166138
1700516550961964300,4.40796435546875,0.008561244234442711,0.06662724167108536,0.15598084032535553
1700516550971974400,4.417974365234375,0.04274744540452957,-0.0886899083852768,0.14762330055236816
1700516550981984300,4.427984375,-0.056849319487810135,-0.005551980808377266,-0.16624698042869568
1700516550991994400,4.437994384765625,0.0067261941730976105,0.13835938274860382,-0.12029121816158295
1700516551002005500,4.448005615234375,-0.01937752217054367,-0.07931561768054962,0.11028856784105301
1700516551012015600,4.458015625,0.052267901599407196,0.23667803406715393,0.1620846539735794
1700516551022025500,4.468025390625,0.004808412864804268,-0.28568845987319946,0.16008523106575012
1700516551032036600,4.47803662109375,-0.04007117822766304,0.19230526685714722,-0.2785957157611847
1700516551042046500,4.48804638671875,-0.00830515380948782,-0.050870444625616074,-0.07393226027488708
1700516551052056600,4.498056640625,-0.005827081855386496,0.055216044187545776,0.1526510864496231
1700516551062066400,4.50806640625,0.03480762988328934,-0.12898637354373932,0.15134692192077637
1700516551072077600,4.51807763671875,-0.0546005479991436,0.006661207415163517,-0.19986729323863983
1700516551082087400,4.52808740234375,-0.0022356961853802204,0.12411490082740784,-0.15344415605068207
1700516551092097500,4.53809765625,-0.009020098485052586,-0.07386370003223419,0.11570235341787338
1700516551102108400,4.5481083984375,0.05173137038946152,0.2279556393623352,0.16043022274971008
1700516551112118500,4.558118408203125,0.009704824537038803,-0.2789757549762726,0.1448371559381485
1700516551122128400,4.56812841796875,-0.03703245148062706,0.22146748006343842,-0.2943444550037384
1700516551132139500,4.578139404296875,-0.0022691464982926846,-0.04897866025567055,-0.05585601553320885
1700516551142149400,4.5881494140625,0.003854319453239441,0.07111133635044098,0.17207153141498566
1700516551152159500,4.598159423828125,0.045814819633960724,-0.1344338357448578,0.16234007477760315
1700516551162169300,4.60816943359375,-0.06286643445491791,0.0028213639743626118,-0.19415383040905
1700516551172180500,4.618180419921875,0.0029927396681159735,0.12463141977787018,-0.14078541100025177
1700516551182190300,4.6281904296875,-0.020978745073080063,-0.1270742565393448,0.09706223756074905
1700516551192200400,4.638200439453125,0.04500000178813934,0.2140790820121765,0.15115396678447723
1700516551202211300,4.64821142578125,0.003824681043624878,-0.2881523370742798,0.13153433799743652
1700516551212221400,4.658221435546875,-0.04978981241583824,0.1587705761194229,-0.27933281660079956
1700516551222231300,4.668231201171875,-0.00851087924093008,-0.054244838654994965,-0.06920328736305237
1700516551232241400,4.678241455078125,-0.01757548190653324,0.03369913250207901,0.15813478827476501
1700516551242252500,4.68825244140625,0.044070806354284286,-0.11852573603391647,0.1657327115535736
1700516551252262400,4.698262451171875,-0.06703787297010422,-0.048060093075037,-0.16060252487659454
1700516551262272300,4.708272216796875,-0.006906779482960701,0.12295099347829819,-0.1336163729429245
1700516551272283600,4.71828369140625,-0.0413379892706871,-0.1309923231601715,0.09884615987539291
1700516551282293500,4.72829345703125,0.02366064488887787,0.1535957157611847,0.15264245867729187
1700516551292303600,4.7383037109375,-0.0032234336249530315,-0.222782701253891,0.19738861918449402
1700516551302313200,4.748313232421875,-0.05850695073604584,0.034011565148830414,-0.20164445042610168
1700516551312324400,4.758324462890625,-0.022622987627983093,0.048462674021720886,-0.12766237556934357
1700516551322334200,4.768334228515625,-0.041820429265499115,-0.04583758860826492,0.09156028926372528
1700516551332344300,4.77834423828125,0.020563585683703423,-0.08386220037937164,0.15481729805469513
1700516551342355200,4.788355224609375,-0.048650626093149185,-0.09191539138555527,-0.10715478658676147
1700516551352365300,4.798365234375,-0.03229908272624016,0.13426634669303894,-0.141950324177742
1700516551362375200,4.808375244140625,-0.029118938371539116,-0.16266004741191864,0.033895812928676605
1700516551372386300,4.81838623046875,0.00981780793517828,0.14592255651950836,0.038284435868263245
1700516551382396200,4.828396240234375,0.019253483042120934,-0.19458390772342682,0.2136969268321991
1700516551392406300,4.83840625,-0.04058614745736122,0.024012083187699318,-0.16388311982154846
1700516551402416000,4.848416015625,-0.01026576105505228,0.0563608817756176,-0.13285721838474274
1700516551412427300,4.85842724609375,-0.021072868257761,-0.00012822693679481745,0.05240612104535103
1700516551422437000,4.86843701171875,0.04044712707400322,-0.05084254965186119,0.17138099670410156
1700516551432447200,4.878447265625,-0.0215962715446949,-0.032878197729587555,-0.11820846796035767
1700516551442458000,4.8884580078125,-0.005605057813227177,0.10480910539627075,-0.1244899109005928
1700516551452468200,4.89846826171875,-0.006998957134783268,-0.07486797869205475,0.059708159416913986
1700516551462478000,4.90847802734375,0.030886845663189888,0.09409699589014053,0.11785375326871872
1700516551472489200,4.9184892578125,0.038139961659908295,-0.05227593332529068,0.2267914116382599
1700516551482499000,4.9284990234375,-0.00929817371070385,0.05208684504032135,-0.1333892047405243
1700516551492509200,4.93850927734375,-0.006649925839155912,0.045549847185611725,-0.08651117235422134
1700516551502519000,4.94851904296875,-0.0022242842242121696,0.01865830272436142,0.06347337365150452
1700516551512530400,4.958530517578125,0.04395812377333641,-0.02159990556538105,0.1401630938053131
1700516551522540300,4.968540283203125,-0.009604780934751034,-0.01971173845231533,-0.1587301343679428
1700516551532550400,4.97855029296875,-0.020409226417541504,0.054038114845752716,-0.10919666290283203
1700516551542561300,4.988561279296875,0.0028911775443702936,-0.07233809679746628,0.05090618133544922
1700516551552571400,4.9985712890625,0.006419866345822811,0.03799133747816086,0.08845648914575577
1700516551562581200,5.008581298828125,0.02027035690844059,-0.061034608632326126,0.14974471926689148
1700516551572592400,5.01859228515625,-0.016758501529693604,0.029727520421147346,-0.15356269478797913
1700516551582602200,5.028602294921875,-0.006595517508685589,0.004277792759239674,-0.053132716566324234
1700516551592612400,5.0386123046875,-0.005118262022733688,0.0062003289349377155,0.10165126621723175
1700516551602623200,5.048623291015625,0.02392924763262272,-0.005316944792866707,0.13582707941532135
1700516551612633300,5.05863330078125,-0.0025553565938025713,-0.03319251909852028,-0.15936169028282166
1700516551622643200,5.068643310546875,-0.017615145072340965,0.05417957156896591,-0.1090143620967865
1700516551632653300,5.0786533203125,0.004864064510911703,-0.05466675013303757,0.0805121585726738
1700516551642664200,5.088664306640625,0.008676598779857159,0.050640106201171875,0.0972144827246666
1700516551652674300,5.09867431640625,0.008287244476377964,-0.0461072102189064,0.12661896646022797
1700516551662684200,5.10868408203125,-0.013111800886690617,0.04643981158733368,-0.14166338741779327
1700516551672695000,5.118695068359375,-0.00838229339569807,0.0075430115684866905,-0.05241286754608154
1700516551682705200,5.128705078125,-0.002289186231791973,0.0171030443161726,0.08120112121105194
1700516551692715300,5.13871533203125,0.02141294628381729,0.0019904039800167084,0.11038670688867569
1700516551702726100,5.14872607421875,0.004191271029412746,-0.0017231360543519258,-0.16728846728801727
1700516551712736300,5.158736328125,-0.02031114138662815,0.029747171327471733,-0.07564429938793182
1700516551722746000,5.16874609375,0.014411875046789646,-0.03307497501373291,0.07962779700756073
1700516551732757200,5.17875732421875,0.007964628748595715,0.04257531091570854,0.06194493919610977
1700516551742767400,5.188767333984375,0.033704500645399094,-0.0060147917829453945,0.13528591394424438
1700516551752777200,5.198777099609375,0.0027122306637465954,0.015196220949292183,-0.10560551285743713
1700516551762787000,5.208787109375,-0.000804034760221839,-0.011508080177009106,-0.03336000442504883
1700516551772798200,5.218798095703125,-0.003821129910647869,0.012946662493050098,0.07623546570539474
1700516551782808300,5.228808349609375,0.028379248455166817,0.014489700086414814,0.15067332983016968
1700516551792818400,5.238818359375,0.004217453766614199,-0.037161242216825485,-0.11572454124689102
1700516551802829300,5.248829345703125,-0.01593981496989727,0.007221314590424299,-0.09099338948726654
1700516551812839200,5.258839111328125,0.0054807886481285095,-0.05228781700134277,0.05800141394138336
1700516551822849300,5.268849365234375,0.0018447053153067827,-0.007514809258282185,0.08178351074457169
1700516551832860200,5.278860107421875,0.0016678713727742434,-0.05000847205519676,0.11719822138547897
1700516551842870300,5.288870361328125,-0.013853630982339382,0.0012628992553800344,-0.1593376100063324
1700516551852880100,5.298880126953125,-0.010765163227915764,-0.010751685127615929,-0.05944962799549103
1700516551862891300,5.308891357421875,-0.010842221789062023,0.0010575837222859263,0.08900277316570282
1700516551872901000,5.318901123046875,0.00747100543230772,-0.009608376771211624,0.12832753360271454
1700516551882911200,5.3289111328125,-0.001089193276129663,-0.045359447598457336,-0.14216120541095734
1700516551892922000,5.338922119140625,-0.01777682825922966,0.029978446662425995,-0.13788816332817078
1700516551902932200,5.34893212890625,0.01538580097258091,-0.07010890543460846,0.07959648221731186
1700516551912942000,5.358942138671875,0.013496022671461105,0.010334804654121399,0.0681864321231842
1700516551922953200,5.368953125,0.015463114716112614,-0.02755315974354744,0.09363335371017456
1700516551932963000,5.378963134765625,-0.013335243798792362,-0.012896188534796238,-0.1607176959514618
1700516551942973200,5.38897314453125,-0.006949685513973236,-0.006871095858514309,-0.07958357781171799
1700516551952983000,5.398983154296875,-0.0033794515766203403,-0.022713441401720047,0.08923979848623276
1700516551962994400,5.408994384765625,0.012119933031499386,0.01665697991847992,0.13235218822956085
1700516551973004000,5.419004150390625,-0.0042486535385251045,-0.04541677609086037,-0.12824878096580505
1700516551983014100,5.42901416015625,-0.018595807254314423,0.03961075097322464,-0.14991500973701477
1700516551993025300,5.439025390625,0.015124871395528316,-0.06254038214683533,0.07833174616098404
1700516552003035400,5.449035400390625,0.014708433300256729,0.011133065447211266,0.06791920959949493
1700516552013045200,5.459045166015625,0.016068242490291595,-0.018156113103032112,0.07774973660707474
1700516552023056400,5.469056396484375,-0.014396130107343197,-0.008929775096476078,-0.16321174800395966
1700516552033066200,5.479066162109375,-0.005949115846306086,0.007058512885123491,-0.12125498056411743
1700516552043076400,5.489076416015625,-0.00005367619451135397,-0.04491813853383064,0.04364928975701332
1700516552053087200,5.499087158203125,0.02635502815246582,0.08003125339746475,0.058056458830833435
1700516552063097300,5.509097412109375,-0.0076828463934361935,-0.09024509787559509,-0.15399378538131714
1700516552073107200,5.519107177734375,-0.027784651145339012,0.08233626186847687,-0.27016088366508484
1700516552083118000,5.5291181640625,0.013952807523310184,-0.1014384999871254,-0.03541702777147293
1700516552093128200,5.539128173828125,-0.012087315320968628,-0.02932169660925865,-0.05105537921190262
1700516552103138300,5.54913818359375,0.027616137638688087,0.07871748507022858,-0.03424201160669327
1700516552113149200,5.559149169921875,-0.01930929347872734,-0.14899955689907074,-0.14951561391353607
1700516552123159300,5.5691591796875,-0.02455507218837738,0.07263396680355072,-0.3392564356327057
1700516552133169200,5.579169189453125,-0.018277201801538467,-0.08696767687797546,-0.11876454204320908
1700516552143180000,5.589179931640625,0.0015760265523567796,0.06192861869931221,0.054216787219047546
1700516552153190100,5.599190185546875,0.013647070154547691,-0.09560853987932205,-0.0037447838112711906
1700516552163200300,5.6092001953125,-0.04118790477514267,0.025217067450284958,-0.22559866309165955
1700516552173211400,5.61921142578125,0.0016085635870695114,-0.006684407126158476,-0.10064473748207092
1700516552183221200,5.62922119140625,-0.03287176415324211,-0.010528876446187496,0.0371820293366909
1700516552193231000,5.639231201171875,0.03652648627758026,0.10595165938138962,0.19381026923656464
1700516552203242200,5.6492421875,-0.01807563565671444,-0.15838050842285156,0.1617763787508011
1700516552213252400,5.65925244140625,-0.025523699820041656,0.058101993054151535,-0.147997185587883
1700516552223262200,5.66926220703125,-0.021481992676854134,-0.033830344676971436,-0.027671920135617256
1700516552233273300,5.6792734375,-0.01213802583515644,0.09149961173534393,0.15198279917240143
1700516552243283200,5.689283203125,0.014933111146092415,-0.10228029638528824,0.1865692436695099
1700516552253293300,5.699293212890625,-0.04281780496239662,-0.026918165385723114,-0.07398086786270142
1700516552263303200,5.70930322265625,-0.001163011766038835,0.05546746402978897,-0.029791412875056267
1700516552273314300,5.719314208984375,-0.029017280787229538,-0.018294107168912888,0.018768131732940674
1700516552283324200,5.72932421875,0.02773611806333065,0.12407203018665314,0.13535089790821075
1700516552293334300,5.739334228515625,0.003978857770562172,-0.14717544615268707,0.19567762315273285
1700516552303348200,5.74934814453125,-0.014700043015182018,0.08888374269008636,-0.17729423940181732
1700516552313358300,5.7593583984375,0.002012890297919512,-0.006035843398422003,-0.08755236864089966
1700516552323368200,5.7693681640625,-0.002956419251859188,0.1063443273305893,0.09547629952430725
1700516552333379300,5.77937939453125,0.060453444719314575,-0.03575129434466362,0.18532602488994598
1700516552343389200,5.78938916015625,-0.008914671838283539,0.022730795666575432,-0.08274045586585999
1700516552353399300,5.7993994140625,0.018503636121749878,0.08738089352846146,-0.08070313930511475
1700516552363410200,5.80941015625,-0.013294540345668793,0.014548064209520817,0.018018990755081177
1700516552373420300,5.819420166015625,0.07112766802310944,0.14964888989925385,0.16869452595710754
1700516552383430100,5.82943017578125,0.01704050414264202,-0.1300923228263855,0.2060943990945816
1700516552393441500,5.839441650390625,-0.007578555028885603,0.08825600147247314,-0.21370793879032135
1700516552403451400,5.849451416015625,-0.008632147684693336,-0.0449485220015049,-0.10116059333086014
1700516552413461500,5.85946142578125,0.0013922564685344696,0.07492755353450775,0.08689559996128082
1700516552423472400,5.869472412109375,0.027867691591382027,-0.07381552457809448,0.1784999966621399
1700516552433482500,5.879482421875,-0.012868021614849567,-0.01987399347126484,-0.163453608751297
1700516552443492400,5.889492431640625,-0.014506443403661251,0.01610039360821247,-0.16270308196544647
1700516552453503500,5.89950341796875,-0.022927625104784966,-0.0570843368768692,-0.009519391693174839
1700516552463513300,5.909513427734375,0.027659978717565536,0.08731020987033844,0.14704598486423492
1700516552473523500,5.9195234375,-0.003858001669868827,-0.11957959085702896,0.1221528872847557
1700516552483534300,5.929534423828125,-0.027424432337284088,0.015024659223854542,-0.26206880807876587
1700516552493544400,5.93954443359375,-0.01113014668226242,-0.04038134217262268,-0.1676616221666336
1700516552503554300,5.94955419921875,-0.008861874230206013,0.034412555396556854,0.04672097787261009
1700516552513565200,5.959565185546875,0.01753830909729004,-0.03805471956729889,0.14912405610084534
1700516552523575300,5.9695751953125,0.001956697553396225,0.0014668138464912772,-0.1660490483045578
1700516552533585400,5.97958544921875,0.00016092800069600344,0.03276534751057625,-0.11608441174030304
1700516552543595300,5.98959521484375,-0.013742104172706604,-0.0389019139111042,0.03975418582558632
1700516552553606100,5.999606201171875,0.04559898376464844,0.09508145600557327,0.12269674241542816
1700516552563616300,6.0096162109375,0.03241901472210884,-0.10383142530918121,0.2389802485704422
1700516552573626400,6.01962646484375,-0.007430932018905878,0.0840870812535286,-0.16851748526096344
1700516552583637200,6.02963720703125,0.009799149818718433,0.02281719446182251,-0.05895329639315605
1700516552593647400,6.0396474609375,0.014976867474615574,0.06137736886739731,0.14967980980873108
1700516552603657200,6.0496572265625,0.030495837330818176,-0.024675559252500534,0.24894529581069946
1700516552613668400,6.05966845703125,0.031507305800914764,0.09738856554031372,-0.10060018301010132
1700516552623678500,6.069678466796875,-0.015027612447738647,0.04858691990375519,-0.0730258896946907
1700516552633688600,6.0796884765625,-0.015239866450428963,0.033891864120960236,0.08354561030864716
1700516552643699500,6.089699462890625,0.06783644109964371,0.1850532442331314,0.16627536714076996
1700516552653709300,6.099709228515625,-0.0022337266709655523,-0.26931053400039673,0.4682703912258148
1700516552663719400,6.109719482421875,0.020817231386899948,0.1797001212835312,-0.4603993594646454
1700516552673730300,6.119730224609375,-0.07769042998552322,-0.06505849957466125,0.018936071544885635
1700516552683740400,6.129740478515625,0.044814541935920715,0.1548892855644226,0.26069149374961853
1700516552693750300,6.139750244140625,-0.053267285227775574,-0.17451044917106628,0.09866742044687271
1700516552703761400,6.149761474609375,0.03363676369190216,0.11460964381694794,-0.269075870513916
1700516552713771300,6.159771240234375,-0.08497589826583862,-0.01980462484061718,0.05383029207587242
1700516552723781400,6.169781494140625,0.005638886243104935,0.19494302570819855,0.17628231644630432
1700516552733792300,6.179792236328125,0.035009291023015976,-0.15930293500423431,0.2833525836467743
1700516552743802400,6.18980224609375,-0.03727369382977486,0.03200230747461319,-0.26202473044395447
1700516552753812200,6.199812255859375,-0.03145654872059822,0.11186118423938751,-0.08111032843589783
1700516552763822300,6.209822265625,0.04238780215382576,0.09401653707027435,0.2995644807815552
1700516552773833200,6.219833251953125,-0.0404873751103878,-0.14663654565811157,0.1619778275489807
1700516552783843300,6.22984326171875,0.016690630465745926,0.13224083185195923,-0.06375180929899216
1700516552793853200,6.239853271484375,-0.01764417439699173,0.12611448764801025,-0.060291558504104614
1700516552803864300,6.2498642578125,0.0577201321721077,-0.4052395522594452,0.41398078203201294
1700516552813874200,6.259874267578125,-0.005526479333639145,0.207182839512825,-0.31866174936294556
1700516552823884300,6.26988427734375,-0.14931131899356842,0.13987399637699127,0.17523536086082458
1700516552833895400,6.2798955078125,0.11085449159145355,0.013309134170413017,-0.06841618567705154
1700516552843905500,6.289905517578125,-0.12235250324010849,-0.03661336004734039,-0.07704931497573853
1700516552853915400,6.299915283203125,0.07867301255464554,0.037084829062223434,-0.11042431741952896
1700516552863926500,6.309926513671875,-0.13632716238498688,0.12895451486110687,0.5613802075386047
1700516552873936400,6.319936279296875,0.034282125532627106,-0.3196379244327545,-0.24877896904945374
1700516552883946500,6.329946533203125,-0.12843848764896393,0.4020293354988098,-0.2625020146369934
1700516552893957400,6.339957275390625,0.1298053115606308,-0.2665247619152069,0.3110065460205078
1700516552903967500,6.349967529296875,0.005694938823580742,0.10694967210292816,-0.27603814005851746
1700516552913977300,6.359977294921875,-0.026912005618214607,-0.040144700556993484,-0.2198697030544281
1700516552923987500,6.369987548828125,0.11099585890769958,-0.08508520573377609,0.5981701016426086
1700516552933998300,6.379998291015625,-0.04716741293668747,-0.01259023416787386,-0.20678548514842987
1700516552944008400,6.390008544921875,-0.05621454864740372,0.27624082565307617,-0.016623061150312424
1700516552954018300,6.400018310546875,0.04905488342046738,-0.2031736969947815,-0.01726408302783966
1700516552964029400,6.410029541015625,-0.05519792065024376,-0.012862101197242737,-0.20327626168727875
1700516552974039300,6.420039306640625,0.036885932087898254,0.18564645946025848,-0.035818830132484436
1700516552984049400,6.43004931640625,-0.003933688160032034,-0.29660534858703613,-0.23932257294654846
1700516552994060300,6.440060302734375,-0.11512971669435501,0.21585263311862946,-0.4040529131889343
1700516553004070400,6.4500703125,0.0895320475101471,-0.3185880482196808,-0.062039315700531006
1700516553014080300,6.460080322265625,0.05055748298764229,-0.08599554747343063,-0.11836384236812592
1700516553024091100,6.470091064453125,-0.16416360437870026,0.3476957082748413,0.2620486319065094
1700516553034101200,6.480101318359375,0.18783144652843475,-0.718059778213501,-0.020853372290730476
1700516553044111400,6.490111328125,0.15541812777519226,0.4616433084011078,-0.543627142906189
1700516553054121200,6.500121337890625,-0.06955826282501221,0.23157919943332672,0.09531500190496445
1700516553064132400,6.51013232421875,0.1140175610780716,-0.5508259534835815,-0.06411072611808777
1700516553074142500,6.520142578125,-0.045136138796806335,0.696012020111084,0.32797718048095703
1700516553084152600,6.530152587890625,-0.021213922649621964,-0.4264865219593048,0.33892562985420227
1700516553094163500,6.54016357421875,0.10250429064035416,0.26485252380371094,-0.13425229489803314
1700516553104173300,6.55017333984375,0.035722360014915466,0.029133662581443787,0.20024080574512482
1700516553114183400,6.560183349609375,0.05194234475493431,-0.27659907937049866,-0.1229361891746521
1700516553124194300,6.5701943359375,-0.08202411979436874,0.561299204826355,0.3287019431591034
1700516553134204400,6.580204345703125,0.09215753525495529,-0.5955036878585815,0.17473475635051727
1700516553144214300,6.59021435546875,0.053022272884845734,0.4225144684314728,-0.13153202831745148
1700516553154225400,6.600225341796875,0.024260398000478745,0.03781845420598984,0.18200911581516266
1700516553164235300,6.6102353515625,0.06386497616767883,-0.6435922980308533,-0.348886102437973
1700516553174245400,6.620245361328125,-0.009595930576324463,0.1614764928817749,-0.3843863010406494
1700516553184255500,6.63025537109375,0.05433616414666176,-0.056400664150714874,-0.3073749244213104
1700516553194266400,6.640266357421875,0.02300860360264778,-0.49567312002182007,-0.7237388491630554
1700516553204276200,6.650276123046875,0.028865519911050797,0.5494846701622009,0.18300136923789978
1700516553214286300,6.660286376953125,0.00016303523443639278,-0.5831094980239868,0.1776963472366333
1700516553224297200,6.670297119140625,-0.09156087040901184,0.17445017397403717,0.26612788438796997
1700516553234307300,6.680307373046875,-0.06765606999397278,0.5081959366798401,0.49349766969680786
1700516553244317200,6.690317138671875,-0.1371903419494629,-0.8265232443809509,-0.32953593134880066
1700516553254328300,6.700328369140625,-0.1740724742412567,-0.2500080168247223,-0.5583714842796326
1700516553264338200,6.710338134765625,-0.14950163662433624,1.0087047815322876,-0.20475651323795319
1700516553274348300,6.720348388671875,0.045478757470846176,-0.15910865366458893,0.8321985006332397
1700516553284358100,6.730358154296875,0.05954711139202118,-0.4989864230155945,0.7169259786605835
1700516553294369500,6.74036962890625,-0.03547634184360504,0.5612308382987976,0.5580833554267883
1700516553304376600,6.75037646484375,0.036618608981370926,0.011822848580777645,0.2290552258491516
1700516553314386700,6.76038671875,-0.08736351877450943,-0.08422406017780304,-0.4059470295906067
1700516553324397600,6.7703974609375,0.0009344125865027308,-0.08892836421728134,-0.49264097213745117
1700516553334407700,6.78040771484375,-0.026549676433205605,-0.2762865424156189,-0.992952287197113
1700516553344417500,6.79041748046875,0.05922204628586769,0.13951943814754486,-0.24946703016757965
1700516553354427600,6.800427734375,-0.02875281497836113,-0.42862841486930847,0.31893277168273926
1700516553364438500,6.8104384765625,-0.03813857212662697,0.42710617184638977,0.6298897862434387
1700516553374448600,6.82044873046875,-0.010141023434698582,0.05514275282621384,0.5491491556167603
1700516553384458500,6.83045849609375,0.030566316097974777,-0.11514148116111755,0.07947681844234467
1700516553394469400,6.840469482421875,-0.0214630626142025,0.11436334997415543,-0.13948002457618713
1700516553404479500,6.8504794921875,-0.004751222673803568,0.2035127580165863,-0.39403048157691956
1700516553414489600,6.860489501953125,0.05793799087405205,-0.032762616872787476,0.044347673654556274
1700516553424499500,6.87049951171875,0.06454544514417648,-0.5175651907920837,0.050573114305734634
1700516553434510600,6.880510498046875,-0.011438800022006035,0.4739496409893036,0.43069353699684143
1700516553444520400,6.8905205078125,0.05335559323430061,-0.36653774976730347,0.3393876254558563
1700516553454530600,6.900530517578125,-0.04725943133234978,0.43672651052474976,0.2929258644580841
1700516553464541400,6.91054150390625,0.08899425715208054,-0.2655329704284668,0.017356950789690018
1700516553474551600,6.920551513671875,0.044633980840444565,-0.5835059285163879,-0.9970328211784363
1700516553484561400,6.9305615234375,-0.02173801325261593,0.23266801238059998,-0.7591896057128906
1700516553494571500,6.940571533203125,-0.01782982423901558,-0.13262207806110382,-0.04503283649682999
1700516553504582400,6.95058251953125,0.07503904402256012,-0.136332705616951,0.8423766493797302
1700516553514592500,6.960592529296875,-0.02617173083126545,-0.1345665007829666,0.6619219183921814
1700516553524602400,6.970602294921875,0.10295680165290833,0.3786509931087494,0.2374098300933838
1700516553534613500,6.980613525390625,0.08287177234888077,-0.28081825375556946,-0.10024624317884445
1700516553544623600,6.99062353515625,-0.06568488478660583,0.3031398057937622,-0.07463345676660538
1700516553554633700,7.0006337890625,0.07023832201957703,-0.3594948947429657,-0.12431206554174423
1700516553564643600,7.0106435546875,-0.0075526973232626915,0.4851207435131073,0.18132424354553223
1700516553574654500,7.020654541015625,0.06439686566591263,0.06079584360122681,0.5280103087425232
1700516553584664600,7.03066455078125,0.008775496855378151,0.09373785555362701,0.2280217558145523
1700516553594674700,7.0406748046875,0.11595894396305084,-0.04692339152097702,0.23117467761039734
1700516553604685600,7.050685546875,0.002198923844844103,-0.024837862700223923,-0.203782320022583
1700516553614695400,7.0606953125,-0.014239171519875526,0.11332720518112183,0.1816713660955429
1700516553624705500,7.07070556640625,-0.015403642319142818,-0.3735617995262146,0.04450352489948273
1700516553634715600,7.080715576171875,-0.009159062057733536,0.05227471888065338,0.12022704631090164
1700516553644726500,7.0907265625,0.047296155244112015,-0.5546155571937561,-0.4146518111228943
1700516553654736600,7.100736572265625,-0.07633044570684433,0.21457485854625702,-0.5705550909042358
1700516553664746500,7.11074658203125,-0.09771328419446945,-0.23553511500358582,-0.22477999329566956
1700516553674756600,7.120756591796875,-0.010827388614416122,0.22062017023563385,-0.10101037472486496
1700516553684767500,7.130767578125,0.1621595025062561,-0.307379812002182,-0.03026404231786728
1700516553694777600,7.140777587890625,0.028208624571561813,0.09221071004867554,-0.3955615758895874
1700516553704787500,7.150787353515625,0.06947829574346542,-0.06160116195678711,-0.1521485447883606
1700516553714797600,7.160797607421875,-0.03655838966369629,0.0231185182929039,-0.16973738372325897
1700516553724808400,7.170808349609375,0.16701050102710724,0.03878628462553024,0.22834816575050354
1700516553734818600,7.180818603515625,0.015794342383742332,-0.017162466421723366,-0.014416017569601536
1700516553744828400,7.190828369140625,0.054091423749923706,0.2602996826171875,0.2745238244533539
1700516553754839300,7.20083935546875,0.004516680724918842,0.005667383782565594,0.07763287425041199
1700516553764849400,7.210849365234375,0.19436275959014893,0.0850808173418045,0.40036094188690186
1700516553774859500,7.220859619140625,0.049277469515800476,-0.09441757202148438,-0.01795163005590439
1700516553784869400,7.230869384765625,0.0063392966985702515,0.3023863434791565,0.24528488516807556
1700516553794880500,7.240880615234375,0.0028116735629737377,-0.14884476363658905,0.06465517729520798
1700516553804890400,7.250890380859375,0.20860247313976288,0.053938157856464386,0.2895617187023163
1700516553814900500,7.260900390625,-0.006879472639411688,0.019037699326872826,-0.13888683915138245
1700516553824910300,7.270910400390625,0.059014737606048584,0.24067559838294983,0.1522078961133957
1700516553834921500,7.28092138671875,0.008863684721291065,-0.14492028951644897,-0.00004263315349817276
1700516553844931600,7.290931640625,0.16555023193359375,-0.02922585792839527,0.3865795135498047
1700516553854941700,7.300941650390625,0.031261932104825974,0.05448395386338234,-0.17820584774017334
1700516553864951600,7.31095166015625,0.06273144483566284,-0.03461524099111557,0.02751387469470501
1700516553874962700,7.320962646484375,-0.09978130459785461,-0.0980602577328682,-0.10273680090904236
1700516553884972500,7.33097265625,0.15922924876213074,-0.34109219908714294,-0.2016775757074356
1700516553894982700,7.340982666015625,-0.03054974600672722,-0.0264386348426342,-0.54966139793396
1700516553904992500,7.350992431640625,0.031932443380355835,-0.1503778100013733,-0.3290822207927704
1700516553915003600,7.361003662109375,-0.1290508508682251,-0.42224207520484924,-0.6270699501037598
1700516553925013500,7.371013427734375,0.02764475718140602,-0.09627910703420639,-0.3482525944709778
1700516553935023600,7.381023681640625,0.003517051227390766,-0.4347575604915619,-0.7016338109970093
1700516553945033500,7.391033447265625,0.0645889937877655,0.6340102553367615,0.12622752785682678
1700516553955044600,7.401044677734375,-0.038579463958740234,-0.3877841532230377,-0.002507813274860382
1700516553965054500,7.411054443359375,0.04106151685118675,0.2761339247226715,0.5146566033363342
1700516553975064600,7.421064697265625,-0.027536185458302498,-0.24170708656311035,-0.23899194598197937
1700516553985074400,7.431074462890625,0.02209894359111786,0.4430961012840271,0.35477614402770996
1700516553995085600,7.44108544921875,-0.12322922050952911,0.2637886703014374,0.6652328372001648
1700516554005095400,7.451095458984375,0.1333991289138794,-0.14372482895851135,0.28121089935302734
1700516554015105500,7.46110546875,0.08901169151067734,0.44892627000808716,0.16857652366161346
1700516554025115400,7.471115478515625,0.08432355523109436,-0.20965085923671722,0.12826550006866455
1700516554035125500,7.48112548828125,0.11082866787910461,0.10240291059017181,0.23958057165145874
1700516554045136400,7.491136474609375,0.10296723246574402,-0.020915210247039795,-0.3044346272945404
1700516554055146500,7.501146484375,0.14246323704719543,0.349841833114624,-0.035703547298908234
1700516554065156400,7.51115625,0.03553980961441994,-0.18536493182182312,-0.07509409636259079
1700516554075166500,7.52116650390625,0.22828157246112823,-0.01618790067732334,0.1334386169910431
1700516554085177300,7.53117724609375,0.019930027425289154,0.1755349487066269,-0.010717624798417091
1700516554095187500,7.5411875,0.07829373329877853,-0.09946678578853607,0.21743431687355042
1700516554105197300,7.551197265625,-0.09539211541414261,0.3608942925930023,0.5097134709358215
1700516554115207400,7.56120751953125,0.1776473969221115,-0.34496963024139404,-0.025527864694595337
1700516554125218600,7.571218505859375,-0.014432829804718494,0.2634507715702057,0.04263395071029663
1700516554135228400,7.581228515625,-0.043408822268247604,-0.29565006494522095,0.19126230478286743
1700516554145238300,7.59123828125,0.05921640619635582,0.12616200745105743,0.12291863560676575
1700516554155248400,7.601248291015625,-0.02153196930885315,-0.28232988715171814,-0.3237440884113312
1700516554165258500,7.611258544921875,-0.046000055968761444,0.10572894662618637,-0.23789019882678986
1700516554175269600,7.62126953125,-0.17190951108932495,-0.14272905886173248,-0.42738422751426697
1700516554185279500,7.631279541015625,0.053436361253261566,-0.3744397461414337,-0.3134022057056427
1700516554195289600,7.64128955078125,-0.030946696177124977,-0.10907252132892609,-0.5361559391021729
1700516554205299700,7.6512998046875,0.06777127832174301,-0.2883318364620209,-0.6031383872032166
1700516554215310600,7.661310546875,-0.033961474895477295,0.04744935780763626,-0.4388882517814636
1700516554225320700,7.67132080078125,0.07338766008615494,-0.3337656259536743,-0.36745914816856384
1700516554235330600,7.68133056640625,0.14757268130779266,0.5568151473999023,0.24557548761367798
1700516554245340700,7.691340576171875,-0.0009043448371812701,0.07627971470355988,0.7674473524093628
1700516554255350500,7.7013505859375,0.17876608669757843,0.147605299949646,0.8415111899375916
1700516554265361700,7.711361572265625,0.10270315408706665,0.41120898723602295,0.4327315092086792
1700516554275371500,7.72137158203125,0.025032861158251762,0.08386439830064774,0.5088939070701599
1700516554285381600,7.731381591796875,-0.02842172421514988,0.23162616789340973,0.3909842371940613
1700516554295391500,7.7413916015625,0.08004589378833771,-0.2728029191493988,-0.34470468759536743
1700516554305402400,7.75140234375,-0.03711749613285065,0.35721322894096375,-0.23027870059013367
1700516554315412200,7.761412109375,-0.0678250715136528,-0.13059747219085693,-0.004126789979636669
1700516554325422300,7.77142236328125,0.16900528967380524,-0.3411904573440552,0.07403475791215897
1700516554335432200,7.78143212890625,0.02746892161667347,0.17622658610343933,-0.40896305441856384
1700516554345442300,7.7914423828125,0.018076034262776375,0.04199190065264702,-0.03493751585483551
1700516554355453400,7.801453369140625,-0.09470191597938538,-0.040217481553554535,0.19938071072101593
1700516554365463600,7.811463623046875,0.011902227997779846,-0.22036880254745483,-0.2757081389427185
1700516554375473400,7.821473388671875,0.13570167124271393,0.1289985179901123,0.026893794536590576
1700516554385483500,7.8314833984375,-0.06345374137163162,0.1332002580165863,0.24869924783706665
1700516554395493600,7.84149365234375,0.14012175798416138,-0.08831349015235901,0.18682177364826202
1700516554405504500,7.85150439453125,0.05604727566242218,0.27801457047462463,0.07937213033437729
1700516554415514400,7.861514404296875,0.05109778791666031,-0.15109339356422424,0.30396154522895813
1700516554425524500,7.8715244140625,0.06380052864551544,0.22562932968139648,0.41620299220085144
1700516554435534600,7.88153466796875,0.03435822203755379,0.2810544967651367,-0.10306656360626221
1700516554445544400,7.89154443359375,0.0623893067240715,0.026664290577173233,0.110793836414814
1700516554455555300,7.901555419921875,-0.009134412743151188,-0.0060529084876179695,-0.09740836918354034
1700516554465565400,7.9115654296875,0.10344456881284714,-0.47594618797302246,-0.4263349771499634
1700516554475575600,7.921575439453125,-0.04234858974814415,0.15520861744880676,-0.4149954915046692
1700516554485585400,7.93158544921875,0.02962956391274929,-0.43875381350517273,-0.25349801778793335
1700516554495595500,7.941595458984375,0.043602105230093,-0.08221433311700821,0.016373153775930405
1700516554505606400,7.9516064453125,-0.01275894045829773,-0.48219844698905945,-0.5271495580673218
1700516554515616500,7.961616455078125,0.14904619753360748,0.034043870866298676,-0.34551292657852173
1700516554525626400,7.97162646484375,-0.006257026921957731,0.2410518378019333,0.05671317130327225
1700516554535636500,7.981636474609375,0.05518023297190666,-0.25271525979042053,0.09181789308786392
1700516554545646300,7.991646240234375,0.07121707499027252,0.41392260789871216,0.020854562520980835
1700516554555657500,8.001657470703124,-0.017052870243787766,0.12066276371479034,0.2120913714170456
1700516554565667300,8.011667236328124,0.08745554089546204,0.10462561994791031,0.4823027551174164
1700516554575677400,8.021677490234374,0.021020855754613876,0.19206225872039795,0.1328401118516922
1700516554585687300,8.031687255859374,-0.0015683674719184637,0.4323025047779083,0.6455984115600586
1700516554595697400,8.041697509765624,-0.03544643893837929,0.34093770384788513,0.9119457006454468
1700516554605707500,8.05170751953125,0.17054805159568787,0.022497791796922684,-0.05900534987449646
1700516554615718400,8.061718505859375,0.12449587881565094,0.2290075570344925,-0.32273367047309875
1700516554625728300,8.071728271484375,-0.06135541573166847,-0.07072586566209793,-0.2973363399505615
1700516554635738400,8.08173828125,0.20109671354293823,-0.41272422671318054,-0.43390244245529175
1700516554645748500,8.09174853515625,0.012765094637870789,0.13502104580402374,-0.2922855615615845
1700516554655758300,8.10175830078125,0.08443475514650345,-0.242599219083786,-0.19141700863838196
1700516554665769200,8.111769287109375,0.021954931318759918,0.07581552863121033,-0.23620079457759857
1700516554675779300,8.121779296875,0.08195062726736069,-0.05168597027659416,-0.5593026876449585
1700516554685789400,8.13178955078125,0.1531679779291153,0.2855554521083832,0.26431429386138916
1700516554695799300,8.14179931640625,0.03153422102332115,0.208293154835701,0.6436834335327148
1700516554705809400,8.151809326171875,0.14809942245483398,-0.1296970397233963,0.4022013545036316
1700516554715819300,8.1618193359375,0.005461857188493013,0.2912379503250122,-0.06283636391162872
1700516554725830400,8.171830322265626,-0.09912283718585968,-0.1869286745786667,0.01993660070002079
1700516554735840300,8.18184033203125,0.0029979394748806953,0.058259516954422,0.11360370367765427
1700516554745850400,8.191850341796876,-0.012960542924702168,0.023916125297546387,-0.2432623654603958
1700516554755860200,8.201860107421876,0.007473359815776348,-0.09667793661355972,0.170126810669899
1700516554765870300,8.211870361328126,-0.07914863526821136,0.04208387807011604,-0.022350311279296875
1700516554775880400,8.22188037109375,0.0731615349650383,-0.5622912049293518,-0.7613769173622131
1700516554785891300,8.231891357421874,-0.007781974971294403,0.21875497698783875,-0.6074443459510803
1700516554795901200,8.241901123046874,-0.10728806257247925,-0.2966271638870239,-0.1620383858680725
1700516554805911300,8.251911376953124,0.055721674114465714,-0.15038926899433136,0.15352734923362732
1700516554815921400,8.26192138671875,0.09253135323524475,0.01181986927986145,-0.1875293105840683
1700516554825931300,8.27193115234375,0.0763302892446518,0.01027060765773058,-0.125923290848732
1700516554835941400,8.28194140625,-0.020243387669324875,0.2894580364227295,0.24306726455688477
1700516554845952300,8.2919521484375,0.019887981936335564,-0.2057894468307495,-0.36020827293395996
1700516554855962400,8.30196240234375,-0.0006156949675641954,-0.1949349343776703,-0.6266863346099854
1700516554865972200,8.31197216796875,-0.1457943320274353,-0.07996052503585815,-0.7161033749580383
1700516554875982300,8.321982421875,0.03870201110839844,-0.04424327611923218,-0.20269837975502014
1700516554885992200,8.3319921875,-0.001419109757989645,-0.09015097469091415,-0.2528958022594452
1700516554896002300,8.342002197265625,0.026929441839456558,-0.22679589688777924,0.5301417708396912
1700516554906013400,8.352013427734375,-0.05551197752356529,0.12172327935695648,0.9460811018943787
1700516554916023600,8.3620234375,0.07037325203418732,0.4386618137359619,0.4237380027770996
1700516554926033400,8.372033447265625,0.08558633178472519,0.5331274271011353,0.7515069842338562
1700516554936043500,8.38204345703125,0.0082571841776371,0.4727226495742798,1.0625652074813843
1700516554946053600,8.3920537109375,0.30896395444869995,-0.23364533483982086,0.6050543785095215
1700516554956063200,8.402063232421876,0.11859134584665298,0.27744030952453613,0.10123090445995331
1700516554966074400,8.412074462890626,-0.060567788779735565,-0.09447446465492249,-0.12165718525648117
1700516554976084500,8.42208447265625,0.08512922376394272,-0.4118119478225708,-0.1537378877401352
1700516554986094600,8.432094482421874,-0.042628951370716095,0.1758066862821579,-0.5200434327125549
1700516554996104400,8.4421044921875,-0.01876090280711651,-0.6815913915634155,-0.165657177567482
1700516555006114600,8.452114501953124,-0.015397070907056332,0.3016406297683716,-0.10709762573242188
1700516555016124400,8.46212451171875,0.08230391889810562,-0.25856703519821167,-0.4223863184452057
1700516555026134500,8.472134521484374,0.0888676866889,0.053482525050640106,0.065447598695755
1700516555036145400,8.4821455078125,0.0625724345445633,0.027640540152788162,0.15003812313079834
1700516555046155500,8.492155517578125,0.29961520433425903,-0.23141451179981232,-0.18581880629062653
1700516555056165400,8.502165283203125,0.016484428197145462,0.3241850733757019,-0.27032169699668884
1700516555066175500,8.512175537109375,0.017423538491129875,-0.26978200674057007,-0.16088545322418213
1700516555076185300,8.522185302734375,-0.041241373866796494,0.11210782825946808,-0.02579420991241932
1700516555086195500,8.532195556640625,-0.027427492663264275,-0.24934259057044983,-0.596518337726593
1700516555096206300,8.542206298828125,-0.10461974889039993,-0.07294439524412155,-0.4360269606113434
1700516555106216400,8.552216552734375,-0.17431239783763885,-0.012282486073672771,-0.04346885532140732
1700516555116226600,8.5622265625,0.027318451553583145,-0.3161832392215729,-0.027073370292782784
1700516555126236400,8.572236328125,0.018529435619711876,-0.3474781811237335,-0.6804633736610413
1700516555136246500,8.58224658203125,0.022055460140109062,0.13261039555072784,0.0046614245511591434
1700516555146256400,8.59225634765625,0.041060321033000946,-0.020788419991731644,0.8852410316467285
1700516555156266500,8.6022666015625,0.07645133137702942,0.2699107825756073,0.8267481327056885
1700516555166277400,8.61227734375,0.20845389366149902,0.44479280710220337,0.9984470009803772
1700516555176287500,8.62228759765625,0.21662525832653046,0.22810712456703186,1.0452708005905151
1700516555186297300,8.63229736328125,0.26477715373039246,0.0540650337934494,-0.054346758872270584
1700516555196307500,8.642307373046876,0.057208769023418427,0.35496148467063904,0.13680854439735413
1700516555206317300,8.6523173828125,0.09375179558992386,-0.12719383835792542,0.2976495921611786
1700516555216327400,8.662327392578124,0.22962628304958344,-0.4385722279548645,-0.007853848859667778
1700516555226337500,8.672337646484374,0.00719641475006938,0.40075334906578064,-0.2587302029132843
1700516555236347400,8.682347412109374,0.1686316579580307,-0.5323706269264221,-0.12079286575317383
1700516555246358300,8.692358154296874,0.13712510466575623,0.08815447241067886,-0.2394867241382599
1700516555256368400,8.702368408203125,0.07154104113578796,-0.18988433480262756,-0.7748721241950989
1700516555266378500,8.71237841796875,-0.05385805293917656,-0.13302463293075562,-0.1479330211877823
1700516555276388400,8.722388427734375,-0.050290483981370926,-0.01617497391998768,-0.06213022768497467
1700516555286398500,8.7323984375,0.079038105905056,-0.3149089217185974,-0.20104357600212097
1700516555296408300,8.742408203125,-0.13604730367660522,0.0020415924955159426,0.1751236617565155
1700516555306422300,8.75242236328125,-0.18979042768478394,-0.46818482875823975,0.29367101192474365
1700516555316433200,8.76243310546875,-0.18991108238697052,-0.039138130843639374,0.2715689241886139
1700516555326443300,8.772443359375,-0.1657835841178894,0.031177807599306107,-0.07137586921453476
1700516555336453000,8.782453125,-0.09361964464187622,-0.0677943080663681,0.1944880336523056
1700516555346463200,8.792463134765624,-0.29330015182495117,0.20904648303985596,0.4314229190349579
1700516555356473000,8.80247314453125,0.13667279481887817,1.3565391302108765,-1.3586666584014893
1700516555366483200,8.812483154296874,-0.2504936158657074,-1.4366689920425415,-0.9332674145698547
1700516555376493300,8.822493408203124,-0.19157066941261292,0.1192607581615448,0.7062935829162598
1700516555386503200,8.832503173828124,-0.15687957406044006,-0.08995731920003891,0.9066652655601501
1700516555396514300,8.842514404296875,-0.1678195744752884,-0.31334060430526733,0.2820884883403778
1700516555406524200,8.852524169921875,-0.004822183400392532,-0.2479519546031952,-0.38259151577949524
1700516555416534300,8.8625341796875,-0.1542297750711441,0.13646335899829865,-0.4437291622161865
1700516555426544000,8.872544189453125,-0.02829235978424549,-0.26811668276786804,-0.644524097442627
1700516555436554200,8.88255419921875,0.018783805891871452,0.358421266078949,-0.15583354234695435
1700516555446564000,8.892564208984375,-0.10913372784852982,-0.5586795806884766,-0.03661619871854782
1700516555456574200,8.90257421875,-0.01975405216217041,0.22503282129764557,0.027372371405363083
1700516555466584300,8.912584228515625,-0.06143619865179062,-0.015423288568854332,-0.12636259198188782
1700516555476595200,8.92259521484375,-0.016106266528367996,-0.1988953799009323,0.12139500677585602
1700516555486605000,8.93260498046875,-0.09841407835483551,0.3702745735645294,0.3015732169151306
1700516555496615200,8.942615234375,-0.013971902430057526,-0.15870748460292816,0.04853031784296036
1700516555506625300,8.952625244140625,-0.08401276916265488,0.4569961726665497,0.3969876766204834
1700516555516635100,8.96263525390625,-0.1369692087173462,-0.035705652087926865,0.28375673294067383
1700516555526645200,8.972645263671875,-0.03578590974211693,0.12633313238620758,0.012363262474536896
1700516555536655000,8.982655029296875,-0.1043415367603302,0.31441861391067505,-0.06199752539396286
1700516555546665200,8.992665283203126,-0.06391064822673798,-0.15329159796237946,0.131914883852005
1700516555556675000,9.002675048828126,-0.0799868255853653,0.3746151030063629,0.2482590675354004
1700516555566686200,9.012686279296876,-0.11118724197149277,-0.046899132430553436,0.0019464392680674791
1700516555576696000,9.022696044921876,-0.028858548030257225,0.11471852660179138,-0.06659986823797226
1700516555586706200,9.0327060546875,-0.14540992677211761,0.11630741506814957,-0.3408585488796234
1700516555596716300,9.04271630859375,-0.018040252849459648,-0.2601549029350281,-0.522419810295105
1700516555606726100,9.05272607421875,0.0016969641437754035,0.34503746032714844,-0.4818412661552429
1700516555616736300,9.062736328125,0.008195077069103718,-0.40443411469459534,-0.14744651317596436
1700516555626746000,9.07274609375,-0.020984699949622154,0.2694450616836548,0.16589219868183136
1700516555636756200,9.082756103515624,-0.00883375946432352,-0.12255119532346725,-0.31881511211395264
1700516555646766000,9.09276611328125,0.18853743374347687,0.28128156065940857,-0.1765238344669342
1700516555656777500,9.102777587890625,-0.0665728971362114,0.09093797206878662,0.23465251922607422
1700516555666787000,9.112787109375,0.019474102184176445,-0.35651329159736633,-0.26717543601989746
1700516555676797200,9.122797119140625,0.057918962091207504,0.6608337163925171,-0.19271691143512726
1700516555686807000,9.13280712890625,0.009296995587646961,-0.31791988015174866,0.2675763666629791
1700516555696817200,9.142817138671875,-0.052441202104091644,0.15864481031894684,0.2527654767036438
1700516555706827300,9.1528271484375,-0.0672500804066658,0.042788464576005936,-0.21678709983825684
1700516555716837000,9.162837158203125,0.0022813293617218733,0.12863199412822723,-0.005027182400226593
1700516555726847200,9.17284716796875,-0.212190181016922,0.0003132595447823405,0.1198960393667221
1700516555736857000,9.182857177734375,-0.09772245585918427,-0.21217156946659088,-0.0613163560628891
1700516555746867200,9.1928671875,-0.01406686007976532,0.07874488085508347,-0.03954993933439255
1700516555756878300,9.20287841796875,-0.11148236691951752,-0.23319916427135468,-0.13710126280784607
1700516555766888400,9.212888427734375,0.016755498945713043,0.04970380291342735,0.14174385368824005
1700516555776898000,9.22289794921875,0.04626039043068886,0.08201727271080017,0.09142182022333145
1700516555786908200,9.232908203125,0.020942524075508118,0.011932296678423882,0.5489652752876282
1700516555796918300,9.242918212890626,-0.09461816400289536,0.40463536977767944,0.8170790076255798
1700516555806928100,9.25292822265625,0.13369955122470856,-0.0380796454846859,0.22526444494724274
1700516555816938200,9.262938232421876,-0.021262874826788902,0.3018147945404053,0.20059718191623688
1700516555826948000,9.272947998046876,-0.11888062953948975,0.03667375445365906,0.2554973065853119
1700516555836958200,9.282958251953126,0.09444177150726318,-0.4608161747455597,0.035611286759376526
1700516555846968000,9.292968017578126,-0.07682734727859497,0.3558098077774048,-0.2871306836605072
1700516555856979500,9.3029794921875,-0.09710758924484253,-0.5356351137161255,0.20882658660411835
1700516555866989300,9.3129892578125,-0.07187081128358841,0.09044183790683746,0.05103772133588791
1700516555876999400,9.32299951171875,-0.03206720948219299,-0.452324777841568,-0.4768844246864319
1700516555887009300,9.33300927734375,0.06734634935855865,-0.11655884981155396,-0.5888346433639526
1700516555897019100,9.34301904296875,-0.05124314874410629,-0.4414665997028351,-0.7748732566833496
1700516555907029200,9.353029296875,-0.05285318195819855,-0.3091076910495758,-0.4585570693016052
1700516555917039000,9.3630390625,0.09539887309074402,0.31247276067733765,-0.31796666979789734
1700516555927049200,9.37304931640625,0.1374414712190628,-0.14541170001029968,0.5110579133033752
1700516555937059000,9.38305908203125,0.0460875928401947,0.44503480195999146,1.1550911664962769
1700516555947069200,9.393069091796875,0.10805319994688034,0.09112575650215149,0.7075639963150024
1700516555957079300,9.403079345703125,0.07266910374164581,0.42919301986694336,0.554112434387207
1700516555967090400,9.41309033203125,-0.17860358953475952,0.19095082581043243,0.49311134219169617
1700516555977100300,9.423100341796875,0.07977789640426636,-0.15490297973155975,-0.1491381824016571
1700516555987110400,9.4331103515625,-0.024264246225357056,0.5152617692947388,0.04119255021214485
1700516555997120300,9.443120361328125,-0.05553561821579933,-0.2171674370765686,0.07294835150241852
1700516556007130000,9.453130126953125,-0.03387384116649628,-0.053923100233078,0.34307339787483215
1700516556017140200,9.46314013671875,0.07350242137908936,0.4519241154193878,0.11221698671579361
1700516556027150000,9.473150146484375,0.08868671953678131,-0.06836073845624924,0.16401295363903046
1700516556037160200,9.48316015625,-0.03334064781665802,0.3942551016807556,0.15593639016151428
1700516556047170000,9.493170166015625,0.15087637305259705,-0.30548298358917236,-0.16474589705467224
1700516556057180200,9.50318017578125,0.05546277388930321,0.2964731752872467,-0.2242923080921173
1700516556067190300,9.513190185546875,-0.0846581757068634,-0.2742719352245331,-0.23052221536636353
1700516556077201400,9.523201416015626,0.1567310243844986,-0.24833248555660248,-0.46446120738983154
1700516556087211300,9.533211181640626,-0.008648772723972797,-0.26644188165664673,-1.1562707424163818
1700516556097221400,9.543221435546876,0.016243260353803635,-0.06818284839391708,-0.7836737632751465
1700516556107231500,9.5532314453125,-0.13027475774288177,-0.4131065607070923,-0.767632246017456
1700516556117241000,9.563240966796876,-0.0812763199210167,-0.4825391471385956,-0.7251521944999695
1700516556127251200,9.573251220703124,0.12807157635688782,0.7296677827835083,-0.4491674602031708
1700516556137261000,9.583260986328124,0.11178635060787201,-0.3450510799884796,-0.15038421750068665
1700516556147271200,9.593271240234374,0.03197231888771057,0.35087019205093384,0.7165577411651611
1700516556157281300,9.60328125,0.010143189691007137,0.2193845957517624,0.46426689624786377
1700516556167291100,9.613291015625,0.035699132829904556,0.5413269996643066,0.7621347308158875
1700516556177301200,9.62330126953125,-0.03865738958120346,0.5612639784812927,1.1349232196807861
1700516556187311000,9.63331103515625,0.13399113714694977,-0.12403055280447006,0.32087406516075134
1700516556197321200,9.6433212890625,-0.0017496387008577585,0.590328574180603,0.13429352641105652
1700516556207331000,9.6533310546875,-0.06115150824189186,-0.2141839861869812,0.108147032558918
1700516556217342500,9.663342529296875,0.02586488611996174,-0.44543930888175964,0.04395286738872528
1700516556227352300,9.673352294921875,-0.027329396456480026,0.284967303276062,-0.051274605095386505
1700516556237362200,9.683362060546875,0.04204008728265762,-0.585049033164978,0.13601592183113098
1700516556247372000,9.6933720703125,-0.01492167729884386,0.018979044631123543,0.09305328875780106
1700516556257382100,9.703382080078125,0.0838664248585701,-0.18435809016227722,-0.5781280398368835
1700516556267392300,9.713392333984375,0.07559290528297424,0.3036894202232361,-0.4484767019748688
1700516556277402000,9.723402099609375,-0.058339592069387436,-0.31627318263053894,-0.42483794689178467
1700516556287412200,9.733412109375,-0.025986429303884506,-0.054342541843652725,-0.6136064529418945
1700516556297422000,9.743422119140625,0.0065384902991354465,0.20889975130558014,-0.5821454524993896
1700516556307432000,9.753431884765625,0.10492288321256638,-0.20931732654571533,-0.3423082232475281
1700516556317442000,9.763442138671875,-0.10553900897502899,0.33950692415237427,-0.012139100581407547
1700516556327452000,9.773451904296875,0.0015978323062881827,-0.3388127386569977,-0.46583202481269836
1700516556337462000,9.7834619140625,-0.04727836325764656,0.16462059319019318,-0.1291581243276596
1700516556347472000,9.793471923828125,-0.06593085825443268,-0.06375085562467575,-0.2339860498905182
1700516556357483000,9.80348291015625,-0.00030976685229688883,0.14545296132564545,0.03204535320401192
1700516556367492900,9.813492919921876,0.005774435121566057,0.056254785507917404,-0.336596816778183
1700516556377503000,9.8235029296875,0.02550925686955452,0.012758176773786545,0.1261090338230133
1700516556387512800,9.833512939453126,0.03468332812190056,0.35186630487442017,0.5275028944015503
1700516556397523000,9.84352294921875,0.14498932659626007,0.2081299126148224,0.19765017926692963
1700516556407533000,9.853532958984376,0.1335064172744751,0.5352113842964172,0.5121625065803528
1700516556417543000,9.86354296875,0.020869357511401176,0.211727574467659,0.44898512959480286
1700516556427553000,9.873552978515624,0.200485959649086,-0.21187740564346313,0.4793243706226349
1700516556437563000,9.88356298828125,0.05862016603350639,0.4649907946586609,0.1709769368171692
1700516556447573000,9.893572998046874,-0.005745519418269396,-0.30953270196914673,0.2443743497133255
1700516556457582800,9.903582763671874,0.10432319343090057,0.11454933136701584,0.36108046770095825
1700516556467593000,9.913593017578124,0.09027818590402603,0.24393057823181152,-0.2185552418231964
1700516556477603000,9.92360302734375,-0.04825545847415924,-0.19013698399066925,0.2425766885280609
1700516556487613000,9.933613037109374,-0.035885438323020935,0.348811537027359,-0.258516788482666
1700516556497623000,9.943623046875,0.06139318272471428,-0.6502874493598938,-0.40213361382484436
1700516556507633000,9.9536328125,-0.08112844824790955,0.34909719228744507,-0.5260672569274902
1700516556517643000,9.96364306640625,0.015010063536465168,-0.5426334738731384,-0.40070798993110657
1700516556527652900,9.97365283203125,-0.07272583991289139,0.1942894607782364,-0.08651583641767502
1700516556537664000,9.9836640625,-0.004366491921246052,-0.4378557503223419,-0.49656540155410767
1700516556547673900,9.993673828125,0.07513417303562164,0.29841604828834534,0.025109857320785522
1700516556557684000,10.00368408203125,-0.08674953132867813,0.12088919430971146,0.5901151895523071
1700516556567693800,10.01369384765625,0.0663178414106369,0.026250969618558884,0.45281320810317993
1700516556577704000,10.023703857421875,0.10031575709581375,0.3662351667881012,0.455454021692276
1700516556587714000,10.033714111328125,0.009024680592119694,-0.20685793459415436,0.5180680155754089
1700516556597724000,10.043723876953125,0.09614679962396622,-0.015015263110399246,0.41343292593955994
1700516556607734000,10.053734130859375,0.06023123860359192,0.4343312680721283,-0.08395810425281525
1700516556617744000,10.063743896484375,0.07756336033344269,-0.26796987652778625,0.26697248220443726
1700516556627754000,10.07375390625,0.03859308734536171,0.27513888478279114,0.3042029142379761
1700516556637764000,10.08376416015625,0.15796874463558197,-0.18008801341056824,-0.3365757465362549
1700516556647774000,10.09377392578125,0.044577307999134064,0.4777134656906128,-0.25476309657096863
1700516556657784000,10.1037841796875,0.020346004515886307,0.095212422311306,-0.11188395321369171
1700516556667794000,10.1137939453125,0.03095022216439247,-0.21527034044265747,0.29309961199760437
1700516556677804000,10.123803955078126,0.00641398411244154,0.3831166625022888,0.1813480406999588
1700516556687814000,10.13381396484375,-0.018766485154628754,-0.2926056981086731,0.3576827347278595
1700516556697824000,10.143823974609376,-0.06286416947841644,0.4296233355998993,0.406730979681015
1700516556707834000,10.153834228515626,0.02982817217707634,-0.060351449996232986,-0.08224654942750931
1700516556717843700,10.16384375,0.02633383870124817,-0.1426929235458374,0.23395989835262299
1700516556727853800,10.173853759765626,-0.055392779409885406,0.1850202977657318,-0.07047657668590546
1700516556737863700,10.18386376953125,0.07856795191764832,-0.4986552298069,-0.12552864849567413
1700516556747873800,10.193873779296876,-0.08563797920942307,0.3510751724243164,-0.3670893609523773
1700516556757885000,10.203885009765624,0.03885628283023834,-0.564490556716919,-0.27657783031463623
1700516556767895000,10.21389501953125,-0.16546690464019775,0.312712699174881,-0.6322519779205322
1700516556777905000,10.22390478515625,0.09261045604944229,-0.9840086102485657,-1.3186652660369873
1700516556787915000,10.2339150390625,0.011300436221063137,0.35044795274734497,-1.1021051406860352
1700516556797925000,10.243925048828125,0.003647575853392482,-0.17318996787071228,-0.776128888130188
1700516556807935000,10.25393505859375,0.015947233885526657,-0.07477526366710663,-0.0034719007089734077
1700516556817945000,10.263945068359375,0.03194723650813103,0.23483479022979736,-0.08029770851135254
1700516556827954700,10.27395458984375,0.029932579025626183,-0.18020910024642944,0.1352713406085968
1700516556837964800,10.28396484375,-0.009630810469388962,0.6050170063972473,0.62641841173172
1700516556847974700,10.293974609375,-0.07851345092058182,-0.17330288887023926,0.32591304183006287
1700516556857984800,10.30398486328125,-0.03803234174847603,0.7073541879653931,0.7315908074378967
1700516556867995000,10.313994873046875,-0.10795003920793533,-0.12494297325611115,0.9301918148994446
1700516556878004700,10.324004638671875,-0.021445242688059807,-0.2985674738883972,0.5513997673988342
1700516556888014800,10.334014892578125,-0.011081703007221222,0.5369265675544739,0.010564404539763927
1700516556898024700,10.344024658203125,0.04451391473412514,-0.5451229214668274,0.12073511630296707
1700516556908034800,10.354034912109375,-0.0025721213314682245,0.1848549097776413,0.21408715844154358
1700516556918045000,10.364044921875,0.13432927429676056,0.19646549224853516,-0.13899660110473633
1700516556928054800,10.3740546875,0.052670132368803024,0.0388825461268425,0.3706505298614502
1700516556938065000,10.38406494140625,-0.009443305432796478,0.40508610010147095,0.13848920166492462
1700516556948074800,10.39407470703125,0.16802978515625,-0.44325557351112366,-0.16366735100746155
1700516556958084900,10.4040849609375,-0.008380400948226452,0.43900734186172485,-0.30090296268463135
1700516556968094700,10.4140947265625,-0.003958829212933779,-0.39606359601020813,-0.13333578407764435
1700516556978104800,10.424104736328125,0.04627690836787224,0.19539996981620789,0.1772892028093338
1700516556988115000,10.434114990234375,-0.027097761631011963,-0.189066082239151,-0.3253035843372345
1700516556998124800,10.444124755859375,-0.02251579426229,0.26042625308036804,-0.24272802472114563
1700516557008135000,10.454135009765626,-0.08804560452699661,0.14387015998363495,-0.15961867570877075
1700516557018144800,10.464144775390626,-0.014982851222157478,-0.13685791194438934,-0.26536428928375244
1700516557028155000,10.47415478515625,-0.007132824510335922,0.23739033937454224,-0.14174175262451172
1700516557038164700,10.484164794921876,0.021024512127041817,-0.3574402630329132,0.12718160450458527
1700516557048174800,10.4941748046875,-0.0010784849291667342,0.2047719955444336,0.34206917881965637
1700516557058185000,10.50418505859375,-0.04646780341863632,0.1026134043931961,-0.09108307212591171
1700516557068194800,10.51419482421875,0.1140703558921814,0.22026096284389496,0.24721167981624603
1700516557078205000,10.524204833984374,0.05778231844305992,0.3693910539150238,0.6275885701179504
1700516557088214800,10.53421484375,0.11582823842763901,0.056608397513628006,0.4493175446987152
1700516557098225000,10.544224853515624,0.10736976563930511,0.36747628450393677,0.35813969373703003
1700516557108235800,10.55423583984375,0.04445855692028999,-0.18197406828403473,0.026081930845975876
1700516557118246000,10.564245849609375,0.13148000836372375,-0.12020070850849152,0.23892976343631744
1700516557128255700,10.574255859375,0.0635276585817337,0.29264122247695923,-0.16772592067718506
1700516557138265900,10.584265869140625,-0.00960753858089447,-0.31264814734458923,0.1968456506729126
1700516557148276000,10.59427587890625,0.02057613991200924,0.4192001223564148,-0.13285019993782043
1700516557158285800,10.604285888671875,0.0298420749604702,-0.562660276889801,-0.4045376479625702
1700516557168296000,10.6142958984375,-0.07212591171264648,0.19998621940612793,-0.5124302506446838
1700516557178305800,10.624305908203125,-0.16581884026527405,-0.6544365286827087,-0.4957849383354187
1700516557188316000,10.63431591796875,-0.016322460025548935,0.005139358341693878,-0.26192694902420044
1700516557198325800,10.64432568359375,-0.08879772573709488,0.01408678013831377,-0.4035080373287201
1700516557208336000,10.6543359375,0.013804950751364231,-0.09226378798484802,0.24987754225730896
1700516557218346000,10.664345947265625,-0.1998058706521988,0.18211130797863007,0.2681177854537964
1700516557228355800,10.67435595703125,0.037549495697021484,-0.08040440082550049,-0.2429235577583313
1700516557238366000,10.684365966796875,0.04822317883372307,0.36382603645324707,-0.2120913416147232
1700516557248375800,10.694375732421875,-0.06781181693077087,-0.22400817275047302,-0.025614405050873756
1700516557258386000,10.704385986328125,-0.05851738154888153,0.06110638752579689,0.15118034183979034
1700516557268395800,10.714395751953125,0.042558979243040085,-0.08888766169548035,-0.4193650782108307
1700516557278406000,10.724406005859375,0.09797962754964828,-0.1244451254606247,-0.1070452556014061
1700516557288416000,10.734416015625,-0.05190224200487137,-0.24406151473522186,-0.23785455524921417
1700516557298425900,10.74442578125,0.03454263508319855,-0.21399043500423431,-0.47968393564224243
1700516557308436200,10.754436279296876,0.05261392146348953,0.22180961072444916,-0.9320729374885559
1700516557318446000,10.764446044921876,0.01708575338125229,-0.06504692137241364,-0.36667028069496155
1700516557328456200,10.774456298828126,0.03283556178212166,-0.160126730799675,0.12890227138996124
1700516557338466000,10.784466064453126,0.061705030500888824,-0.24685630202293396,-0.07280795276165009
1700516557348476200,10.79447607421875,0.03739870712161064,0.2870299816131592,-0.09937822073698044
1700516557358486300,10.804486328125,-0.0923832580447197,0.24530968070030212,0.11487601697444916
1700516557368496000,10.81449609375,0.03973030298948288,-0.34054046869277954,0.020502114668488503
1700516557378506200,10.82450634765625,0.10662571340799332,0.5854858756065369,0.4194295108318329
1700516557388516000,10.83451611328125,-0.08524961769580841,-0.23388871550559998,0.615250289440155
1700516557398526200,10.844526123046874,0.1484970897436142,0.01695149391889572,0.40210095047950745
1700516557408536300,10.854536376953124,0.16142641007900238,0.3032403886318207,0.1923253834247589
1700516557418546200,10.864546142578124,0.08617240935564041,0.0028778910636901855,0.5346957445144653
1700516557428556300,10.874556396484374,0.08429590612649918,0.29990583658218384,0.768833339214325
1700516557438566100,10.884566162109374,0.2441827803850174,-0.016769597306847572,0.28486424684524536
1700516557448576300,10.894576171875,0.1062999740242958,0.3067415952682495,0.3078397810459137
1700516557458586000,10.904586181640624,0.06475120037794113,-0.08246447145938873,-0.1009376123547554
1700516557468596200,10.91459619140625,0.1084824949502945,-0.09934931248426437,-0.4631507098674774
1700516557478606300,10.9246064453125,0.04420896992087364,-0.20506669580936432,-0.5220651626586914
1700516557488616200,10.9346162109375,-0.048171695321798325,-0.3950735926628113,-0.27995195984840393
1700516557498626300,10.944626220703125,-0.10511114448308945,-0.16930435597896576,-0.11624236404895782
1700516557508636200,10.95463623046875,-0.05759995058178902,-0.7347180247306824,-0.729135274887085
1700516557518646300,10.964646240234375,-0.07889033108949661,0.21814101934432983,-0.5083192586898804
1700516557528656100,10.97465625,-0.17532412707805634,-0.37354904413223267,-0.7219857573509216
1700516557538666200,10.984666259765625,0.021027542650699615,0.023722412064671516,-0.14444440603256226
1700516557548676400,10.99467626953125,0.026108410209417343,0.09051543474197388,-0.15726158022880554
1700516557558686200,11.004686279296875,-0.022122502326965332,-0.13548600673675537,0.4154301881790161
1700516557568696000,11.014696044921875,-0.016632314771413803,0.12421248108148575,0.7353119254112244
1700516557578706000,11.024705810546875,0.015746131539344788,-0.22926941514015198,-0.0057779415510594845
1700516557588716000,11.034716064453125,0.017497843131422997,0.3811694383621216,0.3518710732460022
1700516557598726100,11.04472607421875,-0.05215074494481087,-0.019664518535137177,0.4314047694206238
1700516557608736000,11.054736083984375,0.01829238422214985,-0.1241723895072937,0.09215766936540604
1700516557618746000,11.06474609375,0.14083001017570496,0.04640733823180199,-0.12992174923419952
1700516557628756000,11.074755859375,-0.05044608563184738,-0.30325496196746826,-0.06019116938114166
1700516557638766000,11.08476611328125,0.11503688991069794,-0.08622119575738907,-0.1640206277370453
1700516557648776000,11.09477587890625,0.004059152211993933,-0.47153085470199585,-0.481073796749115
1700516557658786000,11.1047861328125,-0.03546881303191185,-0.09462007135152817,-0.5954576134681702
1700516557668796200,11.114796142578125,-0.16238462924957275,0.052650563418865204,-0.38195866346359253
1700516557678806000,11.124805908203125,-0.019746258854866028,-0.15009482204914093,-0.2861727476119995
1700516557688816000,11.134816162109376,-0.06161215528845787,-0.08919539302587509,-0.6822240352630615
1700516557698826000,11.144825927734376,-0.06433071196079254,-0.09106998890638351,-0.48681187629699707
1700516557708836000,11.154836181640626,-0.15618273615837097,-0.11031325161457062,-0.3054358959197998
1700516557718846200,11.16484619140625,-0.1319705992937088,-0.1604214310646057,-0.07743281126022339
1700516557728856000,11.17485595703125,-0.02834394946694374,0.40262025594711304,0.15363575518131256
1700516557738866200,11.1848662109375,-0.05288631096482277,-0.509146511554718,0.23784703016281128
1700516557748876000,11.1948759765625,-0.04426560178399086,-0.09511590749025345,0.10515633970499039
1700516557758886100,11.20488623046875,-0.012813401408493519,0.282782644033432,-0.23290053009986877
1700516557768896000,11.21489599609375,0.05033520981669426,-0.31991714239120483,0.13935242593288422
1700516557778906000,11.224906005859374,-0.02565729059278965,0.09645505249500275,0.22611582279205322
1700516557788916200,11.234916259765624,-0.033742327243089676,-0.1761050671339035,-0.1887543797492981
1700516557798926000,11.244926025390624,-0.009618081152439117,0.2701597511768341,-0.30239999294281006
1700516557808936200,11.254936279296874,0.0022111176513135433,0.11567606776952744,0.42773905396461487
1700516557818946000,11.264946044921874,-0.054210077971220016,-0.10789763182401657,-0.0337473563849926
1700516557828956200,11.2749560546875,-0.0461631640791893,0.5652198195457458,0.310378760099411
1700516557838966000,11.284966064453124,-0.08227615803480148,-0.28360310196876526,0.2532515525817871
1700516557848976100,11.29497607421875,-0.05525507405400276,0.17145369946956635,0.20826727151870728
1700516557858986200,11.304986328125,-0.05925620719790459,0.03516083583235741,-0.09711448103189468
1700516557868996000,11.31499609375,-0.07314098626375198,-0.19143171608448029,0.2416716367006302
1700516557879006200,11.325006103515625,-0.11484581977128983,0.25893092155456543,0.3244701027870178
1700516557889015300,11.335015380859375,0.035245176404714584,-0.25259333848953247,0.027658257633447647
1700516557899025200,11.345025146484375,-0.02574733830988407,0.2056485265493393,-0.05210395157337189
1700516557909035300,11.35503515625,-0.0472114123404026,-0.17898820340633392,-0.19647176563739777
1700516557919045000,11.365045166015625,0.03306638449430466,-0.025570163503289223,-0.17120981216430664
1700516557929055200,11.37505517578125,0.10362502932548523,0.17028452455997467,-0.336715966463089
1700516557939065300,11.3850654296875,0.011959298513829708,-0.23868326842784882,0.12653851509094238
1700516557949075200,11.3950751953125,0.0586952306330204,0.3222793936729431,0.09004489332437515
1700516557959085300,11.405085205078125,0.017016761004924774,-0.192601278424263,-0.27230721712112427
1700516557969095200,11.41509521484375,-0.06209886074066162,0.22452925145626068,-0.3075758218765259
1700516557979105300,11.425105224609375,-0.034326352179050446,-0.12913240492343903,0.049173504114151
1700516557989115100,11.435115234375,-0.04143223166465759,0.07160671055316925,-0.0564529225230217
1700516557999125200,11.445125244140625,-0.07549752295017242,0.08303061127662659,-0.4029623866081238
1700516558009135400,11.45513525390625,-0.02695614844560623,-0.1677696257829666,0.20360849797725677
1700516558019145200,11.465145263671875,-0.07488585263490677,0.08812793344259262,0.16384243965148926
1700516558029155300,11.4751552734375,-0.07231080532073975,-0.19551774859428406,-0.11772727221250534
1700516558039165000,11.4851650390625,-0.010596038773655891,0.06618016958236694,0.07103864848613739
1700516558049175000,11.495175048828125,-0.014316068962216377,-0.2150513231754303,0.08983554691076279
1700516558059185200,11.50518505859375,-0.048051927238702774,-0.03479420393705368,0.18551333248615265
1700516558069195000,11.515195068359375,0.044532425701618195,0.5449458360671997,0.29511556029319763
1700516558079205000,11.525205078125,-0.010774238035082817,-0.20228655636310577,0.4370758831501007
1700516558089215000,11.535215087890625,0.003287165891379118,0.2159648835659027,0.5284025073051453
1700516558099225000,11.54522509765625,0.1613902449607849,0.10287081450223923,0.108511783182621
1700516558109235000,11.55523486328125,-0.017040828242897987,-0.08059050142765045,0.24989545345306396
1700516558119245000,11.5652451171875,-0.04864669218659401,0.12341669201850891,0.11544071137905121
1700516558129255200,11.575255126953126,-0.028751365840435028,-0.2522457540035248,-0.0943879634141922
1700516558139265000,11.58526513671875,-0.05516805872321129,0.22390641272068024,-0.03877050802111626
1700516558149275100,11.595275146484376,-0.08452567458152771,-0.33170393109321594,-0.107265904545784
1700516558159285000,11.605284912109376,-0.09753095358610153,0.12339752912521362,-0.13798147439956665
1700516558169295000,11.615295166015626,-0.04563359171152115,-0.5941323637962341,-0.7207875847816467
1700516558179305000,11.625304931640626,-0.04623866081237793,0.06471077352762222,-0.7925118207931519
1700516558189315000,11.635315185546874,-0.15321342647075653,-0.13670550286769867,-0.4836043417453766
1700516558199325200,11.6453251953125,-0.049837782979011536,-0.1896643191576004,-0.3126474916934967
1700516558209335000,11.6553349609375,0.00021156773436814547,0.18460124731063843,-0.1320227086544037
1700516558219345200,11.66534521484375,-0.0105800935998559,-0.15810124576091766,-0.03307695686817169
1700516558229355000,11.67535498046875,-0.1513083577156067,0.13322104513645172,0.20610052347183228
1700516558239365000,11.685365234375,-0.06124557554721832,0.8827126026153564,0.6369624137878418
1700516558249374200,11.695374267578124,-0.06677921116352081,-0.09778518974781036,1.1311719417572021
1700516558259384000,11.705384033203124,-0.0331815667450428,0.4430828392505646,1.4196522235870361
1700516558269394200,11.715394287109374,0.13631050288677216,0.08962234109640121,0.756915271282196
1700516558279404300,11.725404296875,-0.0689249336719513,-0.0009999694302678108,0.7117770910263062
1700516558289414100,11.7354140625,-0.14141994714736938,0.16347017884254456,0.2548433542251587
1700516558299424300,11.74542431640625,-0.0584329292178154,-0.39028462767601013,-0.3456243574619293
1700516558309433600,11.75543359375,-0.03245091065764427,0.1881779581308365,-0.5170170068740845
1700516558319443700,11.765443603515624,-0.15545512735843658,-0.5680156946182251,-0.6833279728889465
1700516558329453800,11.775453857421875,-0.05571148917078972,-0.01631552167236805,-0.8522570729255676
1700516558339463700,11.785463623046875,-0.05634212866425514,-0.358627051115036,-1.1319646835327148
1700516558349473800,11.795473876953125,0.04271354526281357,0.3027348518371582,-0.6749052405357361
1700516558359483600,11.805483642578125,-0.04430311173200607,-0.08914635330438614,-0.3302339017391205
1700516558369493800,11.81549365234375,-0.08540298789739609,0.061078671365976334,-0.1425533890724182
1700516558379503600,11.825503662109375,-0.06464311480522156,0.49326232075691223,0.1095438301563263
1700516558389513700,11.835513671875,-0.1405828595161438,-0.03371589630842209,0.7585791945457458
1700516558399523800,11.84552392578125,-0.10109056532382965,0.040553539991378784,0.5434908866882324
1700516558409533700,11.85553369140625,-0.08420725911855698,0.4281812906265259,0.1770886778831482
1700516558419543800,11.865543701171875,-0.08047590404748917,-0.312208354473114,0.35941508412361145
1700516558429553700,11.8755537109375,-0.04996038228273392,0.05306312069296837,0.24250587821006775
1700516558439563800,11.885563720703125,-0.0031995363533496857,0.09129146486520767,-0.20913587510585785
1700516558449573600,11.89557373046875,0.0031598624773323536,-0.05224507302045822,0.14137592911720276
1700516558459583700,11.905583740234375,-0.06297148764133453,0.3452666103839874,0.3152928650379181
1700516558469593900,11.91559375,0.12172097712755203,-0.09867880493402481,-0.008926350623369217
1700516558479602700,11.925602783203125,0.00035380315966904163,0.46908077597618103,0.013718508183956146
1700516558489612800,11.93561279296875,-0.12616398930549622,-0.010869449935853481,-0.07060752809047699
1700516558499623000,11.945622802734375,-0.13959535956382751,-0.11575644463300705,-0.33965978026390076
1700516558509632800,11.9556328125,-0.052080847322940826,-0.0579536110162735,-0.6606894731521606
1700516558519643000,11.965642822265625,-0.08951184153556824,-0.06453348696231842,-0.4926794767379761
1700516558529652700,11.97565283203125,-0.20350241661071777,-0.05488305538892746,-0.34335872530937195
1700516558539662800,11.985662841796875,-0.09291784465312958,-0.41316238045692444,-0.3026328682899475
1700516558549673000,11.9956728515625,-0.012510867789387703,0.5242583751678467,0.21353286504745483
1700516558559682800,12.005682861328125,-0.19342738389968872,-0.1299583613872528,0.6688694953918457
1700516558569693000,12.01569287109375,-0.006738574709743261,-0.35930702090263367,0.6282292008399963
1700516558579702800,12.025702880859376,0.11346825957298279,0.3039790987968445,-0.1335507035255432
1700516558589713000,12.035712890625,-0.0077029746025800705,0.0939488485455513,-0.30768364667892456
1700516558599722800,12.04572265625,-0.008130412548780441,-0.04540691524744034,0.08069922029972076
1700516558609732900,12.05573291015625,-0.030735446140170097,-0.024178585037589073,-0.38798272609710693
1700516558619743000,12.065742919921876,-0.09695147722959518,0.3513606786727905,0.2481503188610077
1700516558629752800,12.0757529296875,-0.04080629348754883,-0.12649446725845337,0.46230262517929077
1700516558639763000,12.085762939453126,-0.02968067117035389,-0.1901639848947525,-0.1962353140115738
1700516558649772500,12.0957724609375,-0.10077925026416779,0.4896526038646698,0.07530523836612701
1700516558659782700,12.10578271484375,-0.19568471610546112,0.013908705674111843,0.380581796169281
1700516558669792800,12.115792724609374,0.021227510645985603,-0.26004207134246826,0.022014249116182327
1700516558679801600,12.125801513671876,0.0518898144364357,0.4668845236301422,0.09988481551408768
1700516558689811700,12.135811767578126,0.005077246576547623,-0.1186571717262268,0.4589659869670868
1700516558699821800,12.14582177734375,0.006540920119732618,-0.061308130621910095,0.3418068587779999
1700516558709831700,12.155831787109374,0.1813218742609024,0.010636082850396633,-0.20927853882312775
1700516558719841800,12.165841796875,-0.05528825893998146,-0.1726919263601303,-0.31527474522590637
1700516558729851600,12.1758515625,0.08633438497781754,0.009764258749783039,-0.3965076208114624
1700516558739861800,12.18586181640625,0.009519766084849834,0.045571524649858475,-0.5032289624214172
1700516558749871600,12.19587158203125,-0.10773493349552155,0.276289701461792,0.22239939868450165
1700516558759881700,12.2058818359375,-0.09841041266918182,0.2064906358718872,0.7311630249023438
