time,seconds_elapsed,z,y,x
1697853778091086000,0.176086181640625,-0.03787364438176155,-0.0012217304902151227,0.01466076634824276
1697853778101096000,0.186095947265625,-0.03787364438176155,-0.001832595793530345,0.015882495790719986
1697853778113758000,0.198758056640625,-0.03726277872920036,-0.0006108652451075613,0.015271631069481373
1697853778130955000,0.215955078125,-0.03787364438176155,-0.001832595793530345,0.01466076634824276
1697853778140964000,0.225964111328125,-0.03787364438176155,-0.0006108652451075613,0.015271631069481373
1697853778151286000,0.2362861328125,-0.03726277872920036,-0.001832595793530345,0.015882495790719986
1697853778162082000,0.24708203125,-0.03726277872920036,-0.0006108652451075613,0.01466076634824276
1697853778171347000,0.256346923828125,-0.03726277872920036,-0.0012217304902151227,0.015271631069481373
1697853778181464000,0.266464111328125,-0.03787364438176155,-0.0012217304902151227,0.014049900695681572
1697853778192554000,0.277553955078125,-0.03726277872920036,-0.0012217304902151227,0.01466076634824276
1697853778202009000,0.287009033203125,-0.03726277872920036,-0.0012217304902151227,0.015271631069481373
1697853778212190000,0.29718994140625,-0.03787364438176155,-0.0006108652451075613,0.015271631069481373
1697853778220948000,0.305947998046875,-0.03787364438176155,-0.0006108652451075613,0.015882495790719986
1697853778230979000,0.31597900390625,-0.03848451003432274,-0.0012217304902151227,0.01466076634824276
1697853778240952000,0.3259521484375,-0.03848451003432274,-0.001832595793530345,0.015271631069481373
1697853778250930000,0.335929931640625,-0.03787364438176155,-0.001832595793530345,0.015882495790719986
1697853778260944000,0.34594384765625,-0.03787364438176155,-0.001832595793530345,0.015271631069481373
1697853778271089000,0.3560888671875,-0.03787364438176155,-0.0006108652451075613,0.015271631069481373
1697853778280947000,0.365947021484375,-0.03787364438176155,-0.0006108652451075613,0.015271631069481373
1697853778291075000,0.376074951171875,-0.03787364438176155,-0.0012217304902151227,0.015882495790719986
1697853778301037000,0.386037109375,-0.03787364438176155,-0.0012217304902151227,0.015271631069481373
1697853778310964000,0.3959638671875,-0.03726277872920036,-0.0012217304902151227,0.01466076634824276
1697853778321137000,0.406136962890625,-0.03787364438176155,-0.001832595793530345,0.015271631069481373
1697853778331067000,0.41606689453125,-0.03726277872920036,-0.001832595793530345,0.015882495790719986
1697853778341745000,0.426744873046875,-0.036651913076639175,-0.0006108652451075613,0.015882495790719986
1697853778351010000,0.436010009765625,-0.03726277872920036,-0.0006108652451075613,0.015882495790719986
1697853778361054000,0.446053955078125,-0.03787364438176155,-0.001832595793530345,0.015882495790719986
1697853778371101000,0.456100830078125,-0.03787364438176155,-0.001832595793530345,0.015882495790719986
1697853778380980000,0.46597998046875,-0.03787364438176155,-0.0012217304902151227,0.015271631069481373
1697853778390985000,0.47598486328125,-0.03787364438176155,-0.001832595793530345,0.01466076634824276
1697853778401014000,0.486013916015625,-0.03787364438176155,-0.0012217304902151227,0.01466076634824276
1697853778411035000,0.496034912109375,-0.03848451003432274,-0.001832595793530345,0.015882495790719986
1697853778421144000,0.50614404296875,-0.03848451003432274,-0.0012217304902151227,0.015882495790719986
1697853778431015000,0.516014892578125,-0.03787364438176155,-0.0012217304902151227,0.015882495790719986
1697853778441037000,0.526037109375,-0.03787364438176155,-0.001832595793530345,0.015882495790719986
1697853778451018000,0.53601806640625,-0.03726277872920036,-0.0012217304902151227,0.015271631069481373
1697853778461000000,0.546,-0.03787364438176155,-0.0012217304902151227,0.015882495790719986
1697853778471084000,0.556083984375,-0.039095375686883926,-0.0012217304902151227,0.015882495790719986
1697853778480952000,0.5659521484375,-0.03787364438176155,-0.0012217304902151227,0.015882495790719986
1697853778490950000,0.575949951171875,-0.03848451003432274,-0.0012217304902151227,0.015271631069481373
1697853778500996000,0.58599609375,-0.03848451003432274,-0.0012217304902151227,0.01466076634824276
1697853778511023000,0.596023193359375,-0.03848451003432274,-0.001832595793530345,0.015271631069481373
1697853778520996000,0.60599609375,-0.03787364438176155,-0.0024434609804302454,0.015882495790719986
1697853778530954000,0.6159541015625,-0.03787364438176155,-0.001832595793530345,0.015882495790719986
1697853778541057000,0.62605712890625,-0.039095375686883926,-0.0012217304902151227,0.015271631069481373
1697853778551025000,0.63602490234375,-0.03848451003432274,-0.0012217304902151227,0.01466076634824276
1697853778560956000,0.645955810546875,-0.039095375686883926,-0.001832595793530345,0.014049900695681572
1697853778570961000,0.6559609375,-0.03726277872920036,-0.001832595793530345,0.01466076634824276
1697853778581034000,0.666033935546875,-0.03787364438176155,-0.001832595793530345,0.015271631069481373
1697853778590968000,0.675968017578125,-0.03787364438176155,-0.0012217304902151227,0.015271631069481373
1697853778601200000,0.6862001953125,-0.03726277872920036,-0.001832595793530345,0.015271631069481373
1697853778610974000,0.695973876953125,-0.03787364438176155,-0.0012217304902151227,0.01466076634824276
1697853778620968000,0.705968017578125,-0.03726277872920036,-0.0012217304902151227,0.015271631069481373
1697853778631050000,0.716050048828125,-0.03787364438176155,-0.0012217304902151227,0.01466076634824276
1697853778640974000,0.72597412109375,-0.03848451003432274,-0.001832595793530345,0.016493361443281174
1697853778651306000,0.736305908203125,-0.03787364438176155,-0.0012217304902151227,0.016493361443281174
1697853778661174000,0.746174072265625,-0.03726277872920036,-0.0012217304902151227,0.016493361443281174
1697853778671446000,0.756446044921875,-0.03787364438176155,-0.0012217304902151227,0.015882495790719986
1697853778681121000,0.76612109375,-0.03787364438176155,-0.001832595793530345,0.015271631069481373
1697853778691091000,0.776091064453125,-0.03787364438176155,-0.0006108652451075613,0.01466076634824276
1697853778701332000,0.78633203125,-0.036651913076639175,-0.0012217304902151227,0.01466076634824276
1697853778711134000,0.796134033203125,-0.03787364438176155,-0.0012217304902151227,0.01466076634824276
1697853778721241000,0.806240966796875,-0.03787364438176155,-0.0012217304902151227,0.014049900695681572
1697853778731144000,0.81614404296875,-0.03787364438176155,-0.0012217304902151227,0.015271631069481373
1697853778741137000,0.826136962890625,-0.03848451003432274,-0.001832595793530345,0.015271631069481373
1697853778751092000,0.836092041015625,-0.03787364438176155,-0.001832595793530345,0.01466076634824276
1697853778761645000,0.84664501953125,-0.03787364438176155,-0.001832595793530345,0.015271631069481373
1697853778771189000,0.85618896484375,-0.03787364438176155,-0.0012217304902151227,0.015882495790719986
1697853778781189000,0.866189208984375,-0.03787364438176155,-0.001832595793530345,0.015271631069481373
1697853778791106000,0.87610595703125,-0.03787364438176155,-0.001832595793530345,0.015271631069481373
1697853778801137000,0.886136962890625,-0.03787364438176155,-0.0024434609804302454,0.015271631069481373
1697853778811066000,0.896066162109375,-0.03848451003432274,-0.0012217304902151227,0.015271631069481373
1697853778821257000,0.906257080078125,-0.03787364438176155,-0.0012217304902151227,0.015882495790719986
1697853778831189000,0.91618896484375,-0.03787364438176155,-0.0012217304902151227,0.015271631069481373
1697853778841118000,0.926117919921875,-0.03787364438176155,-0.001832595793530345,0.015271631069481373
1697853778850974000,0.935973876953125,-0.03726277872920036,-0.001832595793530345,0.015271631069481373
1697853778861486000,0.946486083984375,-0.03726277872920036,-0.0012217304902151227,0.014049900695681572
1697853778872327000,0.957326904296875,-0.03787364438176155,-0.001832595793530345,0.015271631069481373
1697853778881031000,0.966031005859375,-0.03787364438176155,-0.001832595793530345,0.015271631069481373
1697853778891145000,0.97614501953125,-0.03787364438176155,-0.001832595793530345,0.015271631069481373
1697853778901161000,0.986160888671875,-0.03787364438176155,-0.0012217304902151227,0.015271631069481373
1697853778911174000,0.996173828125,-0.03787364438176155,-0.0012217304902151227,0.015271631069481373
1697853778921102000,1.00610205078125,-0.03787364438176155,-0.001832595793530345,0.01466076634824276
1697853778931227000,1.016226806640625,-0.03848451003432274,-0.0012217304902151227,0.01466076634824276
1697853778941362000,1.02636181640625,-0.03787364438176155,-0.0012217304902151227,0.015271631069481373
1697853778951124000,1.0361240234375,-0.03787364438176155,-0.0012217304902151227,0.014049900695681572
1697853778961236000,1.046236083984375,-0.03787364438176155,-0.0012217304902151227,0.015882495790719986
1697853778970986000,1.055986083984375,-0.03787364438176155,-0.0012217304902151227,0.01466076634824276
1697853778981414000,1.066413818359375,-0.03848451003432274,-0.0012217304902151227,0.015271631069481373
1697853778991095000,1.076094970703125,-0.03848451003432274,-0.0012217304902151227,0.015271631069481373
1697853779001794000,1.0867939453125,-0.039095375686883926,-0.001832595793530345,0.015271631069481373
1697853779011450000,1.0964501953125,-0.03848451003432274,-0.0012217304902151227,0.01466076634824276
1697853779021176000,1.106176025390625,-0.03848451003432274,-0.0006108652451075613,0.01466076634824276
1697853779031144000,1.11614404296875,-0.036651913076639175,-0.0012217304902151227,0.015271631069481373
1697853779041326000,1.126326171875,-0.03726277872920036,-0.0012217304902151227,0.015271631069481373
1697853779051435000,1.13643505859375,-0.03848451003432274,-0.001832595793530345,0.015271631069481373
1697853779061202000,1.146201904296875,-0.03726277872920036,-0.001832595793530345,0.016493361443281174
1697853779071453000,1.156452880859375,-0.03787364438176155,-0.0012217304902151227,0.015882495790719986
1697853779081360000,1.16635986328125,-0.03848451003432274,-0.0012217304902151227,0.015271631069481373
1697853779091355000,1.17635498046875,-0.03787364438176155,-0.001832595793530345,0.01466076634824276
1697853779101407000,1.186406982421875,-0.03848451003432274,-0.001832595793530345,0.015271631069481373
1697853779111172000,1.196172119140625,-0.03787364438176155,-0.001832595793530345,0.015882495790719986
1697853779120986000,1.205986083984375,-0.03787364438176155,-0.001832595793530345,0.015271631069481373
1697853779131002000,1.216002197265625,-0.03726277872920036,-0.0012217304902151227,0.015882495790719986
1697853779141066000,1.22606591796875,-0.03787364438176155,-0.0012217304902151227,0.015271631069481373
1697853779151201000,1.236200927734375,-0.03787364438176155,-0.0012217304902151227,0.01466076634824276
1697853779160990000,1.245989990234375,-0.03787364438176155,-0.0012217304902151227,0.014049900695681572
1697853779171165000,1.2561650390625,-0.03787364438176155,-0.001832595793530345,0.015271631069481373
1697853779181513000,1.266512939453125,-0.03726277872920036,-0.0012217304902151227,0.015271631069481373
1697853779191418000,1.276418212890625,-0.03787364438176155,-0.0012217304902151227,0.015271631069481373
1697853779202141000,1.287140869140625,-0.03787364438176155,-0.001832595793530345,0.01466076634824276
1697853779211230000,1.29622998046875,-0.03787364438176155,-0.0012217304902151227,0.015271631069481373
1697853779221148000,1.30614794921875,-0.03848451003432274,-0.0012217304902151227,0.013439035043120384
1697853779231163000,1.316162841796875,-0.03787364438176155,-0.001832595793530345,0.015271631069481373
1697853779242193000,1.32719287109375,-0.03848451003432274,-0.001832595793530345,0.015882495790719986
1697853779251106000,1.33610595703125,-0.03848451003432274,-0.0012217304902151227,0.015271631069481373
1697853779261298000,1.3462978515625,-0.03787364438176155,-0.0012217304902151227,0.015271631069481373
1697853779271429000,1.35642919921875,-0.036651913076639175,-0.0012217304902151227,0.015271631069481373
1697853779285401000,1.370401123046875,-0.03726277872920036,-0.0012217304902151227,0.015271631069481373
1697853779301448000,1.386447998046875,-0.03787364438176155,-0.001832595793530345,0.01466076634824276
1697853779311095000,1.396094970703125,-0.03787364438176155,-0.001832595793530345,0.015271631069481373
1697853779321286000,1.406285888671875,-0.03848451003432274,-0.001832595793530345,0.015271631069481373
1697853779331241000,1.416240966796875,-0.03787364438176155,-0.001832595793530345,0.015271631069481373
1697853779341339000,1.4263388671875,-0.03848451003432274,-0.001832595793530345,0.016493361443281174
1697853779351338000,1.436337890625,-0.03787364438176155,-0.0012217304902151227,0.01466076634824276
1697853779361342000,1.446342041015625,-0.03787364438176155,-0.003054326167330146,0.015882495790719986
1697853779371425000,1.456425048828125,-0.03787364438176155,-0.001832595793530345,0.01466076634824276
1697853779381197000,1.466197021484375,-0.03787364438176155,-0.0006108652451075613,0.014049900695681572
1697853779391333000,1.4763330078125,-0.03726277872920036,-0.0006108652451075613,0.01466076634824276
1697853779401543000,1.48654296875,-0.03787364438176155,-0.0006108652451075613,0.015271631069481373
1697853779411283000,1.496282958984375,-0.03726277872920036,-0.001832595793530345,0.015882495790719986
1697853779421409000,1.506408935546875,-0.03726277872920036,-0.001832595793530345,0.015271631069481373
1697853779431462000,1.5164619140625,-0.03787364438176155,-0.0012217304902151227,0.015271631069481373
1697853779442007000,1.527007080078125,-0.039095375686883926,-0.001832595793530345,0.01466076634824276
1697853779451943000,1.53694287109375,-0.039095375686883926,-0.0012217304902151227,0.015271631069481373
1697853779461338000,1.546338134765625,-0.03848451003432274,-0.001832595793530345,0.015271631069481373
1697853779471438000,1.55643798828125,-0.03787364438176155,-0.001832595793530345,0.015271631069481373
1697853779481398000,1.56639794921875,-0.03787364438176155,-0.001832595793530345,0.015882495790719986
1697853779491499000,1.5764990234375,-0.03848451003432274,-0.001832595793530345,0.015271631069481373
1697853779501527000,1.586527099609375,-0.03726277872920036,-0.001832595793530345,0.015271631069481373
1697853779511328000,1.596327880859375,-0.03726277872920036,-0.001832595793530345,0.015271631069481373
1697853779521467000,1.606466796875,-0.03726277872920036,-0.0012217304902151227,0.015882495790719986
1697853779531972000,1.61697216796875,-0.03726277872920036,-0.001832595793530345,0.015882495790719986
1697853779541516000,1.62651611328125,-0.03787364438176155,-0.0012217304902151227,0.01466076634824276
1697853779551365000,1.636365234375,-0.03787364438176155,-0.001832595793530345,0.016493361443281174
1697853779561641000,1.646640869140625,-0.03848451003432274,-0.0024434609804302454,0.015271631069481373
1697853779571489000,1.656489013671875,-0.03787364438176155,-0.001832595793530345,0.015271631069481373
1697853779581516000,1.66651611328125,-0.039095375686883926,-0.0012217304902151227,0.015271631069481373
1697853779591338000,1.676337890625,-0.039095375686883926,-0.0006108652451075613,0.014049900695681572
1697853779601526000,1.686526123046875,-0.03848451003432274,-0.0012217304902151227,0.01466076634824276
1697853779611339000,1.696339111328125,-0.03787364438176155,-0.0006108652451075613,0.01466076634824276
1697853779621532000,1.706531982421875,-0.03787364438176155,-0.0012217304902151227,0.015271631069481373
1697853779631174000,1.716173828125,-0.03726277872920036,-0.001832595793530345,0.015882495790719986
1697853779641335000,1.7263349609375,-0.03726277872920036,-0.0012217304902151227,0.015271631069481373
1697853779654545000,1.739544921875,-0.03787364438176155,-0.001832595793530345,0.015271631069481373
1697853779671176000,1.756176025390625,-0.03726277872920036,-0.001832595793530345,0.01466076634824276
1697853779681066000,1.76606591796875,-0.03848451003432274,-0.001832595793530345,0.014049900695681572
1697853779690991000,1.7759912109375,-0.039095375686883926,-0.0012217304902151227,0.015271631069481373
1697853779701138000,1.786137939453125,-0.039095375686883926,-0.001832595793530345,0.016493361443281174
1697853779711003000,1.7960029296875,-0.03848451003432274,-0.001832595793530345,0.01466076634824276
1697853779721027000,1.806027099609375,-0.03726277872920036,-0.0024434609804302454,0.015882495790719986
1697853779731030000,1.816030029296875,-0.03848451003432274,-0.0012217304902151227,0.015271631069481373
1697853779741436000,1.826435791015625,-0.03787364438176155,-0.0012217304902151227,0.01466076634824276
1697853779751003000,1.8360029296875,-0.03726277872920036,-0.001832595793530345,0.015271631069481373
1697853779761145000,1.84614501953125,-0.03726277872920036,-0.0006108652451075613,0.015271631069481373
1697853779771064000,1.85606396484375,-0.03787364438176155,-0.001832595793530345,0.015271631069481373
1697853779781096000,1.866095947265625,-0.03787364438176155,-0.0012217304902151227,0.015882495790719986
1697853779791024000,1.876024169921875,-0.03787364438176155,-0.0024434609804302454,0.015882495790719986
1697853779801179000,1.886178955078125,-0.03787364438176155,-0.0012217304902151227,0.01710422709584236
1697853779810986000,1.895986083984375,-0.03787364438176155,-0.0024434609804302454,0.016493361443281174
1697853779821481000,1.90648095703125,-0.03848451003432274,-0.001832595793530345,0.014049900695681572
1697853779837275000,1.92227490234375,-0.039095375686883926,-0.0012217304902151227,0.014049900695681572
1697853779851053000,1.936052978515625,-0.03726277872920036,-0.0006108652451075613,0.015882495790719986
1697853779861031000,1.946031005859375,-0.036651913076639175,-0.001832595793530345,0.016493361443281174
1697853779871016000,1.956015869140625,-0.036041051149368286,-0.001832595793530345,0.01771509274840355
1697853779881018000,1.96601806640625,-0.036041051149368286,-0.001832595793530345,0.015882495790719986
1697853779891109000,1.976109130859375,-0.03726277872920036,-0.0024434609804302454,0.012828170321881771
1697853779901223000,1.986222900390625,-0.03848451003432274,-0.001832595793530345,0.01466076634824276
1697853779911123000,1.996123046875,-0.039095375686883926,0.0006108652451075613,0.01160643994808197
1697853779921139000,2.006138916015625,-0.03848451003432274,-0.0012217304902151227,0.014049900695681572
1697853779931110000,2.01610986328125,-0.039095375686883926,-0.001832595793530345,0.015882495790719986
1697853779941162000,2.026161865234375,-0.039095375686883926,-0.0024434609804302454,0.01771509274840355
1697853779950914000,2.0359140625,-0.03848451003432274,-0.0024434609804302454,0.01710422709584236
1697853779961055000,2.046054931640625,-0.03787364438176155,-0.001832595793530345,0.015882495790719986
1697853779970976000,2.05597607421875,-0.03726277872920036,-0.001832595793530345,0.015271631069481373
1697853779981556000,2.066555908203125,-0.03787364438176155,-0.001832595793530345,0.01466076634824276
1697853779991129000,2.076129150390625,-0.03726277872920036,-0.001832595793530345,0.01466076634824276
1697853780001374000,2.0863740234375,-0.03726277872920036,-0.0024434609804302454,0.015271631069481373
1697853780011444000,2.09644384765625,-0.036651913076639175,-0.001832595793530345,0.015271631069481373
1697853780021309000,2.106308837890625,-0.03726277872920036,-0.001832595793530345,0.015271631069481373
1697853780031081000,2.1160810546875,-0.03787364438176155,-0.0012217304902151227,0.015271631069481373
1697853780041298000,2.1262978515625,-0.03726277872920036,-0.001832595793530345,0.015882495790719986
1697853780051161000,2.1361611328125,-0.03787364438176155,-0.0012217304902151227,0.016493361443281174
1697853780061004000,2.146004150390625,-0.03787364438176155,-0.0012217304902151227,0.01466076634824276
1697853780070995000,2.155994873046875,-0.03787364438176155,-0.0012217304902151227,0.014049900695681572
1697853780081000000,2.166,-0.03848451003432274,-0.0006108652451075613,0.013439035043120384
1697853780091041000,2.176041015625,-0.039095375686883926,-0.001832595793530345,0.01466076634824276
1697853780101039000,2.1860390625,-0.03848451003432274,-0.001832595793530345,0.01466076634824276
1697853780111200000,2.196199951171875,-0.03848451003432274,-0.0024434609804302454,0.015271631069481373
1697853780121081000,2.2060810546875,-0.03787364438176155,-0.0024434609804302454,0.01466076634824276
1697853780131116000,2.216115966796875,-0.03787364438176155,-0.003054326167330146,0.015271631069481373
1697853780141046000,2.2260458984375,-0.03787364438176155,-0.001832595793530345,0.015882495790719986
1697853780151156000,2.236156005859375,-0.03726277872920036,-0.001832595793530345,0.01466076634824276
1697853780161116000,2.246115966796875,-0.03787364438176155,-0.001832595793530345,0.015882495790719986
1697853780170972000,2.255971923828125,-0.03726277872920036,-0.0012217304902151227,0.01466076634824276
1697853780181044000,2.2660439453125,-0.03787364438176155,-0.0006108652451075613,0.01466076634824276
1697853780191150000,2.276150146484375,-0.03787364438176155,-0.0012217304902151227,0.01466076634824276
1697853780201164000,2.2861640625,-0.03848451003432274,-0.0006108652451075613,0.01466076634824276
1697853780211046000,2.2960458984375,-0.03848451003432274,-0.0006108652451075613,0.01466076634824276
1697853780221315000,2.306315185546875,-0.039095375686883926,-0.0012217304902151227,0.015271631069481373
1697853780231092000,2.316092041015625,-0.03848451003432274,-0.0012217304902151227,0.015271631069481373
1697853780241072000,2.326072021484375,-0.03787364438176155,-0.0006108652451075613,0.01466076634824276
1697853780251164000,2.336163818359375,-0.03848451003432274,-0.0012217304902151227,0.01466076634824276
1697853780261026000,2.346026123046875,-0.03848451003432274,-0.0012217304902151227,0.01466076634824276
1697853780271151000,2.356151123046875,-0.03787364438176155,-0.001832595793530345,0.01466076634824276
1697853780281055000,2.366054931640625,-0.03726277872920036,-0.0012217304902151227,0.01466076634824276
1697853780291171000,2.376171142578125,-0.03848451003432274,-0.0006108652451075613,0.015882495790719986
1697853780301237000,2.386237060546875,-0.03726277872920036,-0.0012217304902151227,0.015271631069481373
1697853780311235000,2.396235107421875,-0.036651913076639175,-0.001832595793530345,0.014049900695681572
1697853780321396000,2.40639599609375,-0.036041051149368286,-0.0012217304902151227,0.015271631069481373
1697853780331285000,2.416284912109375,-0.036651913076639175,-0.001832595793530345,0.01466076634824276
1697853780341410000,2.42641015625,-0.036651913076639175,-0.0024434609804302454,0.015271631069481373
1697853780351227000,2.436226806640625,-0.03848451003432274,-0.0024434609804302454,0.015271631069481373
1697853780361271000,2.44627099609375,-0.03848451003432274,-0.0012217304902151227,0.01466076634824276
1697853780371432000,2.456431884765625,-0.03848451003432274,-0.001832595793530345,0.015271631069481373
1697853780381363000,2.466363037109375,-0.03848451003432274,-0.001832595793530345,0.014049900695681572
1697853780391407000,2.476406982421875,-0.039095375686883926,-0.001832595793530345,0.01466076634824276
1697853780401298000,2.4862978515625,-0.03787364438176155,-0.001832595793530345,0.015271631069481373
1697853780411083000,2.4960830078125,-0.03848451003432274,-0.0012217304902151227,0.015882495790719986
1697853780421141000,2.50614111328125,-0.03848451003432274,-0.0012217304902151227,0.01466076634824276
1697853780431056000,2.516055908203125,-0.03787364438176155,-0.0012217304902151227,0.014049900695681572
1697853780441277000,2.52627685546875,-0.03787364438176155,-0.0012217304902151227,0.015271631069481373
1697853780451196000,2.53619580078125,-0.03848451003432274,-0.0006108652451075613,0.01466076634824276
1697853780461123000,2.546123046875,-0.03726277872920036,-0.0006108652451075613,0.015271631069481373
1697853780471176000,2.556176025390625,-0.036651913076639175,-0.0006108652451075613,0.01466076634824276
1697853780481439000,2.56643896484375,-0.03726277872920036,0.0006108652451075613,0.01466076634824276
1697853780490993000,2.575992919921875,-0.03726277872920036,-0.001832595793530345,0.01466076634824276
1697853780501191000,2.58619091796875,-0.03726277872920036,-0.0012217304902151227,0.014049900695681572
1697853780510955000,2.595955078125,-0.03726277872920036,-0.001832595793530345,0.015882495790719986
1697853780521291000,2.606291015625,-0.03787364438176155,-0.0012217304902151227,0.015882495790719986
1697853780531114000,2.616114013671875,-0.03848451003432274,-0.0012217304902151227,0.015882495790719986
1697853780541426000,2.626426025390625,-0.03848451003432274,-0.0012217304902151227,0.015882495790719986
1697853780551350000,2.63635009765625,-0.03848451003432274,-0.0006108652451075613,0.015882495790719986
1697853780561194000,2.646194091796875,-0.03848451003432274,-0.001832595793530345,0.015271631069481373
1697853780571160000,2.65616015625,-0.03787364438176155,-0.001832595793530345,0.015882495790719986
1697853780581184000,2.66618408203125,-0.03787364438176155,-0.001832595793530345,0.015882495790719986
1697853780591334000,2.676333984375,-0.036651913076639175,-0.001832595793530345,0.016493361443281174
1697853780601241000,2.686240966796875,-0.03726277872920036,-0.001832595793530345,0.015882495790719986
1697853780611167000,2.6961669921875,-0.036041051149368286,-0.0024434609804302454,0.01710422709584236
1697853780621049000,2.706049072265625,-0.03726277872920036,-0.0024434609804302454,0.01710422709584236
1697853780631069000,2.71606884765625,-0.036651913076639175,-0.001832595793530345,0.01710422709584236
1697853780641174000,2.726174072265625,-0.03726277872920036,-0.0024434609804302454,0.01771509274840355
1697853780651301000,2.736301025390625,-0.036651913076639175,-0.0006108652451075613,0.015882495790719986
1697853780661084000,2.746083984375,-0.036651913076639175,-0.0012217304902151227,0.015271631069481373
1697853780671240000,2.756239990234375,-0.036651913076639175,-0.0012217304902151227,0.01466076634824276
1697853780681387000,2.766386962890625,-0.03726277872920036,-0.0012217304902151227,0.014049900695681572
1697853780691113000,2.776113037109375,-0.03848451003432274,-0.0012217304902151227,0.01466076634824276
1697853780701185000,2.78618505859375,-0.03787364438176155,-0.0012217304902151227,0.015882495790719986
1697853780711226000,2.79622607421875,-0.03787364438176155,-0.0012217304902151227,0.015882495790719986
1697853780721203000,2.806202880859375,-0.03848451003432274,-0.001832595793530345,0.01466076634824276
1697853780731227000,2.816226806640625,-0.03848451003432274,-0.0006108652451075613,0.015271631069481373
1697853780741233000,2.82623291015625,-0.03848451003432274,-0.0006108652451075613,0.015882495790719986
1697853780751406000,2.836406005859375,-0.03848451003432274,-0.0012217304902151227,0.015882495790719986
1697853780761111000,2.846111083984375,-0.03787364438176155,-0.0012217304902151227,0.015271631069481373
1697853780771312000,2.85631201171875,-0.039095375686883926,-0.0012217304902151227,0.015271631069481373
1697853780781237000,2.866237060546875,-0.03848451003432274,-0.0012217304902151227,0.015271631069481373
1697853780791304000,2.876303955078125,-0.03787364438176155,-0.0006108652451075613,0.01466076634824276
1697853780801237000,2.886237060546875,-0.03726277872920036,-0.0012217304902151227,0.014049900695681572
1697853780811091000,2.896091064453125,-0.03726277872920036,-0.001832595793530345,0.015882495790719986
1697853780821388000,2.906387939453125,-0.03787364438176155,-0.0012217304902151227,0.015882495790719986
1697853780831157000,2.916156982421875,-0.03787364438176155,-0.0006108652451075613,0.015271631069481373
1697853780844478000,2.92947802734375,-0.03726277872920036,-0.0012217304902151227,0.015271631069481373
1697853780861162000,2.946161865234375,-0.03726277872920036,-0.0012217304902151227,0.01466076634824276
1697853780871207000,2.95620703125,-0.03726277872920036,-0.0012217304902151227,0.015271631069481373
1697853780881137000,2.966136962890625,-0.03726277872920036,-0.0012217304902151227,0.015882495790719986
1697853780891013000,2.97601318359375,-0.036651913076639175,-0.001832595793530345,0.015271631069481373
1697853780901016000,2.98601611328125,-0.03848451003432274,-0.001832595793530345,0.014049900695681572
1697853780911216000,2.996216064453125,-0.03787364438176155,-0.0006108652451075613,0.01466076634824276
1697853780921036000,3.0060361328125,-0.03787364438176155,-0.001832595793530345,0.015882495790719986
1697853780931087000,3.016087158203125,-0.03787364438176155,-0.0012217304902151227,0.01466076634824276
1697853780941237000,3.026237060546875,-0.03726277872920036,-0.0024434609804302454,0.014049900695681572
1697853780950983000,3.03598291015625,-0.03787364438176155,-0.0024434609804302454,0.015271631069481373
1697853780961295000,3.046295166015625,-0.03848451003432274,-0.001832595793530345,0.01466076634824276
1697853780971372000,3.0563720703125,-0.03726277872920036,-0.001832595793530345,0.01466076634824276
1697853780981194000,3.066194091796875,-0.03787364438176155,-0.001832595793530345,0.01466076634824276
1697853780990973000,3.075972900390625,-0.03726277872920036,-0.001832595793530345,0.014049900695681572
1697853781001275000,3.08627490234375,-0.03848451003432274,-0.0012217304902151227,0.01466076634824276
1697853781011552000,3.096552001953125,-0.039095375686883926,-0.0012217304902151227,0.013439035043120384
1697853781021352000,3.10635205078125,-0.039095375686883926,-0.0012217304902151227,0.014049900695681572
1697853781031289000,3.1162890625,-0.03848451003432274,-0.0012217304902151227,0.01466076634824276
1697853781041565000,3.12656494140625,-0.039095375686883926,-0.0012217304902151227,0.015882495790719986
1697853781051515000,3.136514892578125,-0.039095375686883926,-0.0006108652451075613,0.015271631069481373
1697853781062034000,3.147033935546875,-0.03848451003432274,-0.0012217304902151227,0.016493361443281174
1697853781071280000,3.156280029296875,-0.03787364438176155,-0.001832595793530345,0.015882495790719986
1697853781081446000,3.16644580078125,-0.03848451003432274,-0.0012217304902151227,0.016493361443281174
1697853781091466000,3.176466064453125,-0.03726277872920036,-0.001832595793530345,0.016493361443281174
1697853781101202000,3.186201904296875,-0.036651913076639175,-0.0012217304902151227,0.016493361443281174
1697853781111937000,3.19693701171875,-0.03726277872920036,-0.0024434609804302454,0.015271631069481373
1697853781121159000,3.206158935546875,-0.03726277872920036,-0.001832595793530345,0.014049900695681572
1697853781131108000,3.216108154296875,-0.036651913076639175,-0.001832595793530345,0.01466076634824276
1697853781141225000,3.226224853515625,-0.036651913076639175,-0.0024434609804302454,0.015882495790719986
1697853781151014000,3.236013916015625,-0.03726277872920036,-0.001832595793530345,0.016493361443281174
1697853781161644000,3.24664404296875,-0.03726277872920036,-0.001832595793530345,0.015882495790719986
1697853781171255000,3.256255126953125,-0.03726277872920036,-0.0024434609804302454,0.01466076634824276
1697853781181102000,3.26610205078125,-0.03848451003432274,-0.0006108652451075613,0.015882495790719986
1697853781191130000,3.276130126953125,-0.039095375686883926,-0.0012217304902151227,0.015271631069481373
1697853781201180000,3.286179931640625,-0.03848451003432274,-0.0006108652451075613,0.01466076634824276
1697853781211311000,3.29631103515625,-0.03787364438176155,-0.0012217304902151227,0.01466076634824276
1697853781221301000,3.306301025390625,-0.03787364438176155,-0.0006108652451075613,0.01466076634824276
1697853781231319000,3.316319091796875,-0.03787364438176155,-0.0012217304902151227,0.01466076634824276
1697853781241183000,3.326182861328125,-0.03848451003432274,-0.0006108652451075613,0.013439035043120384
1697853781251142000,3.336141845703125,-0.03787364438176155,-0.0012217304902151227,0.015271631069481373
1697853781261328000,3.346327880859375,-0.03848451003432274,-0.0006108652451075613,0.014049900695681572
1697853781271318000,3.356318115234375,-0.03787364438176155,-0.0012217304902151227,0.01466076634824276
1697853781280992000,3.365991943359375,-0.03787364438176155,-0.0012217304902151227,0.01466076634824276
1697853781290903000,3.375903076171875,-0.03848451003432274,-0.0024434609804302454,0.01466076634824276
1697853781301051000,3.38605078125,-0.039095375686883926,-0.0012217304902151227,0.01466076634824276
1697853781311079000,3.396078857421875,-0.039706241339445114,-0.0012217304902151227,0.015882495790719986
1697853781321114000,3.406114013671875,-0.039706241339445114,-0.001832595793530345,0.015882495790719986
1697853781331086000,3.416086181640625,-0.039095375686883926,-0.0024434609804302454,0.01710422709584236
1697853781341241000,3.426240966796875,-0.039706241339445114,-0.001832595793530345,0.01710422709584236
1697853781351102000,3.43610205078125,-0.039095375686883926,-0.001832595793530345,0.016493361443281174
1697853781361253000,3.446253173828125,-0.039095375686883926,-0.001832595793530345,0.015271631069481373
1697853781371457000,3.45645703125,-0.03787364438176155,-0.0012217304902151227,0.015882495790719986
1697853781381453000,3.466453125,-0.036651913076639175,-0.0006108652451075613,0.015882495790719986
1697853781391495000,3.476494873046875,-0.03726277872920036,-0.0006108652451075613,0.016493361443281174
1697853781401456000,3.4864560546875,-0.036651913076639175,-0.0006108652451075613,0.015271631069481373
1697853781411309000,3.49630908203125,-0.036041051149368286,0.0006108652451075613,0.015882495790719986
1697853781421349000,3.50634912109375,-0.036651913076639175,0.0006108652451075613,0.01466076634824276
1697853781431355000,3.51635498046875,-0.036041051149368286,0.0006108652451075613,0.014049900695681572
1697853781441320000,3.52631982421875,-0.036651913076639175,-0.0006108652451075613,0.014049900695681572
1697853781451437000,3.53643701171875,-0.03726277872920036,-0.0006108652451075613,0.01466076634824276
1697853781461071000,3.546071044921875,-0.03726277872920036,-0.0012217304902151227,0.015882495790719986
1697853781471187000,3.55618701171875,-0.03787364438176155,-0.001832595793530345,0.015271631069481373
1697853781481179000,3.566178955078125,-0.03787364438176155,-0.0024434609804302454,0.015271631069481373
1697853781491084000,3.576083984375,-0.03848451003432274,-0.0024434609804302454,0.015882495790719986
1697853781501203000,3.586202880859375,-0.03848451003432274,-0.003054326167330146,0.015882495790719986
1697853781511096000,3.596095947265625,-0.03848451003432274,-0.003054326167330146,0.01466076634824276
1697853781521442000,3.606442138671875,-0.03848451003432274,-0.003054326167330146,0.014049900695681572
1697853781531385000,3.616385009765625,-0.03848451003432274,-0.0024434609804302454,0.013439035043120384
1697853781541335000,3.6263349609375,-0.03848451003432274,-0.0024434609804302454,0.01466076634824276
1697853781551156000,3.636156005859375,-0.039706241339445114,-0.003054326167330146,0.015271631069481373
1697853781561401000,3.646401123046875,-0.03848451003432274,-0.003054326167330146,0.01466076634824276
1697853781571163000,3.656162841796875,-0.03787364438176155,-0.001832595793530345,0.015271631069481373
1697853781582426000,3.667426025390625,-0.03848451003432274,-0.0012217304902151227,0.015882495790719986
1697853781591679000,3.676678955078125,-0.03848451003432274,-0.0012217304902151227,0.015271631069481373
1697853781601453000,3.686453125,-0.03787364438176155,-0.0006108652451075613,0.015271631069481373
1697853781611299000,3.696299072265625,-0.03787364438176155,-0.0006108652451075613,0.014049900695681572
1697853781621496000,3.70649609375,-0.036651913076639175,0.0006108652451075613,0.01466076634824276
1697853781631477000,3.71647705078125,-0.036651913076639175,0.0006108652451075613,0.015271631069481373
1697853781641332000,3.72633203125,-0.036041051149368286,0.0006108652451075613,0.01466076634824276
1697853781651971000,3.73697119140625,-0.036651913076639175,0.0006108652451075613,0.015271631069481373
1697853781661336000,3.746336181640625,-0.03726277872920036,0.0006108652451075613,0.01466076634824276
1697853781671340000,3.756340087890625,-0.03726277872920036,-0.0006108652451075613,0.01466076634824276
1697853781681333000,3.7663330078125,-0.03726277872920036,-0.0012217304902151227,0.015271631069481373
1697853781691569000,3.77656884765625,-0.03726277872920036,-0.0006108652451075613,0.015882495790719986
1697853781701460000,3.7864599609375,-0.03848451003432274,-0.0012217304902151227,0.01466076634824276
1697853781711123000,3.796123046875,-0.03787364438176155,-0.001832595793530345,0.01466076634824276
1697853781721511000,3.806510986328125,-0.03848451003432274,-0.0012217304902151227,0.01466076634824276
1697853781731386000,3.81638623046875,-0.03848451003432274,-0.0024434609804302454,0.014049900695681572
1697853781741393000,3.826392822265625,-0.03848451003432274,-0.001832595793530345,0.01466076634824276
1697853781752222000,3.837221923828125,-0.03848451003432274,-0.0024434609804302454,0.015271631069481373
1697853781761337000,3.846337158203125,-0.039095375686883926,-0.00366519158706069,0.014049900695681572
1697853781771365000,3.856365234375,-0.039095375686883926,-0.003054326167330146,0.013439035043120384
1697853781781689000,3.866689208984375,-0.039095375686883926,-0.0024434609804302454,0.014049900695681572
1697853781791580000,3.876579833984375,-0.039095375686883926,-0.0024434609804302454,0.01466076634824276
1697853781801539000,3.8865390625,-0.039706241339445114,-0.0012217304902151227,0.015882495790719986
1697853781811292000,3.8962919921875,-0.039706241339445114,-0.001832595793530345,0.015882495790719986
1697853781821728000,3.90672802734375,-0.039095375686883926,-0.001832595793530345,0.015882495790719986
1697853781831478000,3.91647802734375,-0.039095375686883926,-0.0012217304902151227,0.01466076634824276
1697853781848179000,3.933178955078125,-0.039095375686883926,-0.0006108652451075613,0.015882495790719986
1697853781861225000,3.946224853515625,-0.03787364438176155,-0.0006108652451075613,0.015271631069481373
1697853781871230000,3.95622998046875,-0.03726277872920036,-0.0006108652451075613,0.015271631069481373
1697853781880987000,3.96598681640625,-0.036651913076639175,-0.0006108652451075613,0.015271631069481373
1697853781891223000,3.97622314453125,-0.0354301854968071,-0.0006108652451075613,0.015271631069481373
1697853781901059000,3.98605908203125,-0.0354301854968071,-0.0006108652451075613,0.015882495790719986
1697853781910947000,3.995947021484375,-0.036651913076639175,0.0006108652451075613,0.016493361443281174
1697853781921244000,4.006243896484375,-0.036651913076639175,0.0006108652451075613,0.016493361443281174
1697853781930919000,4.0159189453125,-0.036651913076639175,0.0006108652451075613,0.015882495790719986
1697853781941213000,4.026212890625,-0.036651913076639175,0.0006108652451075613,0.015271631069481373
1697853781951283000,4.036282958984375,-0.036651913076639175,-0.0006108652451075613,0.015882495790719986
1697853781961060000,4.04606005859375,-0.03726277872920036,-0.0006108652451075613,0.015271631069481373
1697853781971159000,4.056158935546875,-0.03787364438176155,-0.0006108652451075613,0.015882495790719986
1697853781981175000,4.066175048828125,-0.03848451003432274,-0.001832595793530345,0.015271631069481373
1697853781991170000,4.076170166015625,-0.039095375686883926,-0.0024434609804302454,0.01466076634824276
1697853782001290000,4.0862900390625,-0.039706241339445114,-0.003054326167330146,0.015271631069481373
1697853782010970000,4.09597021484375,-0.039095375686883926,-0.0024434609804302454,0.01466076634824276
1697853782021156000,4.106156005859375,-0.039706241339445114,-0.003054326167330146,0.015271631069481373
1697853782031105000,4.11610498046875,-0.039706241339445114,-0.0024434609804302454,0.015882495790719986
1697853782041186000,4.12618603515625,-0.039095375686883926,-0.0024434609804302454,0.015882495790719986
1697853782051100000,4.136099853515625,-0.03848451003432274,-0.0024434609804302454,0.016493361443281174
1697853782061272000,4.14627197265625,-0.03787364438176155,-0.0024434609804302454,0.015882495790719986
1697853782071285000,4.156284912109375,-0.036651913076639175,-0.0012217304902151227,0.016493361443281174
1697853782081308000,4.166307861328125,-0.03726277872920036,-0.001832595793530345,0.015271631069481373
1697853782091294000,4.1762939453125,-0.03726277872920036,-0.0012217304902151227,0.014049900695681572
1697853782101281000,4.186281005859375,-0.03726277872920036,0.0006108652451075613,0.013439035043120384
1697853782111217000,4.196216796875,-0.036041051149368286,0.0006108652451075613,0.014049900695681572
1697853782121295000,4.206295166015625,-0.036651913076639175,-0.0006108652451075613,0.01466076634824276
1697853782131235000,4.216235107421875,-0.036651913076639175,-0.0012217304902151227,0.016493361443281174
1697853782141243000,4.226242919921875,-0.03787364438176155,-0.001832595793530345,0.016493361443281174
1697853782151201000,4.236200927734375,-0.03848451003432274,-0.0012217304902151227,0.015882495790719986
1697853782161070000,4.246070068359375,-0.039095375686883926,-0.0024434609804302454,0.01466076634824276
1697853782171156000,4.256156005859375,-0.039706241339445114,-0.0024434609804302454,0.013439035043120384
1697853782181072000,4.26607177734375,-0.04092797264456749,-0.003054326167330146,0.012828170321881771
1697853782191153000,4.27615283203125,-0.0403171069920063,-0.001832595793530345,0.013439035043120384
1697853782201169000,4.2861689453125,-0.039706241339445114,-0.0024434609804302454,0.014049900695681572
1697853782211093000,4.296093017578125,-0.039095375686883926,-0.001832595793530345,0.016493361443281174
1697853782221141000,4.30614111328125,-0.03848451003432274,-0.0012217304902151227,0.016493361443281174
1697853782231115000,4.316114990234375,-0.03787364438176155,-0.001832595793530345,0.01710422709584236
1697853782241119000,4.326118896484375,-0.03726277872920036,-0.0024434609804302454,0.01710422709584236
1697853782251097000,4.33609716796875,-0.036041051149368286,-0.0006108652451075613,0.016493361443281174
1697853782261075000,4.346074951171875,-0.036041051149368286,-0.0006108652451075613,0.015271631069481373
1697853782271161000,4.3561611328125,-0.03787364438176155,-0.0006108652451075613,0.01466076634824276
1697853782281181000,4.366180908203125,-0.03726277872920036,0.0006108652451075613,0.015271631069481373
1697853782290965000,4.375965087890625,-0.03726277872920036,-0.0006108652451075613,0.015882495790719986
1697853782301034000,4.386033935546875,-0.036651913076639175,-0.0006108652451075613,0.016493361443281174
1697853782310986000,4.395986083984375,-0.03787364438176155,-0.0012217304902151227,0.016493361443281174
1697853782321142000,4.40614208984375,-0.03787364438176155,-0.0012217304902151227,0.016493361443281174
1697853782331149000,4.416149169921875,-0.039095375686883926,-0.0006108652451075613,0.01466076634824276
1697853782341023000,4.42602294921875,-0.039095375686883926,-0.001832595793530345,0.01466076634824276
1697853782351151000,4.436151123046875,-0.03848451003432274,-0.0012217304902151227,0.014049900695681572
1697853782361076000,4.446075927734375,-0.03787364438176155,-0.0006108652451075613,0.013439035043120384
1697853782371143000,4.456142822265625,-0.03848451003432274,-0.0012217304902151227,0.01466076634824276
1697853782381488000,4.466488037109375,-0.03848451003432274,-0.0006108652451075613,0.01466076634824276
1697853782391150000,4.476150146484375,-0.03726277872920036,-0.001832595793530345,0.015882495790719986
1697853782401179000,4.486178955078125,-0.03726277872920036,-0.0012217304902151227,0.015882495790719986
1697853782411058000,4.496057861328125,-0.03787364438176155,-0.001832595793530345,0.016493361443281174
1697853782421171000,4.5061708984375,-0.03787364438176155,-0.001832595793530345,0.015271631069481373
1697853782431179000,4.516178955078125,-0.03787364438176155,-0.001832595793530345,0.01466076634824276
1697853782441136000,4.52613623046875,-0.03787364438176155,-0.0012217304902151227,0.015271631069481373
1697853782451221000,4.536220947265625,-0.03848451003432274,-0.0012217304902151227,0.01466076634824276
1697853782461069000,4.546069091796875,-0.03848451003432274,-0.001832595793530345,0.01466076634824276
1697853782471153000,4.55615283203125,-0.039095375686883926,-0.001832595793530345,0.01466076634824276
1697853782481069000,4.566069091796875,-0.03848451003432274,-0.0012217304902151227,0.014049900695681572
1697853782490968000,4.575968017578125,-0.03787364438176155,-0.0012217304902151227,0.014049900695681572
1697853782501059000,4.58605908203125,-0.03787364438176155,-0.0012217304902151227,0.013439035043120384
1697853782511086000,4.596086181640625,-0.03787364438176155,-0.001832595793530345,0.01466076634824276
1697853782521084000,4.606083984375,-0.03787364438176155,-0.0012217304902151227,0.014049900695681572
1697853782531089000,4.6160888671875,-0.039095375686883926,-0.001832595793530345,0.014049900695681572
1697853782541085000,4.6260849609375,-0.03848451003432274,-0.001832595793530345,0.014049900695681572
1697853782551136000,4.636135986328125,-0.03848451003432274,-0.001832595793530345,0.015271631069481373
1697853782561066000,4.64606591796875,-0.039095375686883926,-0.0012217304902151227,0.01710422709584236
1697853782571090000,4.65608984375,-0.03848451003432274,-0.0012217304902151227,0.01771509274840355
1697853782581086000,4.6660859375,-0.039095375686883926,-0.003054326167330146,0.02015855349600315
1697853782591056000,4.676055908203125,-0.0403171069920063,-0.004886921960860491,0.014049900695681572
1697853782601075000,4.686074951171875,-0.039095375686883926,-0.003054326167330146,0.015882495790719986
1697853782611094000,4.696093994140625,-0.03848451003432274,-0.006719517521560192,0.015271631069481373
1697853782621077000,4.706076904296875,-0.04092797264456749,-0.0024434609804302454,0.01038470957428217
1697853782631174000,4.716173828125,-0.039706241339445114,-0.0024434609804302454,0.014049900695681572
1697853782641057000,4.72605712890625,-0.036651913076639175,-0.0006108652451075613,0.013439035043120384
1697853782651095000,4.736094970703125,-0.036651913076639175,-0.0006108652451075613,0.014049900695681572
1697853782661083000,4.746082763671875,-0.03726277872920036,0.001832595793530345,0.015271631069481373
1697853782671089000,4.7560888671875,-0.036041051149368286,0.0006108652451075613,0.01771509274840355
1697853782681078000,4.766078125,-0.03420845419168472,-0.0006108652451075613,0.015882495790719986
1697853782691053000,4.776052978515625,-0.036651913076639175,-0.0006108652451075613,0.015882495790719986
1697853782701059000,4.78605908203125,-0.03726277872920036,0.0012217304902151227,0.015271631069481373
1697853782710985000,4.79598486328125,-0.036651913076639175,-0.0012217304902151227,0.01466076634824276
1697853782721022000,4.80602197265625,-0.03787364438176155,-0.0012217304902151227,0.015882495790719986
1697853782731175000,4.8161748046875,-0.03726277872920036,-0.0012217304902151227,0.015271631069481373
1697853782740963000,4.825963134765625,-0.03726277872920036,-0.001832595793530345,0.015271631069481373
1697853782751172000,4.836172119140625,-0.03787364438176155,-0.001832595793530345,0.015882495790719986
1697853782761079000,4.8460791015625,-0.039095375686883926,-0.001832595793530345,0.01710422709584236
1697853782771053000,4.856052978515625,-0.03848451003432274,-0.0024434609804302454,0.016493361443281174
1697853782781074000,4.866073974609375,-0.03787364438176155,-0.0024434609804302454,0.015271631069481373
1697853782791044000,4.876044189453125,-0.03848451003432274,-0.0024434609804302454,0.015271631069481373
1697853782801170000,4.886169921875,-0.03787364438176155,-0.003054326167330146,0.014049900695681572
1697853782811157000,4.896156982421875,-0.03848451003432274,-0.001832595793530345,0.01466076634824276
1697853782821121000,4.90612109375,-0.03787364438176155,-0.0012217304902151227,0.014049900695681572
1697853782831188000,4.91618798828125,-0.03787364438176155,-0.0012217304902151227,0.01466076634824276
1697853782841127000,4.926126953125,-0.03726277872920036,-0.0024434609804302454,0.014049900695681572
1697853782851042000,4.9360419921875,-0.03787364438176155,-0.0024434609804302454,0.01466076634824276
1697853782861054000,4.946053955078125,-0.03848451003432274,-0.001832595793530345,0.01466076634824276
1697853782870983000,4.95598291015625,-0.03848451003432274,-0.0006108652451075613,0.013439035043120384
1697853782880940000,4.96593994140625,-0.03787364438176155,-0.0006108652451075613,0.01466076634824276
1697853782891061000,4.97606103515625,-0.03848451003432274,-0.0012217304902151227,0.01466076634824276
1697853782901005000,4.986005126953125,-0.03726277872920036,-0.0012217304902151227,0.015882495790719986
1697853782911012000,4.99601220703125,-0.03787364438176155,-0.001832595793530345,0.016493361443281174
1697853782921092000,5.006092041015625,-0.039095375686883926,-0.0006108652451075613,0.016493361443281174
1697853782931098000,5.01609814453125,-0.039095375686883926,-0.0006108652451075613,0.016493361443281174
1697853782941039000,5.0260390625,-0.039706241339445114,-0.001832595793530345,0.015271631069481373
1697853782951241000,5.036240966796875,-0.03848451003432274,-0.0012217304902151227,0.015882495790719986
1697853782961087000,5.0460869140625,-0.03848451003432274,-0.0012217304902151227,0.015271631069481373
1697853782971062000,5.05606201171875,-0.03726277872920036,-0.0012217304902151227,0.015271631069481373
1697853782981049000,5.066049072265625,-0.03726277872920036,-0.001832595793530345,0.01466076634824276
1697853782991022000,5.07602197265625,-0.03726277872920036,-0.001832595793530345,0.015271631069481373
1697853783001111000,5.086111083984375,-0.03726277872920036,-0.0006108652451075613,0.01466076634824276
1697853783011265000,5.09626513671875,-0.03848451003432274,-0.0006108652451075613,0.015271631069481373
1697853783021272000,5.10627197265625,-0.03787364438176155,-0.0012217304902151227,0.015271631069481373
1697853783031269000,5.11626904296875,-0.03787364438176155,-0.001832595793530345,0.015882495790719986
1697853783041137000,5.126136962890625,-0.03848451003432274,-0.001832595793530345,0.016493361443281174
1697853783051079000,5.136078857421875,-0.03848451003432274,-0.0012217304902151227,0.015882495790719986
1697853783061103000,5.14610302734375,-0.03787364438176155,-0.001832595793530345,0.015882495790719986
1697853783070999000,5.1559990234375,-0.03787364438176155,-0.001832595793530345,0.015882495790719986
1697853783081003000,5.1660029296875,-0.03787364438176155,-0.0012217304902151227,0.015882495790719986
1697853783090965000,5.175965087890625,-0.03787364438176155,-0.001832595793530345,0.015882495790719986
1697853783101158000,5.186157958984375,-0.036651913076639175,-0.0012217304902151227,0.015271631069481373
1697853783111091000,5.196091064453125,-0.03787364438176155,-0.0012217304902151227,0.015271631069481373
1697853783121161000,5.206160888671875,-0.03787364438176155,-0.0006108652451075613,0.015271631069481373
1697853783131010000,5.216010009765625,-0.03848451003432274,-0.0006108652451075613,0.01466076634824276
1697853783141272000,5.22627197265625,-0.039095375686883926,-0.001832595793530345,0.015882495790719986
1697853783151085000,5.2360849609375,-0.03848451003432274,-0.0024434609804302454,0.01710422709584236
1697853783161087000,5.2460869140625,-0.03848451003432274,-0.001832595793530345,0.015882495790719986
1697853783171157000,5.256156982421875,-0.03848451003432274,-0.0006108652451075613,0.015271631069481373
1697853783181209000,5.266208984375,-0.03787364438176155,-0.001832595793530345,0.016493361443281174
1697853783191105000,5.27610498046875,-0.036651913076639175,-0.001832595793530345,0.016493361443281174
1697853783201232000,5.28623193359375,-0.036651913076639175,-0.0012217304902151227,0.015882495790719986
1697853783211018000,5.29601806640625,-0.03726277872920036,-0.0012217304902151227,0.015882495790719986
1697853783221076000,5.306075927734375,-0.036651913076639175,-0.0006108652451075613,0.016493361443281174
1697853783233700000,5.3187001953125,-0.036651913076639175,-0.0012217304902151227,0.016493361443281174
1697853783251146000,5.33614599609375,-0.036651913076639175,-0.0006108652451075613,0.015271631069481373
1697853783261023000,5.34602294921875,-0.03787364438176155,-0.001832595793530345,0.015271631069481373
1697853783271006000,5.356005859375,-0.03787364438176155,-0.001832595793530345,0.015271631069481373
1697853783281135000,5.366135009765625,-0.03787364438176155,-0.0012217304902151227,0.01466076634824276
1697853783291050000,5.376050048828125,-0.03848451003432274,-0.0012217304902151227,0.014049900695681572
1697853783301077000,5.386076904296875,-0.03726277872920036,-0.0006108652451075613,0.01466076634824276
1697853783311066000,5.396066162109375,-0.03848451003432274,-0.0012217304902151227,0.015882495790719986
1697853783321269000,5.40626904296875,-0.03848451003432274,-0.0012217304902151227,0.016493361443281174
1697853783331267000,5.41626708984375,-0.03787364438176155,-0.0024434609804302454,0.015882495790719986
1697853783341275000,5.42627490234375,-0.03726277872920036,-0.001832595793530345,0.015271631069481373
1697853783351260000,5.436260009765625,-0.03787364438176155,-0.001832595793530345,0.01466076634824276
1697853783361262000,5.446261962890625,-0.03848451003432274,-0.0012217304902151227,0.013439035043120384
1697853783371426000,5.456426025390625,-0.03787364438176155,-0.001832595793530345,0.013439035043120384
1697853783381091000,5.466091064453125,-0.03726277872920036,-0.001832595793530345,0.012828170321881771
1697853783391044000,5.476044189453125,-0.03848451003432274,-0.0024434609804302454,0.013439035043120384
1697853783401001000,5.4860009765625,-0.039095375686883926,-0.0024434609804302454,0.012828170321881771
1697853783410977000,5.49597705078125,-0.039706241339445114,-0.0024434609804302454,0.012828170321881771
1697853783421043000,5.50604296875,-0.0403171069920063,-0.0024434609804302454,0.014049900695681572
1697853783431143000,5.516142822265625,-0.039706241339445114,-0.0024434609804302454,0.015271631069481373
1697853783441376000,5.5263759765625,-0.039706241339445114,-0.003054326167330146,0.015882495790719986
1697853783451181000,5.53618115234375,-0.0403171069920063,-0.003054326167330146,0.014049900695681572
1697853783461180000,5.546179931640625,-0.039706241339445114,-0.0024434609804302454,0.01466076634824276
1697853783471459000,5.556458984375,-0.039095375686883926,-0.001832595793530345,0.01466076634824276
1697853783481345000,5.566344970703125,-0.039095375686883926,-0.001832595793530345,0.013439035043120384
1697853783491599000,5.57659912109375,-0.03848451003432274,-0.001832595793530345,0.015882495790719986
1697853783501336000,5.586336181640625,-0.03848451003432274,0.0012217304902151227,0.01771509274840355
1697853783511306000,5.596305908203125,-0.03787364438176155,0.0006108652451075613,0.019547687843441963
1697853783522498000,5.607498046875,-0.036651913076639175,-0.0006108652451075613,0.018325956538319588
1697853783531467000,5.616467041015625,-0.036651913076639175,-0.0006108652451075613,0.018325956538319588
1697853783541392000,5.626391845703125,-0.03726277872920036,0.0006108652451075613,0.01771509274840355
1697853783551507000,5.6365068359375,-0.036041051149368286,0.0006108652451075613,0.01771509274840355
1697853783561347000,5.64634716796875,-0.036041051149368286,0.0006108652451075613,0.016493361443281174
1697853783571465000,5.65646484375,-0.036041051149368286,-0.0012217304902151227,0.01771509274840355
1697853783581495000,5.6664951171875,-0.0354301854968071,-0.0006108652451075613,0.01466076634824276
1697853783591414000,5.6764140625,-0.0354301854968071,-0.0006108652451075613,0.014049900695681572
1697853783601529000,5.686529052734375,-0.0354301854968071,-0.0012217304902151227,0.012217304669320583
1697853783611920000,5.696919921875,-0.036041051149368286,-0.0024434609804302454,0.01160643994808197
1697853783622145000,5.70714501953125,-0.036651913076639175,-0.0024434609804302454,0.010995574295520782
1697853783631179000,5.716178955078125,-0.03787364438176155,-0.003054326167330146,0.010995574295520782
1697853783641052000,5.726052001953125,-0.03787364438176155,-0.0024434609804302454,0.012217304669320583
1697853783651114000,5.736114013671875,-0.03787364438176155,-0.00366519158706069,0.013439035043120384
1697853783661250000,5.74625,-0.03848451003432274,-0.0024434609804302454,0.012828170321881771
1697853783671428000,5.756427978515625,-0.039095375686883926,-0.00366519158706069,0.012217304669320583
1697853783681478000,5.766477783203125,-0.039706241339445114,-0.00427605677396059,0.012828170321881771
1697853783691294000,5.7762939453125,-0.04092797264456749,-0.00427605677396059,0.012828170321881771
1697853783701086000,5.7860859375,-0.04092797264456749,-0.00366519158706069,0.013439035043120384
1697853783711437000,5.79643701171875,-0.04153883829712868,-0.0012217304902151227,0.014049900695681572
1697853783721223000,5.806222900390625,-0.04092797264456749,-0.0012217304902151227,0.01771509274840355
1697853783731294000,5.8162939453125,-0.0403171069920063,0.0012217304902151227,0.018936822190880775
1697853783741673000,5.8266728515625,-0.03848451003432274,-0.0006108652451075613,0.022602014243602753
1697853783751432000,5.836431884765625,-0.03726277872920036,-0.0006108652451075613,0.02321287989616394
1697853783761264000,5.84626416015625,-0.03726277872920036,-0.0006108652451075613,0.02321287989616394
1697853783771406000,5.856406005859375,-0.036041051149368286,-0.0006108652451075613,0.021991148591041565
1697853783781717000,5.866717041015625,-0.0354301854968071,0.0012217304902151227,0.02076941914856434
1697853783791218000,5.876218017578125,-0.03481931984424591,0.0006108652451075613,0.02076941914856434
1697853783801640000,5.886639892578125,-0.0354301854968071,0.001832595793530345,0.01710422709584236
1697853783811121000,5.896120849609375,-0.03420845419168472,0.001832595793530345,0.012828170321881771
1697853783821116000,5.906115966796875,-0.03420845419168472,-0.0006108652451075613,0.00855211354792118
1697853783831081000,5.9160810546875,-0.036041051149368286,-0.0006108652451075613,0.006108652334660292
1697853783841134000,5.926134033203125,-0.036041051149368286,-0.0006108652451075613,0.006108652334660292
1697853783851224000,5.93622412109375,-0.036651913076639175,0.0006108652451075613,0.006108652334660292
1697853783861627000,5.946626953125,-0.03848451003432274,-0.0006108652451075613,0.009773843921720982
1697853783871092000,5.956092041015625,-0.03848451003432274,-0.001832595793530345,0.012217304669320583
1697853783880978000,5.96597802734375,-0.0403171069920063,-0.0024434609804302454,0.01466076634824276
1697853783891104000,5.97610400390625,-0.039706241339445114,-0.0024434609804302454,0.016493361443281174
1697853783901144000,5.98614404296875,-0.0403171069920063,-0.00366519158706069,0.01771509274840355
1697853783911084000,5.996083984375,-0.0403171069920063,-0.00427605677396059,0.018936822190880775
1697853783921327000,6.0063271484375,-0.04092797264456749,-0.00366519158706069,0.01771509274840355
1697853783931114000,6.016114013671875,-0.04092797264456749,-0.003054326167330146,0.01710422709584236
1697853783941064000,6.02606396484375,-0.04092797264456749,-0.0024434609804302454,0.015882495790719986
1697853783951325000,6.036324951171875,-0.0403171069920063,-0.0024434609804302454,0.015271631069481373
1697853783961094000,6.046093994140625,-0.03848451003432274,-0.0024434609804302454,0.015882495790719986
1697853783971175000,6.0561748046875,-0.036651913076639175,-0.0024434609804302454,0.01710422709584236
1697853783981109000,6.06610888671875,-0.036041051149368286,-0.001832595793530345,0.018325956538319588
1697853783991090000,6.07608984375,-0.036041051149368286,-0.0012217304902151227,0.01771509274840355
1697853784001199000,6.08619921875,-0.036041051149368286,-0.0006108652451075613,0.01710422709584236
1697853784011361000,6.096361083984375,-0.036651913076639175,-0.0006108652451075613,0.01771509274840355
1697853784021392000,6.106391845703125,-0.036651913076639175,0.0006108652451075613,0.016493361443281174
1697853784031125000,6.116125,-0.03726277872920036,0.0006108652451075613,0.013439035043120384
1697853784041230000,6.12622998046875,-0.03726277872920036,-0.0012217304902151227,0.012217304669320583
1697853784051390000,6.136389892578125,-0.03787364438176155,-0.0012217304902151227,0.01038470957428217
1697853784061226000,6.14622607421875,-0.03848451003432274,-0.0012217304902151227,0.010995574295520782
1697853784071428000,6.156427978515625,-0.03787364438176155,-0.0012217304902151227,0.01160643994808197
1697853784081287000,6.166286865234375,-0.03787364438176155,-0.0006108652451075613,0.013439035043120384
1697853784091573000,6.176572998046875,-0.03848451003432274,-0.001832595793530345,0.016493361443281174
1697853784101266000,6.186265869140625,-0.03848451003432274,-0.001832595793530345,0.01710422709584236
1697853784111316000,6.19631591796875,-0.03787364438176155,-0.0012217304902151227,0.018936822190880775
1697853784121434000,6.20643408203125,-0.03848451003432274,-0.0012217304902151227,0.01771509274840355
1697853784131402000,6.216402099609375,-0.03787364438176155,-0.0012217304902151227,0.016493361443281174
1697853784141186000,6.22618603515625,-0.03787364438176155,-0.0012217304902151227,0.015882495790719986
1697853784151398000,6.23639794921875,-0.03848451003432274,-0.0012217304902151227,0.01466076634824276
1697853784161215000,6.246215087890625,-0.039095375686883926,-0.001832595793530345,0.014049900695681572
1697853784171190000,6.25618994140625,-0.039095375686883926,-0.0024434609804302454,0.01466076634824276
1697853784181764000,6.26676416015625,-0.03848451003432274,-0.001832595793530345,0.014049900695681572
1697853784191356000,6.27635595703125,-0.03848451003432274,-0.001832595793530345,0.01466076634824276
1697853784201457000,6.286456787109375,-0.03787364438176155,-0.001832595793530345,0.015271631069481373
1697853784211319000,6.296319091796875,-0.03787364438176155,-0.001832595793530345,0.015271631069481373
1697853784221348000,6.30634814453125,-0.03726277872920036,-0.0024434609804302454,0.01466076634824276
1697853784231495000,6.316494873046875,-0.03787364438176155,-0.0024434609804302454,0.01466076634824276
1697853784241389000,6.32638916015625,-0.03787364438176155,-0.0012217304902151227,0.014049900695681572
1697853784251502000,6.336502197265625,-0.03726277872920036,-0.0012217304902151227,0.014049900695681572
1697853784261540000,6.3465400390625,-0.03787364438176155,-0.0012217304902151227,0.014049900695681572
1697853784271499000,6.3564990234375,-0.03787364438176155,-0.0006108652451075613,0.01466076634824276
1697853784281375000,6.366375,-0.03848451003432274,-0.0006108652451075613,0.015271631069481373
1697853784291660000,6.376659912109375,-0.039706241339445114,-0.0012217304902151227,0.015271631069481373
1697853784301507000,6.386507080078125,-0.039095375686883926,-0.0012217304902151227,0.015882495790719986
1697853784311192000,6.396192138671875,-0.03848451003432274,-0.0012217304902151227,0.016493361443281174
1697853784321420000,6.406419921875,-0.039095375686883926,-0.001832595793530345,0.01710422709584236
1697853784331329000,6.4163291015625,-0.03787364438176155,-0.0012217304902151227,0.016493361443281174
1697853784341490000,6.426489990234375,-0.03726277872920036,-0.0012217304902151227,0.015882495790719986
1697853784351504000,6.43650390625,-0.03726277872920036,-0.0006108652451075613,0.015882495790719986
1697853784361544000,6.4465439453125,-0.03787364438176155,-0.001832595793530345,0.015882495790719986
1697853784371507000,6.4565068359375,-0.03726277872920036,-0.001832595793530345,0.016493361443281174
1697853784381367000,6.466366943359375,-0.03726277872920036,-0.0012217304902151227,0.015271631069481373
1697853784391481000,6.476481201171875,-0.03726277872920036,-0.0012217304902151227,0.015271631069481373
1697853784401530000,6.486530029296875,-0.03787364438176155,-0.0024434609804302454,0.014049900695681572
1697853784411382000,6.496382080078125,-0.03848451003432274,-0.001832595793530345,0.015271631069481373
1697853784421530000,6.506530029296875,-0.03787364438176155,-0.001832595793530345,0.015271631069481373
1697853784431522000,6.51652197265625,-0.03848451003432274,-0.001832595793530345,0.015271631069481373
1697853784441676000,6.526676025390625,-0.03787364438176155,-0.001832595793530345,0.01466076634824276
1697853784451502000,6.536502197265625,-0.03848451003432274,-0.0012217304902151227,0.014049900695681572
1697853784461525000,6.54652490234375,-0.036651913076639175,-0.001832595793530345,0.01466076634824276
1697853784471363000,6.556363037109375,-0.03726277872920036,-0.0012217304902151227,0.014049900695681572
1697853784481440000,6.56643994140625,-0.03726277872920036,-0.001832595793530345,0.014049900695681572
1697853784491234000,6.576234130859375,-0.03726277872920036,-0.001832595793530345,0.014049900695681572
1697853784501398000,6.58639794921875,-0.03787364438176155,-0.0012217304902151227,0.014049900695681572
1697853784511376000,6.5963759765625,-0.03787364438176155,-0.001832595793530345,0.01466076634824276
1697853784521527000,6.606527099609375,-0.03848451003432274,-0.0012217304902151227,0.014049900695681572
1697853784531335000,6.6163349609375,-0.03848451003432274,-0.001832595793530345,0.015271631069481373
1697853784541515000,6.626514892578125,-0.039095375686883926,-0.0012217304902151227,0.015271631069481373
1697853784551457000,6.63645703125,-0.039095375686883926,-0.001832595793530345,0.015271631069481373
1697853784561542000,6.6465419921875,-0.039706241339445114,-0.001832595793530345,0.015882495790719986
1697853784571458000,6.6564580078125,-0.03848451003432274,-0.001832595793530345,0.015271631069481373
1697853784581364000,6.666364013671875,-0.03848451003432274,-0.001832595793530345,0.01466076634824276
1697853784592171000,6.6771708984375,-0.03787364438176155,-0.0012217304902151227,0.01466076634824276
1697853784601516000,6.68651611328125,-0.03787364438176155,-0.0012217304902151227,0.01466076634824276
1697853784611364000,6.696364013671875,-0.03787364438176155,-0.0012217304902151227,0.015271631069481373
1697853784621527000,6.706527099609375,-0.03726277872920036,-0.0012217304902151227,0.015271631069481373
1697853784631370000,6.716369873046875,-0.03726277872920036,-0.0012217304902151227,0.016493361443281174
1697853784641493000,6.726492919921875,-0.03787364438176155,-0.0006108652451075613,0.015271631069481373
1697853784651366000,6.736365966796875,-0.03848451003432274,-0.001832595793530345,0.01710422709584236
1697853784661124000,6.7461240234375,-0.03726277872920036,-0.0006108652451075613,0.015882495790719986
1697853784672898000,6.75789794921875,-0.03787364438176155,-0.0006108652451075613,0.015882495790719986
1697853784681172000,6.766171875,-0.03787364438176155,-0.0006108652451075613,0.015271631069481373
1697853784690982000,6.77598193359375,-0.03787364438176155,-0.0006108652451075613,0.015882495790719986
1697853784701224000,6.786223876953125,-0.03787364438176155,-0.0006108652451075613,0.015882495790719986
1697853784710976000,6.79597607421875,-0.03726277872920036,-0.0006108652451075613,0.015271631069481373
1697853784721151000,6.80615087890625,-0.03726277872920036,-0.0006108652451075613,0.015271631069481373
1697853784731043000,6.81604296875,-0.03787364438176155,-0.0006108652451075613,0.01466076634824276
1697853784741092000,6.826092041015625,-0.03787364438176155,-0.0006108652451075613,0.015271631069481373
1697853784750961000,6.8359609375,-0.03726277872920036,-0.0006108652451075613,0.015271631069481373
1697853784761080000,6.846080078125,-0.03848451003432274,-0.0012217304902151227,0.015882495790719986
1697853784771050000,6.856050048828125,-0.03848451003432274,-0.0012217304902151227,0.015271631069481373
1697853784781078000,6.866078125,-0.03848451003432274,-0.0012217304902151227,0.015271631069481373
1697853784791067000,6.87606689453125,-0.03726277872920036,0.0012217304902151227,0.01466076634824276
1697853784801182000,6.886181884765625,-0.03726277872920036,0.0012217304902151227,0.015271631069481373
1697853784811224000,6.89622412109375,-0.03787364438176155,0.0012217304902151227,0.01466076634824276
1697853784821030000,6.90602978515625,-0.03787364438176155,0.0024434609804302454,0.01466076634824276
1697853784831149000,6.916149169921875,-0.03726277872920036,0.0024434609804302454,0.014049900695681572
1697853784841092000,6.926092041015625,-0.03787364438176155,0.0024434609804302454,0.01466076634824276
1697853784851042000,6.9360419921875,-0.03787364438176155,0.001832595793530345,0.015271631069481373
1697853784860977000,6.945976806640625,-0.03787364438176155,0.0006108652451075613,0.015271631069481373
1697853784870980000,6.95597998046875,-0.03726277872920036,0.0006108652451075613,0.014049900695681572
1697853784881105000,6.96610498046875,-0.03726277872920036,0.0012217304902151227,0.014049900695681572
1697853784891059000,6.976058837890625,-0.03848451003432274,0.0006108652451075613,0.014049900695681572
1697853784901089000,6.986089111328125,-0.03726277872920036,0.0006108652451075613,0.015271631069481373
1697853784911191000,6.99619091796875,-0.03787364438176155,-0.0006108652451075613,0.01466076634824276
1697853784921342000,7.006342041015625,-0.039095375686883926,-0.0024434609804302454,0.015271631069481373
1697853784931394000,7.01639404296875,-0.03848451003432274,-0.003054326167330146,0.015271631069481373
1697853784941386000,7.026385986328125,-0.03787364438176155,-0.003054326167330146,0.015271631069481373
1697853784951406000,7.036406005859375,-0.03787364438176155,-0.003054326167330146,0.015882495790719986
1697853784961393000,7.046392822265625,-0.03726277872920036,-0.003054326167330146,0.015271631069481373
1697853784971325000,7.056324951171875,-0.03848451003432274,-0.0024434609804302454,0.015271631069481373
1697853784981351000,7.066350830078125,-0.03726277872920036,-0.0012217304902151227,0.01466076634824276
1697853784991155000,7.076155029296875,-0.036651913076639175,-0.001832595793530345,0.01466076634824276
1697853785001327000,7.0863271484375,-0.036651913076639175,-0.001832595793530345,0.014049900695681572
1697853785011164000,7.096163818359375,-0.03726277872920036,-0.0006108652451075613,0.015882495790719986
1697853785021663000,7.1066630859375,-0.03787364438176155,-0.0006108652451075613,0.015271631069481373
1697853785031451000,7.116450927734375,-0.03848451003432274,-0.0006108652451075613,0.01466076634824276
1697853785041241000,7.126240966796875,-0.03848451003432274,-0.001832595793530345,0.01466076634824276
1697853785051356000,7.13635595703125,-0.03848451003432274,-0.00427605677396059,0.013439035043120384
1697853785061301000,7.146301025390625,-0.03848451003432274,-0.003054326167330146,0.01466076634824276
1697853785071440000,7.15643994140625,-0.03848451003432274,-0.001832595793530345,0.015271631069481373
1697853785081363000,7.166363037109375,-0.03848451003432274,-0.001832595793530345,0.014049900695681572
1697853785092214000,7.177214111328125,-0.03848451003432274,-0.001832595793530345,0.015882495790719986
1697853785101159000,7.186158935546875,-0.03787364438176155,-0.003054326167330146,0.015271631069481373
1697853785111520000,7.19652001953125,-0.03726277872920036,-0.0024434609804302454,0.015271631069481373
1697853785121041000,7.206041015625,-0.03726277872920036,-0.001832595793530345,0.015271631069481373
1697853785131184000,7.21618408203125,-0.03787364438176155,-0.001832595793530345,0.015271631069481373
1697853785141001000,7.2260009765625,-0.03726277872920036,-0.001832595793530345,0.015882495790719986
1697853785151062000,7.23606201171875,-0.03726277872920036,-0.001832595793530345,0.015882495790719986
1697853785161433000,7.24643310546875,-0.03726277872920036,-0.001832595793530345,0.015271631069481373
1697853785171321000,7.256321044921875,-0.03787364438176155,-0.001832595793530345,0.014049900695681572
1697853785181090000,7.266090087890625,-0.03787364438176155,-0.001832595793530345,0.014049900695681572
1697853785191156000,7.276156005859375,-0.03787364438176155,-0.0012217304902151227,0.01466076634824276
1697853785201287000,7.286286865234375,-0.03848451003432274,-0.001832595793530345,0.014049900695681572
1697853785212036000,7.2970361328125,-0.03787364438176155,-0.00366519158706069,0.015271631069481373
1697853785221197000,7.306197021484375,-0.03787364438176155,-0.00366519158706069,0.015271631069481373
1697853785231104000,7.31610400390625,-0.03787364438176155,-0.006108652334660292,0.016493361443281174
1697853785241300000,7.326300048828125,-0.03787364438176155,-0.00855211354792118,0.015882495790719986
1697853785252412000,7.337411865234375,-0.03726277872920036,-0.009773843921720982,0.016493361443281174
1697853785261388000,7.346387939453125,-0.03726277872920036,-0.00855211354792118,0.016493361443281174
1697853785271556000,7.35655615234375,-0.03726277872920036,-0.006108652334660292,0.016493361443281174
1697853785281310000,7.36631005859375,-0.03848451003432274,-0.003054326167330146,0.015271631069481373
1697853785291394000,7.37639404296875,-0.03848451003432274,-0.0006108652451075613,0.01466076634824276
1697853785301528000,7.386528076171875,-0.03848451003432274,0.001832595793530345,0.01466076634824276
1697853785311395000,7.39639501953125,-0.03848451003432274,0.00366519158706069,0.014049900695681572
1697853785321453000,7.406453125,-0.03848451003432274,0.0012217304902151227,0.01466076634824276
1697853785332537000,7.417537109375,-0.03787364438176155,-0.0012217304902151227,0.015271631069481373
1697853785341342000,7.426342041015625,-0.03787364438176155,-0.005497787147760391,0.015882495790719986
1697853785351469000,7.436468994140625,-0.03787364438176155,-0.006108652334660292,0.015882495790719986
1697853785361475000,7.44647509765625,-0.03848451003432274,0.013439035043120384,0.012828170321881771
1697853785371415000,7.4564150390625,-0.03848451003432274,-0.0012217304902151227,0.015271631069481373
1697853785382354000,7.46735400390625,-0.03787364438176155,-0.0012217304902151227,0.01466076634824276
1697853785391306000,7.476305908203125,-0.03848451003432274,-0.0012217304902151227,0.01466076634824276
1697853785401532000,7.486531982421875,-0.03848451003432274,-0.0012217304902151227,0.01466076634824276
1697853785411493000,7.4964931640625,-0.03848451003432274,-0.0012217304902151227,0.01466076634824276
1697853785421440000,7.50643994140625,-0.03787364438176155,-0.0012217304902151227,0.015271631069481373
1697853785431392000,7.51639208984375,-0.03848451003432274,-0.0024434609804302454,0.01466076634824276
1697853785441305000,7.52630517578125,-0.039095375686883926,-0.001832595793530345,0.015271631069481373
1697853785451466000,7.536466064453125,-0.03848451003432274,-0.0012217304902151227,0.015271631069481373
1697853785461130000,7.5461298828125,-0.03787364438176155,-0.0012217304902151227,0.015271631069481373
1697853785471111000,7.55611083984375,-0.03848451003432274,-0.0006108652451075613,0.01466076634824276
1697853785481054000,7.566053955078125,-0.03726277872920036,-0.0012217304902151227,0.01466076634824276
1697853785490962000,7.5759619140625,-0.03787364438176155,-0.0006108652451075613,0.01466076634824276
1697853785501399000,7.58639892578125,-0.03848451003432274,-0.0006108652451075613,0.015882495790719986
1697853785511219000,7.596218994140625,-0.03787364438176155,-0.001832595793530345,0.015882495790719986
1697853785521332000,7.60633203125,-0.03787364438176155,-0.001832595793530345,0.015271631069481373
1697853785531302000,7.616302001953125,-0.03787364438176155,-0.0012217304902151227,0.015882495790719986
1697853785541463000,7.626463134765625,-0.03787364438176155,-0.0012217304902151227,0.015271631069481373
1697853785551409000,7.636408935546875,-0.03848451003432274,-0.0006108652451075613,0.015271631069481373
1697853785561215000,7.646215087890625,-0.03787364438176155,-0.001832595793530345,0.015271631069481373
1697853785571446000,7.656446044921875,-0.03787364438176155,-0.0012217304902151227,0.014049900695681572
1697853785581224000,7.666223876953125,-0.03848451003432274,-0.0006108652451075613,0.01466076634824276
1697853785591741000,7.676740966796875,-0.03787364438176155,-0.0006108652451075613,0.014049900695681572
1697853785601110000,7.686110107421875,-0.03787364438176155,-0.001832595793530345,0.015271631069481373
1697853785611356000,7.69635595703125,-0.03787364438176155,-0.0012217304902151227,0.015271631069481373
1697853785621146000,7.70614599609375,-0.03848451003432274,-0.0012217304902151227,0.01466076634824276
1697853785631083000,7.7160830078125,-0.03787364438176155,-0.0012217304902151227,0.015271631069481373
1697853785641099000,7.72609912109375,-0.03848451003432274,-0.001832595793530345,0.015271631069481373
1697853785651051000,7.736051025390625,-0.03848451003432274,-0.0012217304902151227,0.015271631069481373
1697853785661379000,7.746379150390625,-0.03787364438176155,-0.001832595793530345,0.015882495790719986
1697853785671375000,7.756375,-0.03848451003432274,-0.001832595793530345,0.015882495790719986
1697853785681373000,7.766373046875,-0.03787364438176155,-0.001832595793530345,0.015271631069481373
1697853785691335000,7.7763349609375,-0.03848451003432274,-0.001832595793530345,0.015271631069481373
1697853785701513000,7.786512939453125,-0.03726277872920036,-0.001832595793530345,0.015882495790719986
1697853785711084000,7.796083984375,-0.03787364438176155,-0.0012217304902151227,0.015271631069481373
1697853785721242000,7.8062421875,-0.03848451003432274,-0.0012217304902151227,0.01466076634824276
1697853785731489000,7.816489013671875,-0.03787364438176155,-0.0006108652451075613,0.01466076634824276
1697853785741115000,7.826114990234375,-0.03726277872920036,-0.001832595793530345,0.015882495790719986
1697853785751255000,7.836255126953125,-0.03726277872920036,-0.0012217304902151227,0.01466076634824276
1697853785761144000,7.84614404296875,-0.03726277872920036,-0.001832595793530345,0.015271631069481373
1697853785771177000,7.856177001953125,-0.03787364438176155,-0.001832595793530345,0.015882495790719986
1697853785781011000,7.866010986328125,-0.039095375686883926,-0.001832595793530345,0.015271631069481373
1697853785791120000,7.876119873046875,-0.03726277872920036,-0.0012217304902151227,0.01466076634824276
1697853785801197000,7.886197021484375,-0.036651913076639175,-0.0006108652451075613,0.014049900695681572
1697853785811169000,7.8961689453125,-0.03726277872920036,-0.001832595793530345,0.015271631069481373
1697853785821239000,7.906239013671875,-0.03787364438176155,-0.0024434609804302454,0.01466076634824276
1697853785831088000,7.916088134765625,-0.03787364438176155,-0.001832595793530345,0.015882495790719986
1697853785841519000,7.92651904296875,-0.03726277872920036,-0.0012217304902151227,0.015271631069481373
1697853785851132000,7.9361318359375,-0.03787364438176155,-0.0012217304902151227,0.015882495790719986
1697853785861126000,7.9461259765625,-0.03848451003432274,-0.0012217304902151227,0.015882495790719986
1697853785871086000,7.956086181640625,-0.03726277872920036,-0.001832595793530345,0.015271631069481373
1697853785881368000,7.9663681640625,-0.03787364438176155,-0.0006108652451075613,0.015882495790719986
1697853785890976000,7.97597607421875,-0.03848451003432274,-0.001832595793530345,0.01466076634824276
1697853785901059000,7.98605908203125,-0.03787364438176155,-0.001832595793530345,0.01466076634824276
1697853785911108000,7.996108154296875,-0.036041051149368286,-0.001832595793530345,0.01466076634824276
1697853785921085000,8.0060849609375,-0.03787364438176155,-0.0006108652451075613,0.015271631069481373
1697853785931144000,8.01614404296875,-0.03787364438176155,-0.001832595793530345,0.015882495790719986
1697853785941085000,8.0260849609375,-0.03787364438176155,-0.001832595793530345,0.015271631069481373
1697853785951207000,8.03620703125,-0.03787364438176155,-0.001832595793530345,0.015271631069481373
1697853785961112000,8.046112060546875,-0.03726277872920036,-0.0012217304902151227,0.014049900695681572
1697853785971224000,8.05622412109375,-0.03726277872920036,-0.0012217304902151227,0.015271631069481373
1697853785981226000,8.06622607421875,-0.03726277872920036,-0.0012217304902151227,0.015271631069481373
1697853785990974000,8.075973876953125,-0.03726277872920036,-0.0012217304902151227,0.01466076634824276
1697853786001507000,8.086507080078125,-0.03787364438176155,-0.0006108652451075613,0.01466076634824276
1697853786011334000,8.096333984375,-0.03726277872920036,-0.0006108652451075613,0.015271631069481373
1697853786021212000,8.1062119140625,-0.03787364438176155,-0.0006108652451075613,0.015271631069481373
1697853786031429000,8.11642919921875,-0.03848451003432274,-0.0024434609804302454,0.015271631069481373
1697853786041295000,8.126295166015625,-0.03787364438176155,-0.001832595793530345,0.015271631069481373
1697853786051342000,8.136342041015626,-0.03726277872920036,-0.0024434609804302454,0.01466076634824276
1697853786061234000,8.14623388671875,-0.03848451003432274,-0.0006108652451075613,0.01466076634824276
1697853786071062000,8.15606201171875,-0.03787364438176155,-0.001832595793530345,0.015271631069481373
1697853786081271000,8.16627099609375,-0.03787364438176155,-0.0012217304902151227,0.015271631069481373
1697853786091315000,8.17631494140625,-0.03787364438176155,-0.0012217304902151227,0.015882495790719986
1697853786101214000,8.1862138671875,-0.03848451003432274,-0.0012217304902151227,0.015882495790719986
1697853786111168000,8.19616796875,-0.03787364438176155,-0.0012217304902151227,0.015882495790719986
1697853786121043000,8.20604296875,-0.03787364438176155,-0.0012217304902151227,0.01466076634824276
1697853786131569000,8.21656884765625,-0.03787364438176155,-0.001832595793530345,0.015882495790719986
1697853786141300000,8.226300048828126,-0.03787364438176155,-0.001832595793530345,0.015882495790719986
1697853786151354000,8.23635400390625,-0.03848451003432274,-0.0012217304902151227,0.015271631069481373
1697853786161153000,8.246153076171876,-0.03848451003432274,-0.0006108652451075613,0.015271631069481373
1697853786171080000,8.256079833984375,-0.03726277872920036,-0.001832595793530345,0.01466076634824276
1697853786181056000,8.266055908203125,-0.03848451003432274,-0.0012217304902151227,0.015271631069481373
1697853786191972000,8.27697216796875,-0.03787364438176155,-0.001832595793530345,0.01466076634824276
1697853786201249000,8.2862490234375,-0.03787364438176155,-0.0012217304902151227,0.01466076634824276
1697853786211898000,8.296898193359375,-0.03787364438176155,-0.0012217304902151227,0.014049900695681572
1697853786221299000,8.306298828125,-0.03848451003432274,-0.0006108652451075613,0.01466076634824276
1697853786231030000,8.316030029296876,-0.03848451003432274,-0.0006108652451075613,0.014049900695681572
1697853786242725000,8.32772509765625,-0.03787364438176155,-0.0012217304902151227,0.01466076634824276
1697853786251018000,8.33601806640625,-0.03787364438176155,-0.001832595793530345,0.015882495790719986
1697853786261033000,8.346032958984376,-0.03787364438176155,-0.0012217304902151227,0.015271631069481373
1697853786271117000,8.356116943359375,-0.03787364438176155,-0.0012217304902151227,0.015271631069481373
1697853786281058000,8.36605810546875,-0.03848451003432274,-0.0012217304902151227,0.015271631069481373
1697853786291046000,8.3760458984375,-0.03848451003432274,-0.0012217304902151227,0.015271631069481373
1697853786301041000,8.386041015625,-0.03787364438176155,-0.001832595793530345,0.015882495790719986
1697853786312770000,8.39777001953125,-0.03787364438176155,-0.001832595793530345,0.015882495790719986
1697853786321005000,8.406005126953126,-0.039095375686883926,-0.0012217304902151227,0.01466076634824276
1697853786331026000,8.41602587890625,-0.03848451003432274,-0.0012217304902151227,0.015271631069481373
1697853786340998000,8.425997802734376,-0.03726277872920036,-0.001832595793530345,0.01466076634824276
1697853786351029000,8.436029052734375,-0.03787364438176155,-0.0024434609804302454,0.014049900695681572
1697853786361031000,8.446031005859375,-0.03787364438176155,-0.0012217304902151227,0.01466076634824276
1697853786371046000,8.4560458984375,-0.03787364438176155,-0.001832595793530345,0.015271631069481373
1697853786381007000,8.466007080078125,-0.03726277872920036,-0.001832595793530345,0.015271631069481373
1697853786391026000,8.47602587890625,-0.03787364438176155,-0.0012217304902151227,0.015882495790719986
1697853786401397000,8.48639697265625,-0.03787364438176155,-0.0012217304902151227,0.015271631069481373
1697853786411017000,8.496016845703124,-0.03787364438176155,-0.0012217304902151227,0.015882495790719986
1697853786420980000,8.50597998046875,-0.03726277872920036,-0.0012217304902151227,0.014049900695681572
1697853786431013000,8.51601318359375,-0.03787364438176155,-0.0012217304902151227,0.01466076634824276
1697853786441022000,8.52602197265625,-0.03787364438176155,-0.0012217304902151227,0.015882495790719986
1697853786451220000,8.536219970703126,-0.03787364438176155,-0.001832595793530345,0.015882495790719986
1697853786461007000,8.546007080078125,-0.03726277872920036,-0.0012217304902151227,0.015271631069481373
1697853786474588000,8.559587890625,-0.03787364438176155,-0.001832595793530345,0.01466076634824276
1697853786490976000,8.57597607421875,-0.03848451003432274,-0.0012217304902151227,0.016493361443281174
1697853786501282000,8.586281982421875,-0.039095375686883926,-0.001832595793530345,0.015271631069481373
1697853786511001000,8.5960009765625,-0.03848451003432274,-0.001832595793530345,0.015271631069481373
1697853786520943000,8.605943115234375,-0.03726277872920036,-0.001832595793530345,0.01466076634824276
1697853786530960000,8.6159599609375,-0.036651913076639175,-0.0012217304902151227,0.014049900695681572
1697853786540957000,8.62595703125,-0.03787364438176155,-0.0012217304902151227,0.01466076634824276
1697853786550939000,8.63593896484375,-0.03787364438176155,-0.0012217304902151227,0.01466076634824276
1697853786561045000,8.646044921875,-0.03787364438176155,-0.001832595793530345,0.01466076634824276
1697853786570986000,8.655986083984375,-0.03726277872920036,-0.001832595793530345,0.01466076634824276
1697853786581077000,8.666076904296874,-0.03726277872920036,-0.0024434609804302454,0.01466076634824276
1697853786590969000,8.675968994140625,-0.03787364438176155,-0.001832595793530345,0.015271631069481373
1697853786601018000,8.68601806640625,-0.03787364438176155,-0.0012217304902151227,0.015271631069481373
1697853786610985000,8.69598486328125,-0.03848451003432274,-0.0012217304902151227,0.015271631069481373
1697853786621029000,8.706029052734374,-0.03848451003432274,-0.0012217304902151227,0.016493361443281174
1697853786630954000,8.7159541015625,-0.03787364438176155,-0.001832595793530345,0.01466076634824276
1697853786641122000,8.7261220703125,-0.03787364438176155,-0.0024434609804302454,0.015271631069481373
1697853786651005000,8.7360048828125,-0.03726277872920036,-0.001832595793530345,0.01466076634824276
1697853786660997000,8.7459970703125,-0.03726277872920036,-0.001832595793530345,0.015882495790719986
1697853786670966000,8.755966064453125,-0.03726277872920036,-0.001832595793530345,0.015882495790719986
1697853786681025000,8.76602490234375,-0.03726277872920036,-0.001832595793530345,0.015271631069481373
1697853786691025000,8.77602490234375,-0.03787364438176155,-0.001832595793530345,0.015882495790719986
1697853786700978000,8.78597802734375,-0.03848451003432274,-0.001832595793530345,0.015271631069481373
1697853786710959000,8.795958984375,-0.03787364438176155,-0.001832595793530345,0.01466076634824276
1697853786721154000,8.806154052734374,-0.03848451003432274,-0.0012217304902151227,0.01466076634824276
1697853786731336000,8.8163359375,-0.039095375686883926,-0.001832595793530345,0.015271631069481373
1697853786741044000,8.8260439453125,-0.03848451003432274,-0.0012217304902151227,0.01466076634824276
1697853786751128000,8.836128173828126,-0.03848451003432274,-0.0012217304902151227,0.01466076634824276
1697853786761127000,8.846126953125,-0.03726277872920036,-0.0012217304902151227,0.015271631069481373
1697853786771065000,8.856065185546875,-0.03787364438176155,-0.001832595793530345,0.015271631069481373
1697853786781011000,8.866010986328124,-0.03787364438176155,-0.001832595793530345,0.016493361443281174
1697853786791021000,8.87602099609375,-0.03787364438176155,-0.0012217304902151227,0.01771509274840355
1697853786801144000,8.88614404296875,-0.03787364438176155,-0.0012217304902151227,0.016493361443281174
1697853786810982000,8.89598193359375,-0.03787364438176155,-0.0012217304902151227,0.016493361443281174
1697853786821119000,8.906118896484376,-0.03726277872920036,-0.001832595793530345,0.015271631069481373
1697853786830979000,8.91597900390625,-0.03787364438176155,-0.0006108652451075613,0.015882495790719986
1697853786840995000,8.9259951171875,-0.03726277872920036,-0.0006108652451075613,0.01466076634824276
1697853786851206000,8.936205810546875,-0.03787364438176155,-0.0012217304902151227,0.015271631069481373
1697853786861055000,8.946054931640624,-0.03787364438176155,-0.0012217304902151227,0.015271631069481373
1697853786872249000,8.9572490234375,-0.03787364438176155,-0.0012217304902151227,0.01466076634824276
1697853786881045000,8.966044921875,-0.03787364438176155,-0.0012217304902151227,0.014049900695681572
1697853786891991000,8.976990966796874,-0.03787364438176155,-0.0006108652451075613,0.013439035043120384
1697853786901009000,8.9860087890625,-0.03848451003432274,-0.0006108652451075613,0.015882495790719986
1697853786911017000,8.996016845703124,-0.03787364438176155,-0.0006108652451075613,0.015271631069481373
1697853786921022000,9.00602197265625,-0.03787364438176155,-0.0012217304902151227,0.015271631069481373
1697853786931007000,9.016007080078126,-0.03848451003432274,-0.0006108652451075613,0.01466076634824276
1697853786941114000,9.026114013671876,-0.03848451003432274,-0.0012217304902151227,0.015271631069481373
1697853786951157000,9.036156982421875,-0.039095375686883926,-0.001832595793530345,0.014049900695681572
1697853786961136000,9.04613623046875,-0.03726277872920036,-0.0012217304902151227,0.014049900695681572
1697853786971040000,9.0560400390625,-0.03726277872920036,-0.0006108652451075613,0.014049900695681572
1697853786981531000,9.06653076171875,-0.03726277872920036,-0.001832595793530345,0.013439035043120384
1697853786991015000,9.076014892578126,-0.03787364438176155,-0.001832595793530345,0.01466076634824276
1697853787001004000,9.086004150390625,-0.03848451003432274,-0.0012217304902151227,0.01466076634824276
1697853787011017000,9.096016845703126,-0.039095375686883926,-0.0006108652451075613,0.015271631069481373
1697853787021104000,9.106104248046876,-0.03848451003432274,-0.0006108652451075613,0.01466076634824276
1697853787031123000,9.116123046875,-0.039095375686883926,-0.0012217304902151227,0.015271631069481373
1697853787041116000,9.126115966796876,-0.039095375686883926,-0.0006108652451075613,0.015882495790719986
1697853787051071000,9.136071044921875,-0.03848451003432274,-0.0012217304902151227,0.01466076634824276
1697853787061104000,9.146104248046875,-0.03787364438176155,-0.0024434609804302454,0.015882495790719986
1697853787071096000,9.156095947265625,-0.03726277872920036,-0.0024434609804302454,0.01466076634824276
1697853787081298000,9.1662978515625,-0.03726277872920036,-0.00366519158706069,0.01466076634824276
1697853787090994000,9.175993896484375,-0.036651913076639175,-0.00427605677396059,0.015271631069481373
1697853787101049000,9.186049072265625,-0.036651913076639175,-0.004886921960860491,0.013439035043120384
1697853787111518000,9.19651806640625,-0.03726277872920036,-0.00366519158706069,0.014049900695681572
1697853787121117000,9.206116943359374,-0.03787364438176155,-0.0012217304902151227,0.01466076634824276
1697853787131507000,9.2165068359375,-0.03787364438176155,0.0006108652451075613,0.016493361443281174
1697853787141119000,9.226118896484374,-0.039095375686883926,-0.0006108652451075613,0.018936822190880775
1697853787151047000,9.236046875,-0.039095375686883926,-0.001832595793530345,0.018325956538319588
1697853787161046000,9.2460458984375,-0.03787364438176155,-0.003054326167330146,0.01710422709584236
1697853787170987000,9.255987060546875,-0.03848451003432274,-0.0024434609804302454,0.014049900695681572
1697853787181127000,9.266126953125,-0.03848451003432274,-0.001832595793530345,0.012828170321881771
1697853787191014000,9.276013916015625,-0.03848451003432274,-0.0006108652451075613,0.01160643994808197
1697853787201155000,9.286155029296875,-0.039095375686883926,-0.0006108652451075613,0.012828170321881771
1697853787211052000,9.296052001953125,-0.03848451003432274,-0.0006108652451075613,0.012828170321881771
1697853787221440000,9.30643994140625,-0.03787364438176155,-0.0006108652451075613,0.014049900695681572
1697853787231592000,9.316592041015625,-0.03726277872920036,-0.0012217304902151227,0.015882495790719986
1697853787241093000,9.326093017578126,-0.03726277872920036,-0.0006108652451075613,0.016493361443281174
1697853787251430000,9.336429931640625,-0.03848451003432274,-0.0006108652451075613,0.01710422709584236
1697853787261240000,9.346239990234375,-0.03848451003432274,-0.0006108652451075613,0.015882495790719986
1697853787271244000,9.356244140625,-0.03848451003432274,-0.0012217304902151227,0.015882495790719986
1697853787281088000,9.366087890625,-0.03787364438176155,-0.0012217304902151227,0.01466076634824276
1697853787291274000,9.37627392578125,-0.03848451003432274,-0.0012217304902151227,0.014049900695681572
1697853787301335000,9.3863349609375,-0.03848451003432274,-0.0024434609804302454,0.01466076634824276
1697853787311626000,9.3966259765625,-0.03848451003432274,-0.001832595793530345,0.015271631069481373
1697853787321322000,9.406322021484375,-0.03787364438176155,-0.001832595793530345,0.015271631069481373
1697853787331360000,9.416360107421875,-0.03787364438176155,-0.0006108652451075613,0.01466076634824276
1697853787341389000,9.42638916015625,-0.03848451003432274,-0.0006108652451075613,0.015882495790719986
1697853787351355000,9.43635498046875,-0.03787364438176155,-0.001832595793530345,0.01710422709584236
1697853787361362000,9.44636181640625,-0.03848451003432274,-0.0012217304902151227,0.016493361443281174
1697853787371178000,9.456177978515624,-0.03848451003432274,-0.0012217304902151227,0.01466076634824276
1697853787381393000,9.466392822265625,-0.03848451003432274,-0.0006108652451075613,0.015271631069481373
1697853787391370000,9.476369873046876,-0.03787364438176155,-0.0012217304902151227,0.015271631069481373
1697853787401538000,9.4865380859375,-0.03787364438176155,-0.0012217304902151227,0.01466076634824276
1697853787411485000,9.49648486328125,-0.03726277872920036,-0.0012217304902151227,0.015271631069481373
1697853787421331000,9.5063310546875,-0.03726277872920036,-0.0012217304902151227,0.01466076634824276
1697853787431494000,9.516493896484375,-0.03787364438176155,-0.001832595793530345,0.015882495790719986
1697853787441521000,9.52652099609375,-0.03726277872920036,-0.001832595793530345,0.015271631069481373
1697853787451488000,9.536488037109375,-0.03726277872920036,-0.001832595793530345,0.015271631069481373
1697853787461374000,9.5463740234375,-0.03787364438176155,-0.0024434609804302454,0.01466076634824276
1697853787471341000,9.556341064453125,-0.03848451003432274,-0.003054326167330146,0.015271631069481373
1697853787481360000,9.56635986328125,-0.03848451003432274,-0.001832595793530345,0.01466076634824276
1697853787491998000,9.576998046875,-0.03848451003432274,-0.0012217304902151227,0.01466076634824276
1697853787501522000,9.58652197265625,-0.03787364438176155,-0.0012217304902151227,0.015271631069481373
1697853787511497000,9.5964970703125,-0.03848451003432274,-0.0024434609804302454,0.014049900695681572
1697853787521493000,9.606492919921875,-0.03787364438176155,-0.001832595793530345,0.01466076634824276
1697853787531972000,9.61697216796875,-0.03787364438176155,-0.001832595793530345,0.014049900695681572
1697853787541095000,9.626094970703125,-0.03848451003432274,-0.001832595793530345,0.01466076634824276
1697853787551194000,9.636194091796876,-0.03848451003432274,-0.0006108652451075613,0.015882495790719986
1697853787561188000,9.64618798828125,-0.03726277872920036,-0.0012217304902151227,0.015882495790719986
1697853787571366000,9.656365966796875,-0.03787364438176155,-0.0006108652451075613,0.015882495790719986
1697853787581333000,9.6663330078125,-0.03726277872920036,-0.0012217304902151227,0.015882495790719986
1697853787591384000,9.676384033203124,-0.03787364438176155,-0.001832595793530345,0.015271631069481373
1697853787601210000,9.686210205078124,-0.03848451003432274,-0.0012217304902151227,0.015271631069481373
1697853787611077000,9.6960771484375,-0.03787364438176155,-0.0006108652451075613,0.01466076634824276
1697853787621263000,9.70626318359375,-0.039095375686883926,-0.0012217304902151227,0.015271631069481373
1697853787631252000,9.716251953125,-0.03787364438176155,-0.0006108652451075613,0.015271631069481373
1697853787641127000,9.726126953125,-0.03787364438176155,-0.001832595793530345,0.01466076634824276
1697853787650990000,9.735989990234375,-0.03787364438176155,-0.001832595793530345,0.015882495790719986
1697853787661081000,9.7460810546875,-0.03787364438176155,-0.001832595793530345,0.015271631069481373
1697853787671531000,9.756531005859374,-0.03787364438176155,-0.0012217304902151227,0.01466076634824276
1697853787681122000,9.7661220703125,-0.03726277872920036,-0.0012217304902151227,0.01466076634824276
1697853787691584000,9.776583984375,-0.03787364438176155,-0.0024434609804302454,0.015271631069481373
1697853787701231000,9.786231201171875,-0.03787364438176155,-0.001832595793530345,0.015271631069481373
1697853787711153000,9.79615283203125,-0.039095375686883926,-0.001832595793530345,0.015271631069481373
1697853787721283000,9.806282958984376,-0.03848451003432274,-0.001832595793530345,0.015882495790719986
1697853787731102000,9.81610205078125,-0.039095375686883926,-0.001832595793530345,0.015882495790719986
1697853787741093000,9.826093017578126,-0.03726277872920036,-0.0012217304902151227,0.015882495790719986
1697853787751176000,9.836176025390625,-0.03848451003432274,-0.0006108652451075613,0.015271631069481373
1697853787761478000,9.846477783203126,-0.03787364438176155,-0.0012217304902151227,0.015882495790719986
1697853787771276000,9.856276123046875,-0.03787364438176155,-0.001832595793530345,0.015271631069481373
1697853787781456000,9.866455810546874,-0.03787364438176155,-0.001832595793530345,0.014049900695681572
1697853787791171000,9.876171142578125,-0.03787364438176155,-0.0012217304902151227,0.015271631069481373
1697853787801435000,9.886434814453125,-0.03787364438176155,-0.001832595793530345,0.015271631069481373
1697853787811432000,9.896431884765626,-0.03787364438176155,-0.001832595793530345,0.015271631069481373
1697853787821534000,9.906533935546875,-0.03787364438176155,-0.001832595793530345,0.01466076634824276
1697853787831210000,9.9162099609375,-0.03787364438176155,-0.001832595793530345,0.01466076634824276
1697853787841255000,9.9262548828125,-0.03848451003432274,-0.0012217304902151227,0.016493361443281174
1697853787852970000,9.937969970703126,-0.03787364438176155,-0.0012217304902151227,0.015882495790719986
1697853787861099000,9.94609912109375,-0.03787364438176155,-0.001832595793530345,0.01466076634824276
1697853787871154000,9.95615380859375,-0.039095375686883926,-0.001832595793530345,0.01466076634824276
1697853787881475000,9.96647509765625,-0.039095375686883926,-0.001832595793530345,0.015271631069481373
1697853787891005000,9.9760048828125,-0.03848451003432274,-0.001832595793530345,0.015271631069481373
1697853787901024000,9.98602392578125,-0.03848451003432274,-0.0012217304902151227,0.015271631069481373
1697853787911008000,9.996008056640624,-0.03787364438176155,-0.001832595793530345,0.015882495790719986
1697853787921072000,10.006072021484375,-0.03787364438176155,-0.001832595793530345,0.016493361443281174
1697853787931007000,10.016007080078126,-0.039095375686883926,-0.0012217304902151227,0.015882495790719986
1697853787941128000,10.0261279296875,-0.03848451003432274,-0.0012217304902151227,0.015882495790719986
1697853787951136000,10.036135986328125,-0.03848451003432274,-0.0012217304902151227,0.015271631069481373
1697853787961229000,10.04622900390625,-0.03848451003432274,-0.0006108652451075613,0.015271631069481373
1697853787971118000,10.0561181640625,-0.03787364438176155,-0.0012217304902151227,0.015271631069481373
1697853787981134000,10.066134033203125,-0.03787364438176155,-0.0012217304902151227,0.014049900695681572
1697853787991119000,10.076119140625,-0.03787364438176155,-0.0012217304902151227,0.01466076634824276
1697853788001151000,10.08615087890625,-0.036651913076639175,-0.0012217304902151227,0.01466076634824276
1697853788010999000,10.0959990234375,-0.03726277872920036,-0.001832595793530345,0.01466076634824276
1697853788021089000,10.106089111328124,-0.03848451003432274,-0.0012217304902151227,0.015882495790719986
1697853788031299000,10.116299072265624,-0.039095375686883926,-0.0012217304902151227,0.015271631069481373
1697853788041119000,10.126118896484375,-0.03848451003432274,-0.0012217304902151227,0.015882495790719986
1697853788051102000,10.13610205078125,-0.03848451003432274,-0.001832595793530345,0.015271631069481373
1697853788061243000,10.146242919921875,-0.03848451003432274,-0.0024434609804302454,0.01466076634824276
1697853788071016000,10.156015869140624,-0.03848451003432274,-0.0012217304902151227,0.015271631069481373
1697853788081266000,10.166265869140625,-0.03848451003432274,-0.001832595793530345,0.015271631069481373
1697853788091278000,10.176278076171876,-0.03848451003432274,-0.001832595793530345,0.01466076634824276
1697853788101159000,10.186158935546874,-0.03848451003432274,-0.001832595793530345,0.01466076634824276
1697853788111025000,10.19602490234375,-0.03787364438176155,-0.0012217304902151227,0.015271631069481373
1697853788121019000,10.206018798828126,-0.03848451003432274,-0.001832595793530345,0.01466076634824276
1697853788131176000,10.216176025390626,-0.039095375686883926,-0.0012217304902151227,0.015271631069481373
1697853788141286000,10.226285888671875,-0.03848451003432274,-0.0012217304902151227,0.014049900695681572
1697853788151056000,10.236055908203125,-0.03848451003432274,-0.0006108652451075613,0.01466076634824276
1697853788161098000,10.246097900390625,-0.03787364438176155,-0.0012217304902151227,0.015271631069481373
1697853788171041000,10.256041015625,-0.03787364438176155,-0.0012217304902151227,0.01466076634824276
1697853788180998000,10.265997802734375,-0.03726277872920036,-0.001832595793530345,0.015271631069481373
1697853788191168000,10.27616796875,-0.03848451003432274,-0.0012217304902151227,0.01466076634824276
1697853788201203000,10.286202880859374,-0.03848451003432274,-0.0024434609804302454,0.015882495790719986
1697853788211104000,10.29610400390625,-0.03848451003432274,-0.001832595793530345,0.015882495790719986
1697853788221028000,10.306028076171875,-0.03848451003432274,-0.0012217304902151227,0.015271631069481373
1697853788231003000,10.3160029296875,-0.03787364438176155,-0.001832595793530345,0.01466076634824276
1697853788241074000,10.326073974609375,-0.03726277872920036,-0.001832595793530345,0.015271631069481373
1697853788253719000,10.338718994140624,-0.03787364438176155,-0.001832595793530345,0.015271631069481373
1697853788262125000,10.347125,-0.03787364438176155,-0.0012217304902151227,0.015271631069481373
1697853788271046000,10.3560458984375,-0.03787364438176155,-0.0012217304902151227,0.015271631069481373
1697853788281134000,10.366134033203124,-0.03787364438176155,-0.001832595793530345,0.014049900695681572
1697853788291036000,10.376035888671876,-0.03787364438176155,-0.001832595793530345,0.015271631069481373
1697853788301024000,10.38602392578125,-0.03787364438176155,-0.0012217304902151227,0.015271631069481373
1697853788311127000,10.396126953125,-0.03787364438176155,-0.001832595793530345,0.01466076634824276
1697853788321100000,10.40610009765625,-0.03726277872920036,-0.0012217304902151227,0.01466076634824276
1697853788331196000,10.41619580078125,-0.03787364438176155,-0.0012217304902151227,0.015271631069481373
1697853788341081000,10.4260810546875,-0.03848451003432274,-0.0012217304902151227,0.015271631069481373
1697853788351029000,10.436029052734375,-0.03787364438176155,-0.0006108652451075613,0.015271631069481373
1697853788361293000,10.44629296875,-0.03848451003432274,-0.001832595793530345,0.016493361443281174
1697853788371149000,10.456149169921876,-0.03848451003432274,-0.001832595793530345,0.015271631069481373
1697853788381224000,10.466223876953125,-0.03787364438176155,-0.0012217304902151227,0.016493361443281174
1697853788391044000,10.476044189453125,-0.03848451003432274,-0.0006108652451075613,0.01466076634824276
1697853788401013000,10.486012939453126,-0.03848451003432274,-0.0012217304902151227,0.01466076634824276
1697853788411018000,10.49601806640625,-0.03787364438176155,-0.001832595793530345,0.015271631069481373
1697853788421010000,10.506010009765625,-0.03726277872920036,-0.0012217304902151227,0.014049900695681572
1697853788431127000,10.516126953125,-0.03787364438176155,-0.0012217304902151227,0.01466076634824276
1697853788440945000,10.52594482421875,-0.03848451003432274,-0.001832595793530345,0.015271631069481373
1697853788450996000,10.535995849609375,-0.03787364438176155,-0.0024434609804302454,0.01466076634824276
1697853788461011000,10.546010986328126,-0.03787364438176155,-0.0012217304902151227,0.015882495790719986
1697853788470989000,10.555989013671875,-0.03848451003432274,-0.0012217304902151227,0.015271631069481373
1697853788481028000,10.566028076171875,-0.03848451003432274,-0.0006108652451075613,0.01466076634824276
1697853788491001000,10.5760009765625,-0.03848451003432274,-0.0006108652451075613,0.014049900695681572
1697853788501128000,10.5861279296875,-0.03848451003432274,-0.0012217304902151227,0.01466076634824276
1697853788511016000,10.596015869140626,-0.03787364438176155,-0.001832595793530345,0.01466076634824276
1697853788521030000,10.60602978515625,-0.03787364438176155,-0.0006108652451075613,0.01466076634824276
1697853788531155000,10.616155029296875,-0.03787364438176155,-0.0012217304902151227,0.015271631069481373
1697853788541003000,10.6260029296875,-0.03726277872920036,-0.0012217304902151227,0.01466076634824276
1697853788551174000,10.636173828125,-0.03787364438176155,-0.001832595793530345,0.01466076634824276
1697853788561466000,10.646466064453126,-0.03848451003432274,-0.0012217304902151227,0.014049900695681572
1697853788571323000,10.656322998046875,-0.03848451003432274,-0.001832595793530345,0.015271631069481373
1697853788581471000,10.666470947265625,-0.03787364438176155,-0.001832595793530345,0.01466076634824276
1697853788591304000,10.676303955078126,-0.03787364438176155,-0.0012217304902151227,0.01466076634824276
1697853788601335000,10.6863349609375,-0.03787364438176155,-0.001832595793530345,0.014049900695681572
1697853788611548000,10.6965478515625,-0.03787364438176155,-0.0012217304902151227,0.01466076634824276
1697853788621355000,10.70635498046875,-0.03787364438176155,-0.0012217304902151227,0.015882495790719986
1697853788631407000,10.716406982421875,-0.03787364438176155,-0.0012217304902151227,0.015271631069481373
1697853788641443000,10.726443115234375,-0.03787364438176155,-0.001832595793530345,0.015271631069481373
1697853788651223000,10.73622314453125,-0.03848451003432274,-0.0012217304902151227,0.015271631069481373
1697853788661119000,10.746118896484376,-0.03848451003432274,-0.0012217304902151227,0.015882495790719986
1697853788671079000,10.756078857421874,-0.03848451003432274,-0.0024434609804302454,0.015271631069481373
1697853788681644000,10.76664404296875,-0.03726277872920036,-0.0012217304902151227,0.015271631069481373
1697853788691369000,10.776368896484374,-0.03787364438176155,-0.0006108652451075613,0.01466076634824276
1697853788701289000,10.7862890625,-0.03787364438176155,-0.0012217304902151227,0.014049900695681572
1697853788711324000,10.796323974609376,-0.03787364438176155,-0.0012217304902151227,0.014049900695681572
1697853788721305000,10.80630517578125,-0.03787364438176155,-0.001832595793530345,0.015271631069481373
1697853788731750000,10.81675,-0.03848451003432274,-0.0024434609804302454,0.015882495790719986
1697853788741398000,10.82639794921875,-0.03787364438176155,-0.0012217304902151227,0.015271631069481373
1697853788751325000,10.836324951171875,-0.03848451003432274,-0.0006108652451075613,0.015271631069481373
1697853788761552000,10.8465517578125,-0.03787364438176155,-0.001832595793530345,0.01466076634824276
1697853788771368000,10.856367919921874,-0.03848451003432274,-0.001832595793530345,0.014049900695681572
1697853788782539000,10.8675390625,-0.03848451003432274,-0.001832595793530345,0.015882495790719986
1697853788791524000,10.876524169921876,-0.03787364438176155,-0.001832595793530345,0.015882495790719986
1697853788801725000,10.886724853515625,-0.03848451003432274,-0.001832595793530345,0.015882495790719986
1697853788811362000,10.896362060546876,-0.03787364438176155,-0.001832595793530345,0.015271631069481373
1697853788821529000,10.906529052734374,-0.036651913076639175,-0.0024434609804302454,0.015271631069481373
1697853788831508000,10.916508056640625,-0.03726277872920036,-0.0024434609804302454,0.015271631069481373
1697853788841405000,10.926405029296875,-0.03787364438176155,-0.0024434609804302454,0.014049900695681572
1697853788851566000,10.936566162109376,-0.03848451003432274,-0.0012217304902151227,0.01466076634824276
1697853788860868600,10.94586865234375,-0.03848451003432274,-0.0012217304902151227,0.014049900695681572
1697853788872800000,10.957800048828124,-0.03848451003432274,-0.0012217304902151227,0.014049900695681572
1697853788881028000,10.966028076171876,-0.03787364438176155,-0.001832595793530345,0.01466076634824276
1697853788893916000,10.978916015625,-0.03726277872920036,-0.0012217304902151227,0.015271631069481373
1697853788911150000,10.996150146484375,-0.03848451003432274,-0.001832595793530345,0.01466076634824276
1697853788920988000,11.00598779296875,-0.03848451003432274,-0.001832595793530345,0.015882495790719986
1697853788930926000,11.015926025390625,-0.03787364438176155,-0.0012217304902151227,0.015271631069481373
1697853788941050000,11.026050048828125,-0.03848451003432274,-0.0006108652451075613,0.01466076634824276
1697853788951080000,11.036079833984376,-0.03848451003432274,-0.0006108652451075613,0.01466076634824276
1697853788961158000,11.046157958984375,-0.03787364438176155,-0.0012217304902151227,0.015271631069481373
1697853788970965000,11.055965087890625,-0.03787364438176155,-0.0024434609804302454,0.01466076634824276
1697853788981211000,11.0662109375,-0.03787364438176155,-0.001832595793530345,0.01466076634824276
1697853788991092000,11.076092041015626,-0.03848451003432274,-0.0012217304902151227,0.015271631069481373
1697853789001034000,11.086033935546874,-0.03787364438176155,-0.001832595793530345,0.01466076634824276
1697853789011178000,11.096177978515625,-0.03787364438176155,-0.001832595793530345,0.015882495790719986
1697853789021055000,11.106054931640625,-0.03848451003432274,-0.0012217304902151227,0.015271631069481373
1697853789031085000,11.1160849609375,-0.03787364438176155,-0.001832595793530345,0.015271631069481373
1697853789041161000,11.126160888671874,-0.03848451003432274,-0.0012217304902151227,0.01466076634824276
1697853789051185000,11.136184814453125,-0.03848451003432274,-0.0006108652451075613,0.015271631069481373
1697853789061277000,11.14627685546875,-0.03787364438176155,-0.0012217304902151227,0.015271631069481373
1697853789071091000,11.156091064453125,-0.03787364438176155,-0.0012217304902151227,0.015271631069481373
1697853789081238000,11.166238037109375,-0.03848451003432274,-0.001832595793530345,0.015882495790719986
1697853789091020000,11.17602001953125,-0.03848451003432274,-0.001832595793530345,0.015882495790719986
1697853789101283000,11.186282958984375,-0.03787364438176155,-0.0006108652451075613,0.015271631069481373
1697853789111113000,11.196113037109376,-0.03848451003432274,-0.0006108652451075613,0.015271631069481373
1697853789121053000,11.206052978515626,-0.03848451003432274,-0.0006108652451075613,0.015271631069481373
1697853789131190000,11.21618994140625,-0.03848451003432274,-0.0012217304902151227,0.015271631069481373
1697853789141121000,11.22612109375,-0.03787364438176155,-0.0012217304902151227,0.015882495790719986
1697853789151133000,11.2361328125,-0.036651913076639175,-0.0012217304902151227,0.016493361443281174
1697853789161205000,11.246205078125,-0.036041051149368286,-0.001832595793530345,0.015271631069481373
1697853789171073000,11.256072998046875,-0.036651913076639175,-0.0012217304902151227,0.015882495790719986
1697853789181105000,11.26610498046875,-0.03726277872920036,-0.001832595793530345,0.015271631069481373
1697853789191064000,11.27606396484375,-0.03787364438176155,-0.001832595793530345,0.01466076634824276
1697853789201364000,11.286364013671875,-0.039095375686883926,-0.003054326167330146,0.015882495790719986
1697853789211095000,11.296094970703125,-0.039095375686883926,-0.003054326167330146,0.015271631069481373
1697853789221230000,11.30622998046875,-0.039095375686883926,-0.0024434609804302454,0.015882495790719986
1697853789231215000,11.316215087890624,-0.0403171069920063,-0.001832595793530345,0.015271631069481373
1697853789241299000,11.326298828125,-0.0403171069920063,-0.0024434609804302454,0.015271631069481373
1697853789251226000,11.33622607421875,-0.039706241339445114,-0.0024434609804302454,0.01466076634824276
1697853789261545000,11.346544921875,-0.039095375686883926,-0.0012217304902151227,0.014049900695681572
1697853789271212000,11.3562119140625,-0.03787364438176155,-0.0012217304902151227,0.013439035043120384
1697853789281422000,11.366422119140625,-0.03726277872920036,-0.0012217304902151227,0.012828170321881771
1697853789292006000,11.377005859375,-0.03726277872920036,-0.0012217304902151227,0.014049900695681572
1697853789301843000,11.386843017578125,-0.036041051149368286,-0.001832595793530345,0.01466076634824276
1697853789312027000,11.39702685546875,-0.03726277872920036,-0.001832595793530345,0.015882495790719986
1697853789321291000,11.406291015625,-0.03787364438176155,-0.001832595793530345,0.016493361443281174
1697853789331461000,11.416461181640624,-0.03726277872920036,-0.001832595793530345,0.016493361443281174
1697853789342284000,11.427283935546875,-0.03787364438176155,-0.0012217304902151227,0.015882495790719986
1697853789351318000,11.436318115234375,-0.039095375686883926,-0.0012217304902151227,0.01466076634824276
1697853789361501000,11.4465009765625,-0.03848451003432274,-0.001832595793530345,0.01466076634824276
1697853789371346000,11.456345947265625,-0.039095375686883926,-0.0012217304902151227,0.014049900695681572
1697853789381527000,11.466527099609374,-0.039095375686883926,-0.001832595793530345,0.01466076634824276
1697853789391533000,11.476532958984375,-0.03848451003432274,-0.001832595793530345,0.01466076634824276
1697853789401350000,11.486349853515625,-0.03787364438176155,-0.001832595793530345,0.015271631069481373
1697853789411513000,11.49651318359375,-0.03726277872920036,-0.0024434609804302454,0.015271631069481373
1697853789421340000,11.50633984375,-0.03787364438176155,-0.001832595793530345,0.01466076634824276
1697853789431595000,11.516594970703125,-0.03726277872920036,-0.001832595793530345,0.015271631069481373
1697853789441551000,11.526551025390624,-0.03726277872920036,-0.001832595793530345,0.01466076634824276
1697853789452379000,11.53737890625,-0.039095375686883926,-0.0012217304902151227,0.015882495790719986
1697853789461493000,11.546492919921874,-0.039095375686883926,-0.0012217304902151227,0.015271631069481373
1697853789471709000,11.556708984375,-0.03848451003432274,-0.0012217304902151227,0.015271631069481373
1697853789482002000,11.567001953125,-0.039095375686883926,-0.0012217304902151227,0.015271631069481373
1697853789491359000,11.57635888671875,-0.03787364438176155,-0.0012217304902151227,0.015882495790719986
1697853789501165000,11.5861650390625,-0.03787364438176155,-0.0012217304902151227,0.015271631069481373
1697853789511308000,11.59630810546875,-0.03787364438176155,-0.0006108652451075613,0.01466076634824276
1697853789521379000,11.606379150390625,-0.03787364438176155,-0.0012217304902151227,0.015271631069481373
1697853789531743000,11.616742919921874,-0.03787364438176155,-0.001832595793530345,0.01466076634824276
1697853789541341000,11.6263408203125,-0.03726277872920036,-0.001832595793530345,0.01466076634824276
1697853789551286000,11.6362861328125,-0.03787364438176155,-0.0024434609804302454,0.015271631069481373
1697853789561482000,11.64648193359375,-0.03787364438176155,-0.001832595793530345,0.015271631069481373
1697853789571297000,11.656297119140625,-0.03787364438176155,-0.001832595793530345,0.015271631069481373
1697853789581566000,11.66656591796875,-0.039095375686883926,-0.0012217304902151227,0.015882495790719986
1697853789591326000,11.676325927734375,-0.03848451003432274,-0.001832595793530345,0.015882495790719986
1697853789601639000,11.686638916015625,-0.039095375686883926,-0.001832595793530345,0.01466076634824276
1697853789611609000,11.696609130859375,-0.03787364438176155,-0.0024434609804302454,0.015882495790719986
1697853789621409000,11.706408935546875,-0.03787364438176155,-0.0024434609804302454,0.015882495790719986
1697853789631194000,11.716194091796876,-0.03848451003432274,-0.0012217304902151227,0.015882495790719986
1697853789641150000,11.72614990234375,-0.03726277872920036,-0.0012217304902151227,0.01466076634824276
1697853789651370000,11.736369873046876,-0.03726277872920036,-0.0006108652451075613,0.01466076634824276
1697853789661422000,11.746422119140625,-0.03726277872920036,-0.0006108652451075613,0.015271631069481373
1697853789671333000,11.7563330078125,-0.03787364438176155,-0.0006108652451075613,0.015271631069481373
1697853789681528000,11.766528076171875,-0.03848451003432274,-0.0006108652451075613,0.015882495790719986
1697853789691524000,11.776524169921874,-0.03848451003432274,-0.001832595793530345,0.015271631069481373
1697853789701335000,11.7863349609375,-0.03787364438176155,-0.0012217304902151227,0.015271631069481373
1697853789711294000,11.7962939453125,-0.03787364438176155,-0.0012217304902151227,0.01466076634824276
1697853789721510000,11.806510009765624,-0.03787364438176155,-0.0012217304902151227,0.01466076634824276
1697853789731278000,11.816278076171875,-0.03787364438176155,-0.0012217304902151227,0.01466076634824276
1697853789741035000,11.826034912109375,-0.03787364438176155,-0.0012217304902151227,0.015271631069481373
1697853789750966000,11.835966064453125,-0.03787364438176155,-0.0012217304902151227,0.016493361443281174
1697853789761077000,11.846076904296876,-0.03787364438176155,-0.001832595793530345,0.015271631069481373
1697853789770992000,11.8559921875,-0.03848451003432274,-0.0024434609804302454,0.01466076634824276
1697853789781187000,11.86618701171875,-0.03787364438176155,-0.001832595793530345,0.015271631069481373
1697853789791142000,11.876141845703126,-0.03848451003432274,-0.0012217304902151227,0.01466076634824276
1697853789801333000,11.8863330078125,-0.03848451003432274,-0.001832595793530345,0.015882495790719986
1697853789811219000,11.896218994140625,-0.03787364438176155,-0.0012217304902151227,0.015882495790719986
1697853789821554000,11.906553955078126,-0.03848451003432274,-0.0012217304902151227,0.015271631069481373
1697853789830989000,11.915989013671876,-0.03726277872920036,-0.001832595793530345,0.014049900695681572
1697853789841665000,11.9266650390625,-0.03726277872920036,-0.001832595793530345,0.015882495790719986
1697853789851257000,11.936257080078125,-0.03726277872920036,-0.001832595793530345,0.016493361443281174
1697853789861213000,11.946212890625,-0.03848451003432274,-0.0012217304902151227,0.015271631069481373
1697853789871303000,11.956302978515625,-0.03848451003432274,-0.0012217304902151227,0.01466076634824276
1697853789881540000,11.9665400390625,-0.03726277872920036,-0.001832595793530345,0.015882495790719986
1697853789890997000,11.9759970703125,-0.03726277872920036,-0.001832595793530345,0.01466076634824276
1697853789900982000,11.98598193359375,-0.03787364438176155,-0.0012217304902151227,0.01466076634824276
1697853789910963000,11.995962890625,-0.03848451003432274,-0.001832595793530345,0.015882495790719986
1697853789920953000,12.005953125,-0.039095375686883926,-0.0012217304902151227,0.015271631069481373
1697853789930990000,12.015989990234376,-0.03787364438176155,-0.001832595793530345,0.015271631069481373
1697853789941141000,12.02614111328125,-0.03787364438176155,-0.001832595793530345,0.015271631069481373
1697853789950929000,12.035928955078125,-0.03726277872920036,-0.0012217304902151227,0.01466076634824276
1697853789960957000,12.04595703125,-0.03787364438176155,-0.0006108652451075613,0.015271631069481373
1697853789970978000,12.05597802734375,-0.03726277872920036,-0.0012217304902151227,0.015271631069481373
