time,seconds_elapsed,z,y,x
1697853778085006000,0.170006103515625,9.72165584564209,1.501164436340332,-0.21308395266532898
1697853778094609000,0.17960888671875,9.720458984375,1.501164436340332,-0.20709845423698425
1697853778104747000,0.1897470703125,9.72285270690918,1.499967336654663,-0.2059013396501541
1697853778115666000,0.200666015625,9.738415718078613,1.4987702369689941,-0.19871874153614044
1697853778124641000,0.20964111328125,9.743204116821289,1.5131354331970215,-0.20350714027881622
1697853778134640000,0.21964013671875,9.744400978088379,1.5143325328826904,-0.20231004059314728
1697853778144665000,0.2296650390625,9.733627319335938,1.50355863571167,-0.20111294090747833
1697853778154584000,0.239583984375,9.742006301879883,1.499967336654663,-0.2059013396501541
1697853778165429000,0.250428955078125,9.732429504394531,1.4987702369689941,-0.1975216418504715
1697853778177340000,0.26233984375,9.737217903137207,1.50355863571167,-0.20111294090747833
1697853778190832400,0.275832275390625,9.734824180603027,1.5143325328826904,-0.20350714027881622
1697853778206771000,0.29177099609375,9.734824180603027,1.5119383335113525,-0.20111294090747833
1697853778217944000,0.302944091796875,9.75397777557373,1.5047557353973389,-0.20231004059314728
1697853778234662000,0.319661865234375,9.728838920593262,1.4975731372833252,-0.20470423996448517
1697853778244603000,0.329602783203125,9.725247383117676,1.501164436340332,-0.2082955539226532
1697853778254589000,0.3395888671875,9.730035781860352,1.4975731372833252,-0.2106897532939911
1697853778264728000,0.34972802734375,9.739612579345703,1.499967336654663,-0.20231004059314728
1697853778275123000,0.360123046875,9.736021041870117,1.502361536026001,-0.20231004059314728
1697853778284598000,0.369597900390625,9.740809440612793,1.5071499347686768,-0.19871874153614044
1697853778294681000,0.37968115234375,9.733627319335938,1.5071499347686768,-0.20949265360832214
1697853778304846000,0.38984619140625,9.738415718078613,1.502361536026001,-0.19632454216480255
1697853778314691000,0.399691162109375,9.731232643127441,1.5131354331970215,-0.19632454216480255
1697853778324603000,0.409602783203125,9.738415718078613,1.4975731372833252,-0.1951274424791336
1697853778334598000,0.419597900390625,9.750386238098145,1.50355863571167,-0.20709845423698425
1697853778344740000,0.429739990234375,9.745597839355469,1.5047557353973389,-0.21188685297966003
1697853778354614000,0.439614013671875,9.737217903137207,1.50355863571167,-0.2059013396501541
1697853778364603000,0.449602783203125,9.742006301879883,1.5047557353973389,-0.2106897532939911
1697853778374735000,0.459735107421875,9.737217903137207,1.4975731372833252,-0.21308395266532898
1697853778384633000,0.469633056640625,9.730035781860352,1.4987702369689941,-0.20709845423698425
1697853778394670000,0.479670166015625,9.724050521850586,1.4975731372833252,-0.2059013396501541
1697853778404657000,0.489656982421875,9.738415718078613,1.5083470344543457,-0.19632454216480255
1697853778414670000,0.499670166015625,9.738415718078613,1.5059528350830078,-0.19273324310779572
1697853778424609000,0.509609130859375,9.732429504394531,1.5095441341400146,-0.19393034279346466
1697853778434650000,0.519650146484375,9.734824180603027,1.5071499347686768,-0.1999158412218094
1697853778444764000,0.529763916015625,9.734824180603027,1.5071499347686768,-0.20111294090747833
1697853778454662000,0.539661865234375,9.740809440612793,1.499967336654663,-0.18914192914962769
1697853778464647000,0.54964697265625,9.749189376831055,1.5047557353973389,-0.20111294090747833
1697853778474713000,0.559713134765625,9.746794700622559,1.5047557353973389,-0.1999158412218094
1697853778484636000,0.569635986328125,9.737217903137207,1.5095441341400146,-0.1999158412218094
1697853778494607000,0.579607177734375,9.745597839355469,1.5059528350830078,-0.19871874153614044
1697853778504563000,0.58956298828125,9.738415718078613,1.4975731372833252,-0.2082955539226532
1697853778514623000,0.599623046875,9.740809440612793,1.5119383335113525,-0.20111294090747833
1697853778524583000,0.6095830078125,9.726444244384766,1.5095441341400146,-0.20709845423698425
1697853778534628000,0.619628173828125,9.728838920593262,1.5059528350830078,-0.20949265360832214
1697853778544727000,0.62972705078125,9.726444244384766,1.50355863571167,-0.20231004059314728
1697853778555081000,0.6400810546875,9.743204116821289,1.5071499347686768,-0.20949265360832214
1697853778564613000,0.649613037109375,9.744400978088379,1.5107412338256836,-0.21188685297966003
1697853778574613000,0.659613037109375,9.749189376831055,1.5047557353973389,-0.19871874153614044
1697853778584798000,0.6697978515625,9.747992515563965,1.501164436340332,-0.2082955539226532
1697853778594745000,0.6797451171875,9.751583099365234,1.501164436340332,-0.20709845423698425
1697853778604605000,0.68960498046875,9.749189376831055,1.4987702369689941,-0.20709845423698425
1697853778614822000,0.69982177734375,9.739612579345703,1.4987702369689941,-0.20949265360832214
1697853778624601000,0.70960107421875,9.740809440612793,1.5047557353973389,-0.20231004059314728
1697853778634671000,0.719671142578125,9.746794700622559,1.5059528350830078,-0.2059013396501541
1697853778644703000,0.729702880859375,9.739612579345703,1.5131354331970215,-0.1999158412218094
1697853778654709000,0.739708984375,9.744400978088379,1.5059528350830078,-0.1867477297782898
1697853778666358000,0.75135791015625,9.742006301879883,1.5059528350830078,-0.18794482946395874
1697853778674922000,0.759921875,9.730035781860352,1.5107412338256836,-0.20470423996448517
1697853778684728000,0.76972802734375,9.731232643127441,1.5083470344543457,-0.2059013396501541
1697853778694855000,0.77985498046875,9.732429504394531,1.5071499347686768,-0.20470423996448517
1697853778704744000,0.789743896484375,9.725247383117676,1.501164436340332,-0.19632454216480255
1697853778715101000,0.800100830078125,9.72285270690918,1.502361536026001,-0.20470423996448517
1697853778724665000,0.8096650390625,9.734824180603027,1.5047557353973389,-0.20709845423698425
1697853778734687000,0.81968701171875,9.728838920593262,1.4939818382263184,-0.20470423996448517
1697853778745026000,0.830026123046875,9.736021041870117,1.501164436340332,-0.2059013396501541
1697853778754859000,0.83985888671875,9.743204116821289,1.501164436340332,-0.20949265360832214
1697853778765004000,0.850004150390625,9.75517463684082,1.499967336654663,-0.2106897532939911
1697853778774737000,0.85973681640625,9.75278091430664,1.502361536026001,-0.20231004059314728
1697853778784786000,0.869785888671875,9.749189376831055,1.5083470344543457,-0.19393034279346466
1697853778794763000,0.879762939453125,9.750386238098145,1.5155296325683594,-0.1999158412218094
1697853778804657000,0.889656982421875,9.734824180603027,1.5095441341400146,-0.20111294090747833
1697853778814746000,0.89974609375,9.744400978088379,1.5071499347686768,-0.20470423996448517
1697853778824804000,0.90980419921875,9.737217903137207,1.5095441341400146,-0.20709845423698425
1697853778834674000,0.919673828125,9.744400978088379,1.50355863571167,-0.2059013396501541
1697853778845134000,0.930134033203125,9.733627319335938,1.5059528350830078,-0.19632454216480255
1697853778854608000,0.93960791015625,9.733627319335938,1.4987702369689941,-0.1975216418504715
1697853778864640000,0.949639892578125,9.734824180603027,1.499967336654663,-0.20111294090747833
1697853778874582000,0.95958203125,9.728838920593262,1.4963760375976562,-0.20231004059314728
1697853778884665000,0.9696650390625,9.731232643127441,1.501164436340332,-0.1999158412218094
1697853778894962000,0.9799619140625,9.738415718078613,1.5047557353973389,-0.18914192914962769
1697853778904818000,0.98981787109375,9.744400978088379,1.502361536026001,-0.20231004059314728
1697853778914706000,0.999705810546875,9.745597839355469,1.501164436340332,-0.21188685297966003
1697853778924664000,1.0096640625,9.746794700622559,1.5047557353973389,-0.2106897532939911
1697853778934696000,1.019696044921875,9.739612579345703,1.4939818382263184,-0.2214636504650116
1697853778944756000,1.029755859375,9.745597839355469,1.4987702369689941,-0.20949265360832214
1697853778954668000,1.03966796875,9.738415718078613,1.501164436340332,-0.20709845423698425
1697853778964676000,1.049676025390625,9.742006301879883,1.501164436340332,-0.1951274424791336
1697853778974625000,1.059625,9.75278091430664,1.50355863571167,-0.1975216418504715
1697853778984704000,1.0697041015625,9.746794700622559,1.5083470344543457,-0.1951274424791336
1697853778994910000,1.079909912109375,9.750386238098145,1.5107412338256836,-0.20111294090747833
1697853779004625000,1.089625,9.751583099365234,1.5071499347686768,-0.19632454216480255
1697853779015029000,1.100029052734375,9.734824180603027,1.502361536026001,-0.1999158412218094
1697853779024977000,1.109976806640625,9.740809440612793,1.501164436340332,-0.1999158412218094
1697853779035075000,1.120074951171875,9.738415718078613,1.5047557353973389,-0.20350714027881622
1697853779045202000,1.130201904296875,9.726444244384766,1.502361536026001,-0.20111294090747833
1697853779054789000,1.1397890625,9.734824180603027,1.499967336654663,-0.20231004059314728
1697853779064934000,1.149933837890625,9.733627319335938,1.5071499347686768,-0.2106897532939911
1697853779075036000,1.160035888671875,9.743204116821289,1.501164436340332,-0.20350714027881622
1697853779084733000,1.16973291015625,9.749189376831055,1.5119383335113525,-0.1999158412218094
1697853779094805000,1.179804931640625,9.762357711791992,1.501164436340332,-0.1999158412218094
1697853779104868000,1.1898681640625,9.749189376831055,1.50355863571167,-0.19632454216480255
1697853779114808000,1.19980810546875,9.738415718078613,1.4987702369689941,-0.19632454216480255
1697853779124597000,1.209596923828125,9.733627319335938,1.50355863571167,-0.1951274424791336
1697853779134726000,1.219725830078125,9.734824180603027,1.501164436340332,-0.20949265360832214
1697853779144835000,1.2298349609375,9.727641105651855,1.5083470344543457,-0.1999158412218094
1697853779154608000,1.239608154296875,9.732429504394531,1.5083470344543457,-0.20111294090747833
1697853779164781000,1.249781005859375,9.724050521850586,1.5119383335113525,-0.2059013396501541
1697853779174762000,1.259761962890625,9.726444244384766,1.521515130996704,-0.1975216418504715
1697853779184794000,1.269794189453125,9.739612579345703,1.5107412338256836,-0.19393034279346466
1697853779198110000,1.28310986328125,9.786299705505371,1.4544775485992432,-0.12330138683319092
1697853779214800000,1.2997998046875,9.813833236694336,1.5275006294250488,-0.21188685297966003
1697853779224693000,1.30969287109375,9.803058624267578,1.5418659448623657,-0.23104046285152435
1697853779234723000,1.31972314453125,9.72165584564209,1.5143325328826904,-0.23702596127986908
1697853779244804000,1.32980419921875,9.734824180603027,1.4760253429412842,-0.2322375625371933
1697853779254703000,1.339703125,9.749189376831055,1.4939818382263184,-0.21787235140800476
1697853779266267000,1.351266845703125,9.672574996948242,1.4712369441986084,-0.20231004059314728
1697853779274823000,1.359822998046875,9.763554573059082,1.4772224426269531,-0.20350714027881622
1697853779286961000,1.3719609375,9.732429504394531,1.5095441341400146,-0.23104046285152435
1697853779304708000,1.3897080078125,9.737217903137207,1.50355863571167,-0.2106897532939911
1697853779314723000,1.39972314453125,9.738415718078613,1.50355863571167,-0.18914192914962769
1697853779324709000,1.409709228515625,9.740809440612793,1.5143325328826904,-0.19273324310779572
1697853779334747000,1.419746826171875,9.75517463684082,1.5095441341400146,-0.16879121959209442
1697853779344798000,1.4297978515625,9.627084732055664,1.4712369441986084,-0.19393034279346466
1697853779355040000,1.4400400390625,9.798270225524902,1.521515130996704,-0.24420857429504395
1697853779364814000,1.44981396484375,9.672574996948242,1.4987702369689941,-0.19033902883529663
1697853779374753000,1.4597529296875,9.587580680847168,1.501164436340332,-0.19153612852096558
1697853779385041000,1.470041015625,9.852140426635742,1.5514427423477173,-0.16639702022075653
1697853779394761000,1.479760986328125,9.838972091674805,1.5298948287963867,-0.21308395266532898
1697853779404770000,1.48977001953125,9.787496566772461,1.5275006294250488,-0.19632454216480255
1697853779414777000,1.499777099609375,9.75397777557373,1.5107412338256836,-0.22385786473751068
1697853779424804000,1.50980419921875,9.770736694335938,1.4856021404266357,-0.16639702022075653
1697853779434737000,1.51973681640625,9.758766174316406,1.5059528350830078,-0.1951274424791336
1697853779444782000,1.529781982421875,9.707290649414062,1.4856021404266357,-0.16879121959209442
1697853779454797000,1.539797119140625,9.72285270690918,1.5107412338256836,-0.20709845423698425
1697853779464827000,1.549826904296875,9.758766174316406,1.523909330368042,-0.20949265360832214
1697853779474749000,1.5597490234375,9.738415718078613,1.4832079410552979,-0.23104046285152435
1697853779484787000,1.569786865234375,9.738415718078613,1.501164436340332,-0.2190694510936737
1697853779494813000,1.57981298828125,9.739612579345703,1.5143325328826904,-0.22864626348018646
1697853779504795000,1.589794921875,9.732429504394531,1.4712369441986084,-0.21547815203666687
1697853779514808000,1.59980810546875,9.738415718078613,1.5071499347686768,-0.2106897532939911
1697853779524754000,1.60975390625,9.72285270690918,1.48081374168396,-0.2059013396501541
1697853779534789000,1.6197890625,9.732429504394531,1.48081374168396,-0.18914192914962769
1697853779544809000,1.62980908203125,9.765948295593262,1.5191209316253662,-0.19153612852096558
1697853779554790000,1.639789794921875,9.757569313049316,1.521515130996704,-0.2082955539226532
1697853779564817000,1.64981689453125,9.651026725769043,1.501164436340332,-0.16879121959209442
1697853779574798000,1.659798095703125,9.75637149810791,1.5610195398330688,-0.11971008777618408
1697853779584788000,1.6697880859375,9.746794700622559,1.5047557353973389,-0.17717093229293823
1697853779594824000,1.679823974609375,9.761159896850586,1.4772224426269531,-0.20709845423698425
1697853779604790000,1.6897900390625,9.769539833068848,1.5095441341400146,-0.2346317619085312
1697853779614805000,1.699804931640625,9.749189376831055,1.501164436340332,-0.2561795711517334
1697853779624780000,1.709780029296875,9.709685325622559,1.5095441341400146,-0.24899697303771973
1697853779635185000,1.720184814453125,9.757569313049316,1.5071499347686768,-0.22266076505184174
1697853779647192000,1.732192138671875,9.713275909423828,1.5059528350830078,-0.22266076505184174
1697853779658558000,1.743557861328125,9.716867446899414,1.5071499347686768,-0.1999158412218094
1697853779674766000,1.75976611328125,9.751583099365234,1.501164436340332,-0.20470423996448517
1697853779684682000,1.769681884765625,9.775525093078613,1.501164436340332,-0.1999158412218094
1697853779694621000,1.779620849609375,9.75397777557373,1.5143325328826904,-0.2059013396501541
1697853779704636000,1.789635986328125,9.737217903137207,1.50355863571167,-0.19273324310779572
1697853779714628000,1.799628173828125,9.743204116821289,1.5095441341400146,-0.19871874153614044
1697853779724614000,1.80961376953125,9.716867446899414,1.5047557353973389,-0.20350714027881622
1697853779734799000,1.819799072265625,9.732429504394531,1.4856021404266357,-0.20949265360832214
1697853779744662000,1.829662109375,9.747992515563965,1.48081374168396,-0.1951274424791336
1697853779754618000,1.8396181640625,9.743204116821289,1.5083470344543457,-0.16879121959209442
1697853779764655000,1.849655029296875,9.72165584564209,1.4544775485992432,-0.1735796183347702
1697853779774713000,1.859713134765625,9.769539833068848,1.4963760375976562,-0.21547815203666687
1697853779784723000,1.869722900390625,9.803058624267578,1.4891934394836426,-0.20470423996448517
1697853779794712000,1.879712158203125,9.68933391571045,1.4867992401123047,-0.181959331035614
1697853779804725000,1.88972509765625,9.706093788146973,1.5478514432907104,-0.1999158412218094
1697853779814726000,1.899725830078125,9.44991397857666,1.4508862495422363,-0.15322890877723694
1697853779824861000,1.90986083984375,9.906009674072266,1.647210717201233,-0.16160862147808075
1697853779840760000,1.925760009765625,9.898826599121094,1.502361536026001,-0.2346317619085312
1697853779854761000,1.939760986328125,9.847352027893066,1.521515130996704,-0.29568392038345337
1697853779864653000,1.949653076171875,9.797073364257812,1.4760253429412842,-0.2585737705230713
1697853779874636000,1.959635986328125,9.680954933166504,1.4975731372833252,-0.2849099934101105
1697853779884645000,1.96964501953125,9.654618263244629,1.6627731323242188,-0.07661445438861847
1697853779894849000,1.97984912109375,9.639056205749512,1.5442601442337036,-0.18076223134994507
1697853779904640000,1.989639892578125,9.494206428527832,1.48081374168396,-0.17956513166427612
1697853779914642000,1.999641845703125,9.782708168029785,1.4951789379119873,-0.19033902883529663
1697853779924827000,2.009826904296875,9.873687744140625,1.5095441341400146,-0.22505496442317963
1697853779934739000,2.019739013671875,9.927556991577148,1.5107412338256836,-0.1604115068912506
1697853779944836000,2.029836181640625,9.781511306762695,1.5107412338256836,-0.23942017555236816
1697853779954614000,2.039614013671875,9.695320129394531,1.482010841369629,-0.21308395266532898
1697853779964617000,2.049616943359375,9.6618013381958,1.459265947341919,-0.21188685297966003
1697853779974730000,2.05972998046875,9.72165584564209,1.479616641998291,-0.21667525172233582
1697853779984876000,2.0698759765625,9.6989107131958,1.50355863571167,-0.2406172752380371
1697853779994982000,2.07998193359375,9.781511306762695,1.502361536026001,-0.22864626348018646
1697853780004767000,2.08976708984375,9.78869342803955,1.5107412338256836,-0.19871874153614044
1697853780015312000,2.100311767578125,9.75397777557373,1.5179238319396973,-0.18914192914962769
1697853780024721000,2.109720947265625,9.713275909423828,1.4975731372833252,-0.15921440720558167
1697853780034656000,2.119656005859375,9.706093788146973,1.4963760375976562,-0.1472434103488922
1697853780044721000,2.129720947265625,9.72165584564209,1.499967336654663,-0.1759738177061081
1697853780054768000,2.13976806640625,9.715670585632324,1.4879963397979736,-0.1735796183347702
1697853780064615000,2.149614990234375,9.743204116821289,1.4832079410552979,-0.19632454216480255
1697853780074749000,2.1597490234375,9.745597839355469,1.4927847385406494,-0.21787235140800476
1697853780084613000,2.169613037109375,9.762357711791992,1.4963760375976562,-0.21188685297966003
1697853780094713000,2.179713134765625,9.768342971801758,1.4963760375976562,-0.21787235140800476
1697853780104851000,2.189850830078125,9.749189376831055,1.4963760375976562,-0.21547815203666687
1697853780114870000,2.1998701171875,9.730035781860352,1.5083470344543457,-0.19871874153614044
1697853780124658000,2.209657958984375,9.78869342803955,1.5107412338256836,-0.1975216418504715
1697853780134616000,2.219615966796875,9.726444244384766,1.4927847385406494,-0.1867477297782898
1697853780144617000,2.229616943359375,9.736021041870117,1.5071499347686768,-0.1999158412218094
1697853780154705000,2.239704833984375,9.708487510681152,1.4987702369689941,-0.20470423996448517
1697853780164697000,2.249697021484375,9.737217903137207,1.5083470344543457,-0.20111294090747833
1697853780174788000,2.2597880859375,9.734824180603027,1.5286977291107178,-0.18794482946395874
1697853780184777000,2.26977685546875,9.736021041870117,1.5143325328826904,-0.18555063009262085
1697853780194648000,2.27964794921875,9.747992515563965,1.5298948287963867,-0.16639702022075653
1697853780204619000,2.289618896484375,9.749189376831055,1.533486247062683,-0.1735796183347702
1697853780214674000,2.299673828125,9.747992515563965,1.535880446434021,-0.20111294090747833
1697853780224750000,2.30975,9.744400978088379,1.5430630445480347,-0.1999158412218094
1697853780234781000,2.319781005859375,9.740809440612793,1.5538369417190552,-0.19871874153614044
1697853780244683000,2.32968310546875,9.744400978088379,1.5514427423477173,-0.20949265360832214
1697853780254651000,2.33965087890625,9.750386238098145,1.5526398420333862,-0.22625206410884857
1697853780264615000,2.349614990234375,9.743204116821289,1.5514427423477173,-0.22385786473751068
1697853780274825000,2.359824951171875,9.734824180603027,1.5598224401474,-0.22864626348018646
1697853780284750000,2.36975,9.749189376831055,1.557428240776062,-0.23104046285152435
1697853780294870000,2.3798701171875,9.75397777557373,1.5646108388900757,-0.2190694510936737
1697853780305121000,2.39012109375,9.750386238098145,1.5598224401474,-0.21667525172233582
1697853780314890000,2.399889892578125,9.751583099365234,1.5322890281677246,-0.22266076505184174
1697853780324873000,2.409873046875,9.75397777557373,1.533486247062683,-0.2106897532939911
1697853780335016000,2.420015869140625,9.727641105651855,1.5071499347686768,-0.20111294090747833
1697853780344699000,2.429698974609375,9.726444244384766,1.5083470344543457,-0.2106897532939911
1697853780355005000,2.4400048828125,9.728838920593262,1.4963760375976562,-0.17477671802043915
1697853780364961000,2.4499609375,9.728838920593262,1.50355863571167,-0.15562310814857483
1697853780374998000,2.459998046875,9.728838920593262,1.4975731372833252,-0.16160862147808075
1697853780384952000,2.4699521484375,9.744400978088379,1.502361536026001,-0.17717093229293823
1697853780394738000,2.479738037109375,9.746794700622559,1.5083470344543457,-0.1735796183347702
1697853780404684000,2.48968408203125,9.742006301879883,1.499967336654663,-0.1843535304069519
1697853780414719000,2.499718994140625,9.725247383117676,1.4915876388549805,-0.17717093229293823
1697853780424769000,2.50976904296875,9.72285270690918,1.4724340438842773,-0.19632454216480255
1697853780434934000,2.51993408203125,9.720458984375,1.4772224426269531,-0.20231004059314728
1697853780444658000,2.529657958984375,9.742006301879883,1.4628572463989258,-0.21547815203666687
1697853780455213000,2.540213134765625,9.757569313049316,1.4712369441986084,-0.20709845423698425
1697853780464774000,2.54977392578125,9.77672290802002,1.48081374168396,-0.21428105235099792
1697853780474996000,2.559995849609375,9.775525093078613,1.4736311435699463,-0.20949265360832214
1697853780484608000,2.56960791015625,9.77672290802002,1.4748282432556152,-0.1951274424791336
1697853780494632000,2.5796318359375,9.761159896850586,1.4676456451416016,-0.1999158412218094
1697853780504697000,2.589697021484375,9.763554573059082,1.4532804489135742,-0.19871874153614044
1697853780514779000,2.59977880859375,9.764751434326172,1.437718152999878,-0.2059013396501541
1697853780524843000,2.609843017578125,9.771934509277344,1.43532395362854,-0.20470423996448517
1697853780534875000,2.619875,9.7791166305542,1.4317326545715332,-0.21188685297966003
1697853780545195000,2.630195068359375,9.774328231811523,1.4269442558288574,-0.2190694510936737
1697853780555002000,2.640002197265625,9.768342971801758,1.414973258972168,-0.23942017555236816
1697853780564936000,2.64993603515625,9.771934509277344,1.4113819599151611,-0.23702596127986908
1697853780574743000,2.659742919921875,9.762357711791992,1.4185645580291748,-0.24899697303771973
1697853780584818000,2.66981787109375,9.763554573059082,1.43532395362854,-0.23343466222286224
1697853780594678000,2.679677978515625,9.77791976928711,1.4532804489135742,-0.2190694510936737
1697853780604938000,2.68993798828125,9.773131370544434,1.459265947341919,-0.2106897532939911
1697853780614865000,2.699864990234375,9.75397777557373,1.4760253429412842,-0.19871874153614044
1697853780624625000,2.709625,9.761159896850586,1.4760253429412842,-0.20470423996448517
1697853780634622000,2.7196220703125,9.701305389404297,1.4484920501708984,-0.17238251864910126
1697853780644627000,2.729626953125,9.633070945739746,1.50355863571167,-0.17238251864910126
1697853780654729000,2.73972900390625,9.7791166305542,1.3994108438491821,-0.1735796183347702
1697853780665000000,2.75,9.75637149810791,1.5119383335113525,-0.21428105235099792
1697853780674994000,2.759993896484375,9.724050521850586,1.4844050407409668,-0.09696517139673233
1697853780685567000,2.77056689453125,9.736021041870117,1.5107412338256836,-0.16400282084941864
1697853780695127000,2.780126953125,9.708487510681152,1.5167267322540283,-0.18555063009262085
1697853780704670000,2.789669921875,9.763554573059082,1.523909330368042,-0.1711854189634323
1697853780714717000,2.799717041015625,9.728838920593262,1.5286977291107178,-0.19273324310779572
1697853780724725000,2.80972509765625,9.743204116821289,1.5310919284820557,-0.1843535304069519
1697853780734728000,2.81972802734375,9.762357711791992,1.5286977291107178,-0.181959331035614
1697853780744719000,2.829718994140625,9.75637149810791,1.521515130996704,-0.20470423996448517
1697853780755014000,2.840013916015625,9.747992515563965,1.522712230682373,-0.19273324310779572
1697853780765030000,2.85002978515625,9.742006301879883,1.5310919284820557,-0.22266076505184174
1697853780775031000,2.860031005859375,9.740809440612793,1.521515130996704,-0.22505496442317963
1697853780784991000,2.869990966796875,9.75637149810791,1.5286977291107178,-0.2298433631658554
1697853780795013000,2.88001318359375,9.750386238098145,1.5298948287963867,-0.2082955539226532
1697853780805001000,2.8900009765625,9.750386238098145,1.5191209316253662,-0.22026655077934265
1697853780815002000,2.900002197265625,9.749189376831055,1.5263035297393799,-0.2190694510936737
1697853780825014000,2.910013916015625,9.742006301879883,1.5191209316253662,-0.21188685297966003
1697853780834787000,2.919787109375,9.728838920593262,1.5203180313110352,-0.22385786473751068
1697853780846346000,2.931345947265625,9.725247383117676,1.5095441341400146,-0.21428105235099792
1697853780854814000,2.93981396484375,9.725247383117676,1.5095441341400146,-0.21428105235099792
1697853780864819000,2.94981884765625,9.737217903137207,1.5083470344543457,-0.19871874153614044
1697853780874819000,2.959819091796875,9.732429504394531,1.5131354331970215,-0.18914192914962769
1697853780884651000,2.969651123046875,9.762357711791992,1.5179238319396973,-0.18794482946395874
1697853780894833000,2.9798330078125,9.75637149810791,1.523909330368042,-0.18794482946395874
1697853780904918000,2.98991796875,9.75637149810791,1.525106430053711,-0.19033902883529663
1697853780914621000,2.999620849609375,9.739612579345703,1.5179238319396973,-0.19033902883529663
1697853780924582000,3.009581787109375,9.734824180603027,1.5143325328826904,-0.19033902883529663
1697853780934715000,3.01971484375,9.734824180603027,1.5203180313110352,-0.1975216418504715
1697853780944619000,3.029618896484375,9.727641105651855,1.5263035297393799,-0.1999158412218094
1697853780954724000,3.03972412109375,9.709685325622559,1.5263035297393799,-0.1867477297782898
1697853780964613000,3.049613037109375,9.749189376831055,1.5298948287963867,-0.19632454216480255
1697853780974755000,3.059755126953125,9.736021041870117,1.533486247062683,-0.16759411990642548
1697853780984824000,3.069823974609375,9.731232643127441,1.5286977291107178,-0.16639702022075653
1697853780994630000,3.0796298828125,9.726444244384766,1.5263035297393799,-0.1759738177061081
1697853781004770000,3.08977001953125,9.743204116821289,1.5203180313110352,-0.17477671802043915
1697853781014753000,3.0997529296875,9.736021041870117,1.5203180313110352,-0.17238251864910126
1697853781024928000,3.109927978515625,9.767146110534668,1.5310919284820557,-0.181959331035614
1697853781035039000,3.1200390625,9.764751434326172,1.5191209316253662,-0.18315643072128296
1697853781044941000,3.129941162109375,9.793481826782227,1.5119383335113525,-0.21667525172233582
1697853781054850000,3.13985009765625,9.799467086791992,1.5155296325683594,-0.23942017555236816
1697853781065056000,3.150055908203125,9.75278091430664,1.4832079410552979,-0.23822307586669922
1697853781075055000,3.16005517578125,9.815030097961426,1.4844050407409668,-0.2693476974964142
1697853781084752000,3.169751953125,9.744400978088379,1.459265947341919,-0.2801215946674347
1697853781094715000,3.17971484375,9.734824180603027,1.4413094520568848,-0.24660277366638184
1697853781104741000,3.1897412109375,9.728838920593262,1.4269442558288574,-0.2908954918384552
1697853781115079000,3.200078857421875,9.709685325622559,1.4425065517425537,-0.24660277366638184
1697853781124635000,3.209634765625,9.738415718078613,1.4508862495422363,-0.2190694510936737
1697853781134775000,3.219775146484375,9.774328231811523,1.4760253429412842,-0.2406172752380371
1697853781144622000,3.2296220703125,9.710882186889648,1.482010841369629,-0.14006079733371735
1697853781154646000,3.23964599609375,9.72285270690918,1.4951789379119873,-0.11013327538967133
1697853781164676000,3.249676025390625,9.713275909423828,1.455674648284912,-0.14844051003456116
1697853781174693000,3.259693115234375,9.745597839355469,1.5191209316253662,-0.09696517139673233
1697853781184871000,3.269870849609375,9.726444244384766,1.4879963397979736,-0.14604631066322327
1697853781194781000,3.279781005859375,9.727641105651855,1.5131354331970215,-0.12689268589019775
1697853781204668000,3.28966796875,9.774328231811523,1.5622166395187378,-0.19632454216480255
1697853781214934000,3.29993408203125,9.762357711791992,1.5658079385757446,-0.1759738177061081
1697853781224938000,3.30993798828125,9.768342971801758,1.578976035118103,-0.2561795711517334
1697853781234713000,3.319713134765625,9.742006301879883,1.534683346748352,-0.20350714027881622
1697853781245252000,3.330252197265625,9.832986831665039,1.6041151285171509,-0.24779987335205078
1697853781254711000,3.3397109375,9.636661529541016,1.5670050382614136,-0.12210428714752197
1697853781264959000,3.349958984375,9.706093788146973,1.5430630445480347,-0.20350714027881622
1697853781277293000,3.36229296875,9.81263542175293,1.4975731372833252,-0.23822307586669922
1697853781294602000,3.37960205078125,9.841365814208984,1.4401123523712158,-0.18555063009262085
1697853781304774000,3.38977392578125,9.780313491821289,1.4257471561431885,-0.22744916379451752
1697853781314707000,3.39970703125,9.773131370544434,1.3958195447921753,-0.20231004059314728
1697853781324661000,3.409660888671875,9.733627319335938,1.358709454536438,-0.1604115068912506
1697853781334700000,3.419699951171875,9.733627319335938,1.3694833517074585,-0.18076223134994507
1697853781345209000,3.430208984375,9.749189376831055,1.3910311460494995,-0.17717093229293823
1697853781354896000,3.439895751953125,9.759963035583496,1.414973258972168,-0.16400282084941864
1697853781366033000,3.451032958984375,9.740809440612793,1.4425065517425537,-0.16759411990642548
1697853781375210000,3.4602099609375,9.7791166305542,1.4209587574005127,-0.15801730751991272
1697853781385121000,3.47012109375,9.747992515563965,1.41257905960083,-0.15801730751991272
1697853781394967000,3.479967041015625,9.781511306762695,1.4413094520568848,-0.18076223134994507
1697853781405173000,3.490173095703125,9.77672290802002,1.4449007511138916,-0.2106897532939911
1697853781415170000,3.500170166015625,9.767146110534668,1.460463047027588,-0.23702596127986908
1697853781425153000,3.510153076171875,9.758766174316406,1.4856021404266357,-0.24660277366638184
1697853781435181000,3.52018115234375,9.751583099365234,1.5095441341400146,-0.25737667083740234
1697853781445007000,3.530007080078125,9.736021041870117,1.5083470344543457,-0.20111294090747833
1697853781454932000,3.539931884765625,9.795876502990723,1.557428240776062,-0.22505496442317963
1697853781464923000,3.5499228515625,9.695320129394531,1.5753847360610962,-0.2621650993824005
1697853781474828000,3.559828125,9.712079048156738,1.580173134803772,-0.272938996553421
1697853781484842000,3.569842041015625,9.726444244384766,1.5825673341751099,-0.2645592987537384
1697853781494701000,3.579701171875,9.690531730651855,1.5753847360610962,-0.24181437492370605
1697853781504876000,3.5898759765625,9.682151794433594,1.5753847360610962,-0.1975216418504715
1697853781514742000,3.599741943359375,9.708487510681152,1.577778935432434,-0.19632454216480255
1697853781525007000,3.610007080078125,9.676166534423828,1.5825673341751099,-0.19393034279346466
1697853781534958000,3.6199580078125,9.725247383117676,1.581370234489441,-0.1759738177061081
1697853781545326000,3.630326171875,9.744400978088379,1.5897499322891235,-0.1604115068912506
1697853781555028000,3.640028076171875,9.75397777557373,1.5837644338607788,-0.15801730751991272
1697853781565275000,3.65027490234375,9.782708168029785,1.5729905366897583,-0.13407529890537262
1697853781575206000,3.660205810546875,9.77672290802002,1.5466543436050415,-0.1412578970193863
1697853781585114000,3.670114013671875,9.770736694335938,1.499967336654663,-0.1256955862045288
1697853781594787000,3.679787109375,9.765948295593262,1.4760253429412842,-0.1173158809542656
1697853781605214000,3.6902138671875,9.767146110534668,1.4544775485992432,-0.12449848651885986
1697853781615162000,3.700162109375,9.767146110534668,1.4508862495422363,-0.1364694982767105
1697853781625068000,3.710068115234375,9.767146110534668,1.4640543460845947,-0.15562310814857483
1697853781635222000,3.720221923828125,9.743204116821289,1.4856021404266357,-0.18914192914962769
1697853781645056000,3.730055908203125,9.738415718078613,1.4939818382263184,-0.2298433631658554
1697853781655186000,3.74018603515625,9.710882186889648,1.4903905391693115,-0.2621650993824005
1697853781665203000,3.750202880859375,9.68813705444336,1.4975731372833252,-0.2849099934101105
1697853781675041000,3.760041015625,9.695320129394531,1.5107412338256836,-0.2753331959247589
1697853781685159000,3.770158935546875,9.704896926879883,1.5298948287963867,-0.2861070930957794
1697853781695026000,3.78002587890625,9.72165584564209,1.5514427423477173,-0.27892449498176575
1697853781704949000,3.789948974609375,9.732429504394531,1.578976035118103,-0.28371289372444153
1697853781715146000,3.80014599609375,9.759963035583496,1.5849615335464478,-0.2298433631658554
1697853781725268000,3.81026806640625,9.745597839355469,1.5717934370040894,-0.21188685297966003
1697853781735200000,3.820199951171875,9.726444244384766,1.5406688451766968,-0.22026655077934265
1697853781745025000,3.83002490234375,9.749189376831055,1.523909330368042,-0.15921440720558167
1697853781755194000,3.840194091796875,9.727641105651855,1.521515130996704,-0.1173158809542656
1697853781765239000,3.850239013671875,9.773131370544434,1.5191209316253662,-0.10773907601833344
1697853781775032000,3.860031982421875,9.732429504394531,1.5107412338256836,-0.13527239859104156
1697853781785225000,3.870224853515625,9.758766174316406,1.5275006294250488,-0.12090718746185303
1697853781795194000,3.880194091796875,9.736021041870117,1.522712230682373,-0.1496376097202301
1697853781805232000,3.890232177734375,9.742006301879883,1.5203180313110352,-0.152031809091568
1697853781815186000,3.90018603515625,9.726444244384766,1.50355863571167,-0.1867477297782898
1697853781825076000,3.910075927734375,9.751583099365234,1.5071499347686768,-0.1951274424791336
1697853781835004000,3.92000390625,9.795876502990723,1.4664485454559326,-0.21667525172233582
1697853781849475000,3.93447509765625,9.815030097961426,1.4425065517425537,-0.2190694510936737
1697853781859652000,3.944652099609375,9.77672290802002,1.4077905416488647,-0.20709845423698425
1697853781874688000,3.95968798828125,9.738415718078613,1.3563152551651,-0.22266076505184174
1697853781884728000,3.96972802734375,9.739612579345703,1.3754688501358032,-0.21667525172233582
1697853781894655000,3.979655029296875,9.727641105651855,1.3994108438491821,-0.1867477297782898
1697853781904578000,3.989578125,9.736021041870117,1.4233529567718506,-0.23822307586669922
1697853781914714000,3.999714111328125,9.761159896850586,1.4460978507995605,-0.22026655077934265
1697853781924803000,4.009802978515625,9.731232643127441,1.4628572463989258,-0.21308395266532898
1697853781934714000,4.019714111328125,9.737217903137207,1.4856021404266357,-0.2322375625371933
1697853781944592000,4.029591796875,9.749189376831055,1.4676456451416016,-0.23702596127986908
1697853781954843000,4.0398427734375,9.771934509277344,1.4844050407409668,-0.2214636504650116
1697853781964855000,4.04985498046875,9.794678688049316,1.4951789379119873,-0.22744916379451752
1697853781974671000,4.059671142578125,9.759963035583496,1.4844050407409668,-0.18794482946395874
1697853781984863000,4.069863037109375,9.695320129394531,1.5131354331970215,-0.16160862147808075
1697853781994698000,4.079697998046875,9.684545516967773,1.5394717454910278,-0.18315643072128296
1697853782004848000,4.08984814453125,9.680954933166504,1.557428240776062,-0.22505496442317963
1697853782015002000,4.100002197265625,9.6989107131958,1.5741876363754272,-0.23702596127986908
1697853782024704000,4.1097041015625,9.714473724365234,1.580173134803772,-0.2106897532939911
1697853782034735000,4.119735107421875,9.743204116821289,1.5658079385757446,-0.1843535304069519
1697853782044603000,4.129602783203125,9.768342971801758,1.5634137392044067,-0.16639702022075653
1697853782054817000,4.139817138671875,9.77672290802002,1.558625340461731,-0.1843535304069519
1697853782064717000,4.149717041015625,9.751583099365234,1.5502456426620483,-0.181959331035614
1697853782074797000,4.159797119140625,9.727641105651855,1.5179238319396973,-0.16400282084941864
1697853782084954000,4.1699541015625,9.619902610778809,1.4844050407409668,-0.12449848651885986
1697853782095258000,4.180258056640625,9.66299819946289,1.482010841369629,-0.1364694982767105
1697853782105039000,4.1900390625,9.804255485534668,1.6041151285171509,-0.28131869435310364
1697853782115134000,4.200134033203125,9.874884605407715,1.6148890256881714,-0.23582886159420013
1697853782124771000,4.20977099609375,9.921571731567383,1.6184803247451782,-0.22625206410884857
1697853782134726000,4.219725830078125,9.736021041870117,1.5071499347686768,-0.18315643072128296
1697853782144714000,4.2297138671875,9.673771858215332,1.4748282432556152,-0.2346317619085312
1697853782154955000,4.239955078125,9.57201862335205,1.4544775485992432,-0.25977087020874023
1697853782164803000,4.249802978515625,9.769539833068848,1.4987702369689941,-0.18914192914962769
1697853782174691000,4.259691162109375,9.701305389404297,1.4832079410552979,-0.22266076505184174
1697853782184807000,4.269806884765625,9.758766174316406,1.5047557353973389,-0.23104046285152435
1697853782194708000,4.2797080078125,9.764751434326172,1.5143325328826904,-0.16998831927776337
1697853782204818000,4.28981787109375,9.746794700622559,1.478419542312622,-0.1388636976480484
1697853782214830000,4.299830078125,9.724050521850586,1.4664485454559326,-0.16400282084941864
1697853782224669000,4.3096689453125,9.715670585632324,1.436521053314209,-0.14245499670505524
1697853782234829000,4.3198291015625,9.672574996948242,1.4281413555145264,-0.12330138683319092
1697853782244870000,4.329869873046875,9.728838920593262,1.4389152526855469,-0.1604115068912506
1697853782254715000,4.33971484375,9.730035781860352,1.4616601467132568,-0.15083470940589905
1697853782264808000,4.349807861328125,9.75397777557373,1.4939818382263184,-0.16998831927776337
1697853782274672000,4.359672119140625,9.798270225524902,1.5095441341400146,-0.19393034279346466
1697853782284962000,4.369962158203125,9.81024169921875,1.5275006294250488,-0.1999158412218094
1697853782294713000,4.379713134765625,9.815030097961426,1.534683346748352,-0.21308395266532898
1697853782304579000,4.3895791015625,9.795876502990723,1.5298948287963867,-0.22026655077934265
1697853782314732000,4.39973193359375,9.763554573059082,1.5131354331970215,-0.22744916379451752
1697853782324644000,4.40964404296875,9.730035781860352,1.5071499347686768,-0.22625206410884857
1697853782334726000,4.419725830078125,9.710882186889648,1.5131354331970215,-0.22505496442317963
1697853782344703000,4.429702880859375,9.714473724365234,1.5083470344543457,-0.23343466222286224
1697853782354725000,4.43972509765625,9.726444244384766,1.5275006294250488,-0.2346317619085312
1697853782364818000,4.44981787109375,9.732429504394531,1.53707754611969,-0.243011474609375
1697853782374696000,4.459696044921875,9.731232643127441,1.535880446434021,-0.23822307586669922
1697853782384706000,4.4697060546875,9.728838920593262,1.525106430053711,-0.2190694510936737
1697853782394726000,4.479725830078125,9.727641105651855,1.501164436340332,-0.21547815203666687
1697853782404821000,4.489821044921875,9.703699111938477,1.4832079410552979,-0.20709845423698425
1697853782414826000,4.499825927734375,9.697713851928711,1.4760253429412842,-0.1951274424791336
1697853782424656000,4.50965576171875,9.710882186889648,1.4856021404266357,-0.19393034279346466
1697853782434853000,4.51985302734375,9.724050521850586,1.4975731372833252,-0.1759738177061081
1697853782444701000,4.529700927734375,9.762357711791992,1.525106430053711,-0.15682020783424377
1697853782454844000,4.539843994140625,9.7791166305542,1.5406688451766968,-0.16160862147808075
1697853782464838000,4.549837890625,9.786299705505371,1.5514427423477173,-0.16160862147808075
1697853782474656000,4.559656005859375,9.770736694335938,1.5478514432907104,-0.1735796183347702
1697853782484835000,4.5698349609375,9.75397777557373,1.5406688451766968,-0.17956513166427612
1697853782494714000,4.579714111328125,9.751583099365234,1.525106430053711,-0.19273324310779572
1697853782504715000,4.589715087890625,9.765948295593262,1.5119383335113525,-0.19033902883529663
1697853782514714000,4.599714111328125,9.728838920593262,1.4927847385406494,-0.1867477297782898
1697853782524673000,4.609673095703125,9.734824180603027,1.5131354331970215,-0.21667525172233582
1697853782534706000,4.619705810546875,9.740809440612793,1.501164436340332,-0.22026655077934265
1697853782544735000,4.62973486328125,9.734824180603027,1.482010841369629,-0.22385786473751068
1697853782554711000,4.6397109375,9.800664901733398,1.533486247062683,-0.3471592366695404
1697853782564706000,4.6497060546875,9.80904483795166,1.6855180263519287,-0.44173020124435425
1697853782574678000,4.659677978515625,9.452308654785156,1.644816517829895,-0.005985504016280174
1697853782584711000,4.6697109375,9.727641105651855,1.4113819599151611,-0.040701430290937424
1697853782594618000,4.6796181640625,9.799467086791992,1.380257248878479,-0.4405331015586853
1697853782604609000,4.689609130859375,9.394847869873047,1.2892776727676392,-0.023942016065120697
1697853782614621000,4.699620849609375,10.016142845153809,1.4640543460845947,-0.06224924325942993
1697853782624590000,4.709590087890625,9.759963035583496,1.4748282432556152,-0.10893617570400238
1697853782634615000,4.719614990234375,9.919178009033203,1.456871747970581,-0.16639702022075653
1697853782644607000,4.72960693359375,9.850942611694336,1.5298948287963867,-0.02753331884741783
1697853782654623000,4.739623046875,9.84376049041748,1.459265947341919,-0.1951274424791336
1697853782664611000,4.749611083984375,9.710882186889648,1.4317326545715332,-0.24899697303771973
1697853782674597000,4.75959716796875,9.730035781860352,1.4532804489135742,-0.11133038252592087
1697853782684612000,4.769612060546875,9.59476375579834,1.3970166444778442,-0.2561795711517334
1697853782694615000,4.779614990234375,9.6989107131958,1.4389152526855469,-0.33997663855552673
1697853782704661000,4.789660888671875,9.732429504394531,1.4724340438842773,-0.2753331959247589
1697853782714690000,4.79968994140625,9.726444244384766,1.499967336654663,-0.23343466222286224
1697853782724587000,4.8095869140625,9.757569313049316,1.5406688451766968,-0.2693476974964142
1697853782734623000,4.819623046875,9.758766174316406,1.5538369417190552,-0.24899697303771973
1697853782744709000,4.829709228515625,9.738415718078613,1.5550340414047241,-0.29209262132644653
1697853782754625000,4.839625,9.75637149810791,1.5514427423477173,-0.20709845423698425
1697853782764612000,4.849612060546875,9.734824180603027,1.5298948287963867,-0.1604115068912506
1697853782774619000,4.859618896484375,9.684545516967773,1.522712230682373,-0.20350714027881622
1697853782784611000,4.869611083984375,9.702502250671387,1.5550340414047241,-0.22266076505184174
1697853782794629000,4.879629150390625,9.71926212310791,1.5634137392044067,-0.22266076505184174
1697853782804753000,4.8897529296875,9.736021041870117,1.5765818357467651,-0.19273324310779572
1697853782814776000,4.899776123046875,9.792284965515137,1.5873557329177856,-0.17477671802043915
1697853782824678000,4.909677978515625,9.781511306762695,1.5825673341751099,-0.17956513166427612
1697853782834634000,4.919634033203125,9.763554573059082,1.53707754611969,-0.13527239859104156
1697853782844705000,4.929705078125,9.742006301879883,1.5047557353973389,-0.12928688526153564
1697853782854839000,4.939839111328125,9.710882186889648,1.4664485454559326,-0.16400282084941864
1697853782864614000,4.94961376953125,9.703699111938477,1.45806884765625,-0.1735796183347702
1697853782874589000,4.9595888671875,9.706093788146973,1.45806884765625,-0.16759411990642548
1697853782885189000,4.970189208984375,9.750386238098145,1.4664485454559326,-0.16519992053508759
1697853782894621000,4.979620849609375,9.781511306762695,1.4915876388549805,-0.16400282084941864
1697853782904595000,4.989594970703125,9.758766174316406,1.5095441341400146,-0.21667525172233582
1697853782914717000,4.999717041015625,9.728838920593262,1.50355863571167,-0.22026655077934265
1697853782924629000,5.00962890625,9.747992515563965,1.5131354331970215,-0.2214636504650116
1697853782934715000,5.01971484375,9.742006301879883,1.4903905391693115,-0.23822307586669922
1697853782944612000,5.029612060546875,9.744400978088379,1.48081374168396,-0.23942017555236816
1697853782954631000,5.039630859375,9.733627319335938,1.4772224426269531,-0.23822307586669922
1697853782964671000,5.0496708984375,9.771934509277344,1.4748282432556152,-0.25258827209472656
1697853782974623000,5.059623046875,9.72285270690918,1.5071499347686768,-0.243011474609375
1697853782984724000,5.069723876953125,9.725247383117676,1.5107412338256836,-0.1975216418504715
1697853782994629000,5.079629150390625,9.690531730651855,1.5095441341400146,-0.15801730751991272
1697853783004714000,5.0897138671875,9.702502250671387,1.499967336654663,-0.16759411990642548
1697853783015054000,5.10005419921875,9.709685325622559,1.5143325328826904,-0.17238251864910126
1697853783024951000,5.109950927734375,9.737217903137207,1.5083470344543457,-0.1999158412218094
1697853783034823000,5.119822998046875,9.720458984375,1.5143325328826904,-0.21428105235099792
1697853783044687000,5.12968701171875,9.763554573059082,1.5143325328826904,-0.21787235140800476
1697853783054757000,5.139757080078125,9.750386238098145,1.5059528350830078,-0.2106897532939911
1697853783064848000,5.149847900390625,9.768342971801758,1.521515130996704,-0.2106897532939911
1697853783074648000,5.15964794921875,9.715670585632324,1.434126853942871,-0.2106897532939911
1697853783084675000,5.169675048828125,9.769539833068848,1.6615760326385498,-0.2908954918384552
1697853783094633000,5.179633056640625,9.78989028930664,1.40180504322052,-0.16519992053508759
1697853783104587000,5.1895869140625,9.792284965515137,1.534683346748352,-0.21547815203666687
1697853783114744000,5.199744140625,9.733627319335938,1.4844050407409668,-0.16879121959209442
1697853783124710000,5.2097099609375,9.730035781860352,1.499967336654663,-0.19153612852096558
1697853783134790000,5.219789794921875,9.704896926879883,1.4927847385406494,-0.15921440720558167
1697853783144770000,5.22977001953125,9.762357711791992,1.482010841369629,-0.17836803197860718
1697853783154841000,5.239841064453125,9.745597839355469,1.4856021404266357,-0.21308395266532898
1697853783164861000,5.24986083984375,9.715670585632324,1.4891934394836426,-0.20111294090747833
1697853783176041000,5.261041015625,9.71926212310791,1.4879963397979736,-0.181959331035614
1697853783184923000,5.2699228515625,9.737217903137207,1.4951789379119873,-0.19393034279346466
1697853783194716000,5.2797158203125,9.701305389404297,1.521515130996704,-0.20111294090747833
1697853783204692000,5.28969189453125,9.720458984375,1.4903905391693115,-0.22864626348018646
1697853783214644000,5.29964404296875,9.77672290802002,1.50355863571167,-0.20949265360832214
1697853783224647000,5.30964697265625,9.783905029296875,1.4772224426269531,-0.1412578970193863
1697853783234751000,5.3197509765625,9.75637149810791,1.5095441341400146,-0.2214636504650116
1697853783244636000,5.329635986328125,9.761159896850586,1.5107412338256836,-0.18914192914962769
1697853783254665000,5.3396650390625,9.774328231811523,1.533486247062683,-0.19871874153614044
1697853783264711000,5.3497109375,9.714473724365234,1.5155296325683594,-0.1759738177061081
1697853783274734000,5.359734130859375,9.673771858215332,1.5071499347686768,-0.18076223134994507
1697853783284751000,5.369751220703125,9.68933391571045,1.523909330368042,-0.18555063009262085
1697853783294736000,5.37973583984375,9.720458984375,1.5646108388900757,-0.18914192914962769
1697853783304710000,5.3897099609375,9.743204116821289,1.578976035118103,-0.1999158412218094
1697853783314817000,5.399817138671875,9.743204116821289,1.558625340461731,-0.2346317619085312
1697853783324947000,5.409947021484375,9.732429504394531,1.5418659448623657,-0.24899697303771973
1697853783334736000,5.41973583984375,9.71926212310791,1.5131354331970215,-0.24779987335205078
1697853783344741000,5.4297412109375,9.720458984375,1.499967336654663,-0.22385786473751068
1697853783354988000,5.439988037109375,9.713275909423828,1.5143325328826904,-0.23702596127986908
1697853783364677000,5.449677001953125,9.720458984375,1.5526398420333862,-0.2214636504650116
1697853783374799000,5.459799072265625,9.726444244384766,1.5921441316604614,-0.2059013396501541
1697853783384797000,5.469796875,9.747992515563965,1.6208745241165161,-0.2082955539226532
1697853783394728000,5.47972802734375,9.775525093078613,1.659181833267212,-0.21188685297966003
1697853783404680000,5.489679931640625,9.781511306762695,1.680729627609253,-0.2059013396501541
1697853783414803000,5.499802978515625,9.758766174316406,1.6376339197158813,-0.17956513166427612
1697853783424710000,5.5097099609375,9.743204116821289,1.5885528326034546,-0.16879121959209442
1697853783434722000,5.51972216796875,9.676166534423828,1.525106430053711,-0.15442600846290588
1697853783444832000,5.52983203125,9.708487510681152,1.479616641998291,-0.14245499670505524
1697853783454821000,5.539821044921875,9.740809440612793,1.43532395362854,-0.11013327538967133
1697853783465741000,5.550740966796875,9.524134635925293,1.4245500564575195,-0.1711854189634323
1697853783474939000,5.55993896484375,9.898826599121094,1.4712369441986084,-0.16998831927776337
1697853783485182000,5.570181884765625,9.920374870300293,1.3563152551651,-0.10055647045373917
1697853783495095000,5.580094970703125,9.93354320526123,1.3120225667953491,-0.181959331035614
1697853783504825000,5.5898251953125,9.827000617980957,1.1899182796478271,-0.16759411990642548
1697853783515065000,5.600065185546875,9.829395294189453,1.1504138708114624,-0.20111294090747833
1697853783524957000,5.60995703125,9.798270225524902,1.1252747774124146,-0.23702596127986908
1697853783535049000,5.620049072265625,9.782708168029785,1.1444283723831177,-0.22266076505184174
1697853783545083000,5.630082763671875,9.747992515563965,1.1444283723831177,-0.2717418968677521
1697853783555116000,5.640115966796875,9.799467086791992,1.1887211799621582,-0.3172317147254944
1697853783565044000,5.6500439453125,9.938331604003906,1.1097124814987183,-0.2717418968677521
1697853783574945000,5.659945068359375,9.452308654785156,1.2018892765045166,-0.34835633635520935
1697853783585060000,5.67006005859375,9.457097053527832,1.2509703636169434,-0.22505496442317963
1697853783594989000,5.679989013671875,9.45111083984375,1.4173674583435059,-0.22744916379451752
1697853783605087000,5.6900869140625,9.536105155944824,1.6663644313812256,-0.2454056739807129
1697853783615047000,5.700046875,9.624691009521484,1.8387469053268433,-0.25019407272338867
1697853783624795000,5.709794921875,9.758766174316406,1.9800047874450684,-0.22505496442317963
1697853783634823000,5.719822998046875,9.847352027893066,2.074575662612915,-0.18914192914962769
1697853783644832000,5.72983203125,9.96945571899414,2.1344308853149414,-0.1711854189634323
1697853783654823000,5.739822998046875,9.860519409179688,2.1296424865722656,-0.20350714027881622
1697853783664964000,5.749964111328125,9.831789016723633,2.0219032764434814,-0.19632454216480255
1697853783674922000,5.759921875,9.726444244384766,1.8555063009262085,-0.15322890877723694
1697853783684770000,5.76977001953125,9.791088104248047,1.7609353065490723,-0.08140286058187485
1697853783694755000,5.779755126953125,9.75637149810791,1.6711528301239014,-0.03232172131538391
1697853783704838000,5.789837890625,9.763554573059082,1.6340426206588745,-0.1472434103488922
1697853783714952000,5.799951904296875,9.742006301879883,1.4688427448272705,-0.17477671802043915
1697853783724968000,5.809968017578125,9.680954933166504,1.358709454536438,-0.19153612852096558
1697853783735013000,5.82001318359375,9.749189376831055,1.2114660739898682,-0.21667525172233582
1697853783744782000,5.829781982421875,9.690531730651855,1.07379949092865,-0.20470423996448517
1697853783754726000,5.839725830078125,9.710882186889648,0.9624691009521484,-0.2059013396501541
1697853783764728000,5.84972802734375,9.733627319335938,0.8990227580070496,-0.28969839215278625
1697853783774966000,5.859966064453125,9.797073364257812,0.9744400978088379,-0.23582886159420013
1697853783784747000,5.8697470703125,10.014945983886719,1.0618284940719604,-0.26096799969673157
1697853783794938000,5.879938232421875,9.732429504394531,1.0462661981582642,-0.23702596127986908
1697853783805129000,5.89012890625,9.703699111938477,1.1779472827911377,-0.21667525172233582
1697853783814793000,5.89979296875,9.536105155944824,1.2952631711959839,-0.1975216418504715
1697853783824661000,5.909660888671875,9.550470352172852,1.721431016921997,-0.1364694982767105
1697853783834865000,5.919864990234375,9.563638687133789,1.9081788063049316,-0.1628057211637497
1697853783847247000,5.9322470703125,9.680954933166504,2.032677173614502,-0.16998831927776337
1697853783860125000,5.945125,9.838972091674805,2.1739351749420166,-0.16998831927776337
1697853783874766000,5.95976611328125,9.908403396606445,2.1080946922302246,-0.2106897532939911
1697853783884623000,5.969623046875,9.932345390319824,1.9512743949890137,-0.2908954918384552
1697853783894726000,5.979725830078125,9.909601211547852,1.7812861204147339,-0.2645592987537384
1697853783904743000,5.989742919921875,9.916783332824707,1.6376339197158813,-0.1951274424791336
1697853783914706000,5.999705810546875,9.815030097961426,1.525106430053711,-0.23104046285152435
1697853783924773000,6.009773193359375,9.739612579345703,1.4065934419631958,-0.2585737705230713
1697853783934772000,6.01977197265625,9.63067626953125,1.3263877630233765,-0.30047231912612915
1697853783944832000,6.02983203125,9.552865028381348,1.258152961730957,-0.27892449498176575
1697853783954806000,6.039805908203125,9.537302017211914,1.2270283699035645,-0.19393034279346466
1697853783964720000,6.04972021484375,9.566033363342285,1.2210428714752197,-0.16879121959209442
1697853783974824000,6.059823974609375,9.599552154541016,1.2246341705322266,-0.20470423996448517
1697853783984722000,6.069721923828125,9.68574333190918,1.2533645629882812,-0.17956513166427612
1697853783994717000,6.079717041015625,9.761159896850586,1.3108254671096802,-0.13766659796237946
1697853784004846000,6.08984619140625,9.830592155456543,1.359906554222107,-0.07781155407428741
1697853784014710000,6.0997099609375,9.855731010437012,1.416170358657837,-0.1041477769613266
1697853784024910000,6.10991015625,9.847352027893066,1.4640543460845947,-0.17477671802043915
1697853784034730000,6.11972998046875,9.858125686645508,1.5083470344543457,-0.16519992053508759
1697853784044785000,6.129784912109375,9.830592155456543,1.557428240776062,-0.152031809091568
1697853784054724000,6.13972412109375,9.81143856048584,1.5945383310317993,-0.15921440720558167
1697853784064733000,6.14973291015625,9.791088104248047,1.6328455209732056,-0.21188685297966003
1697853784075491000,6.160490966796875,9.747992515563965,1.6627731323242188,-0.25258827209472656
1697853784084803000,6.169802978515625,9.712079048156738,1.6603789329528809,-0.2645592987537384
1697853784094982000,6.17998193359375,9.651026725769043,1.6400281190872192,-0.2322375625371933
1697853784104873000,6.189873046875,9.600749015808105,1.5921441316604614,-0.2322375625371933
1697853784114697000,6.199697021484375,9.593565940856934,1.5478514432907104,-0.2406172752380371
1697853784124752000,6.209751953125,9.604340553283691,1.5083470344543457,-0.272938996553421
1697853784134685000,6.219684814453125,9.695320129394531,1.478419542312622,-0.24420857429504395
1697853784144641000,6.22964111328125,9.757569313049316,1.4676456451416016,-0.21547815203666687
1697853784154684000,6.239683837890625,9.836577415466309,1.4736311435699463,-0.2214636504650116
1697853784164809000,6.24980908203125,9.850942611694336,1.4760253429412842,-0.2059013396501541
1697853784174683000,6.259682861328125,9.832986831665039,1.4640543460845947,-0.17956513166427612
1697853784184675000,6.269675048828125,9.816226959228516,1.4915876388549805,-0.1711854189634323
1697853784194802000,6.279802001953125,9.768342971801758,1.5047557353973389,-0.16998831927776337
1697853784204758000,6.289758056640625,9.714473724365234,1.5275006294250488,-0.1975216418504715
1697853784214967000,6.299967041015625,9.691728591918945,1.5538369417190552,-0.20111294090747833
1697853784224772000,6.309772216796875,9.720458984375,1.558625340461731,-0.1867477297782898
1697853784234780000,6.31977978515625,9.71926212310791,1.5598224401474,-0.14484919607639313
1697853784244795000,6.329794921875,9.739612579345703,1.4903905391693115,-0.15562310814857483
1697853784254783000,6.339782958984375,9.749189376831055,1.4700398445129395,-0.1759738177061081
1697853784264793000,6.34979296875,9.7791166305542,1.4544775485992432,-0.1604115068912506
1697853784274846000,6.359845947265625,9.792284965515137,1.456871747970581,-0.20231004059314728
1697853784284786000,6.369785888671875,9.750386238098145,1.4425065517425537,-0.24779987335205078
1697853784294797000,6.379797119140625,9.724050521850586,1.4401123523712158,-0.24660277366638184
1697853784304777000,6.38977685546875,9.704896926879883,1.4496891498565674,-0.25019407272338867
1697853784314794000,6.3997939453125,9.703699111938477,1.4688427448272705,-0.24660277366638184
1697853784324836000,6.409836181640625,9.715670585632324,1.4832079410552979,-0.23343466222286224
1697853784334803000,6.419802978515625,9.715670585632324,1.4891934394836426,-0.2214636504650116
1697853784344811000,6.42981103515625,9.718064308166504,1.5059528350830078,-0.21308395266532898
1697853784354795000,6.439794921875,9.744400978088379,1.5119383335113525,-0.18914192914962769
1697853784364796000,6.4497958984375,9.750386238098145,1.5095441341400146,-0.19393034279346466
1697853784374807000,6.45980712890625,9.767146110534668,1.5143325328826904,-0.17717093229293823
1697853784384822000,6.469822021484375,9.773131370544434,1.5286977291107178,-0.17238251864910126
1697853784394804000,6.479803955078125,9.77791976928711,1.5310919284820557,-0.17238251864910126
1697853784404776000,6.48977587890625,9.742006301879883,1.5382746458053589,-0.16879121959209442
1697853784414799000,6.499799072265625,9.734824180603027,1.5406688451766968,-0.1951274424791336
1697853784424825000,6.5098251953125,9.706093788146973,1.5538369417190552,-0.2059013396501541
1697853784434804000,6.519803955078125,9.702502250671387,1.5598224401474,-0.21308395266532898
1697853784444804000,6.52980419921875,9.695320129394531,1.581370234489441,-0.22266076505184174
1697853784454806000,6.539805908203125,9.694122314453125,1.5753847360610962,-0.23942017555236816
1697853784465044000,6.5500439453125,9.6989107131958,1.5598224401474,-0.24181437492370605
1697853784474809000,6.55980908203125,9.72285270690918,1.5430630445480347,-0.22744916379451752
1697853784484843000,6.569843017578125,9.72285270690918,1.533486247062683,-0.21188685297966003
1697853784494779000,6.57977880859375,9.759963035583496,1.5275006294250488,-0.1951274424791336
1697853784504781000,6.589781005859375,9.759963035583496,1.5275006294250488,-0.1867477297782898
1697853784514762000,6.599761962890625,9.774328231811523,1.5275006294250488,-0.18555063009262085
1697853784525043000,6.61004296875,9.774328231811523,1.5107412338256836,-0.19393034279346466
1697853784534743000,6.619742919921875,9.768342971801758,1.501164436340332,-0.18315643072128296
1697853784544794000,6.629794189453125,9.758766174316406,1.482010841369629,-0.1951274424791336
1697853784554755000,6.639755126953125,9.750386238098145,1.4724340438842773,-0.18076223134994507
1697853784564790000,6.6497900390625,9.739612579345703,1.45806884765625,-0.20470423996448517
1697853784574766000,6.65976611328125,9.715670585632324,1.4544775485992432,-0.1951274424791336
1697853784584810000,6.66981005859375,9.740809440612793,1.4640543460845947,-0.18076223134994507
1697853784594783000,6.679782958984375,9.725247383117676,1.4508862495422363,-0.21787235140800476
1697853784604792000,6.6897919921875,9.746794700622559,1.4544775485992432,-0.19153612852096558
1697853784614794000,6.6997939453125,9.764751434326172,1.455674648284912,-0.20111294090747833
1697853784624808000,6.709807861328125,9.747992515563965,1.4484920501708984,-0.20949265360832214
1697853784634793000,6.71979296875,9.759963035583496,1.4748282432556152,-0.1867477297782898
1697853784644808000,6.729807861328125,9.78989028930664,1.4413094520568848,-0.1843535304069519
1697853784654793000,6.73979296875,9.737217903137207,1.4867992401123047,-0.181959331035614
1697853784671305000,6.756304931640625,9.726444244384766,1.478419542312622,-0.1999158412218094
1697853784684702000,6.769701904296875,9.734824180603027,1.5310919284820557,-0.21428105235099792
1697853784694634000,6.779634033203125,9.740809440612793,1.5059528350830078,-0.22864626348018646
1697853784704813000,6.78981298828125,9.739612579345703,1.5155296325683594,-0.22385786473751068
1697853784714720000,6.799719970703125,9.739612579345703,1.5382746458053589,-0.22625206410884857
1697853784724665000,6.8096650390625,9.727641105651855,1.5286977291107178,-0.22744916379451752
1697853784734660000,6.81966015625,9.738415718078613,1.5298948287963867,-0.21188685297966003
1697853784744754000,6.82975390625,9.728838920593262,1.533486247062683,-0.21787235140800476
1697853784754643000,6.839642822265625,9.72285270690918,1.5310919284820557,-0.21667525172233582
1697853784764588000,6.849588134765625,9.72165584564209,1.5442601442337036,-0.21428105235099792
1697853784774634000,6.859634033203125,9.712079048156738,1.5286977291107178,-0.20111294090747833
1697853784784734000,6.86973388671875,9.730035781860352,1.5155296325683594,-0.20350714027881622
1697853784794651000,6.87965087890625,9.720458984375,1.5167267322540283,-0.20350714027881622
1697853784804854000,6.88985400390625,9.720458984375,1.5095441341400146,-0.181959331035614
1697853784814873000,6.899873046875,9.720458984375,1.501164436340332,-0.17836803197860718
1697853784824678000,6.909677978515625,9.745597839355469,1.5059528350830078,-0.17956513166427612
1697853784834594000,6.919593994140625,9.761159896850586,1.4987702369689941,-0.1759738177061081
1697853784845226000,6.93022607421875,9.786299705505371,1.4891934394836426,-0.2214636504650116
1697853784854908000,6.939907958984375,9.75397777557373,1.5167267322540283,-0.17836803197860718
1697853784864635000,6.949634765625,9.762357711791992,1.4939818382263184,-0.2082955539226532
1697853784874603000,6.95960302734375,9.72165584564209,1.478419542312622,-0.18914192914962769
1697853784884756000,6.969755859375,9.716867446899414,1.4832079410552979,-0.19153612852096558
1697853784894741000,6.979740966796875,9.72165584564209,1.478419542312622,-0.18914192914962769
1697853784904873000,6.989873046875,9.746794700622559,1.4963760375976562,-0.19393034279346466
1697853784914687000,6.99968701171875,9.763554573059082,1.5059528350830078,-0.19153612852096558
1697853784924951000,7.009950927734375,9.75278091430664,1.4975731372833252,-0.2059013396501541
1697853784934947000,7.019947021484375,9.737217903137207,1.5155296325683594,-0.22625206410884857
1697853784944774000,7.02977392578125,9.733627319335938,1.5167267322540283,-0.20949265360832214
1697853784954954000,7.0399541015625,9.736021041870117,1.5131354331970215,-0.21667525172233582
1697853784965045000,7.050044921875,9.72285270690918,1.5167267322540283,-0.21188685297966003
1697853784974758000,7.0597578125,9.744400978088379,1.5167267322540283,-0.22625206410884857
1697853784985057000,7.07005712890625,9.758766174316406,1.5191209316253662,-0.21787235140800476
1697853784994741000,7.079740966796875,9.758766174316406,1.5191209316253662,-0.21188685297966003
1697853785005216000,7.090216064453125,9.747992515563965,1.5131354331970215,-0.21188685297966003
1697853785015047000,7.100046875,9.727641105651855,1.502361536026001,-0.2082955539226532
1697853785024761000,7.109760986328125,9.724050521850586,1.501164436340332,-0.19632454216480255
1697853785034961000,7.1199609375,9.71926212310791,1.4975731372833252,-0.19871874153614044
1697853785045005000,7.130005126953125,9.739612579345703,1.4975731372833252,-0.1999158412218094
1697853785055082000,7.14008203125,9.72285270690918,1.5059528350830078,-0.1999158412218094
1697853785065239000,7.150239013671875,9.736021041870117,1.4856021404266357,-0.1999158412218094
1697853785074758000,7.1597578125,9.634267807006836,1.502361536026001,-0.20350714027881622
1697853785085061000,7.17006103515625,9.815030097961426,1.4975731372833252,-0.22385786473751068
1697853785095007000,7.180007080078125,9.775525093078613,1.5071499347686768,-0.21428105235099792
1697853785104731000,7.18973095703125,9.750386238098145,1.5131354331970215,-0.20949265360832214
1697853785114823000,7.199822998046875,9.767146110534668,1.5203180313110352,-0.21188685297966003
1697853785124677000,7.209677001953125,9.751583099365234,1.522712230682373,-0.21308395266532898
1697853785134672000,7.219671875,9.75278091430664,1.525106430053711,-0.1975216418504715
1697853785144670000,7.229669921875,9.736021041870117,1.5107412338256836,-0.19273324310779572
1697853785154714000,7.239714111328125,9.742006301879883,1.5047557353973389,-0.19033902883529663
1697853785164727000,7.24972705078125,9.730035781860352,1.4951789379119873,-0.18555063009262085
1697853785174699000,7.259698974609375,9.733627319335938,1.4951789379119873,-0.18315643072128296
1697853785184926000,7.269926025390625,9.737217903137207,1.499967336654663,-0.2082955539226532
1697853785194858000,7.27985791015625,9.733627319335938,1.4939818382263184,-0.21667525172233582
1697853785204857000,7.289857177734375,9.72165584564209,1.501164436340332,-0.22744916379451752
1697853785215042000,7.3000419921875,9.75278091430664,1.5131354331970215,-0.2190694510936737
1697853785224814000,7.30981396484375,9.724050521850586,1.5095441341400146,-0.21547815203666687
1697853785235037000,7.320036865234375,9.75278091430664,1.5083470344543457,-0.21308395266532898
1697853785244730000,7.329730224609375,9.744400978088379,1.5119383335113525,-0.20709845423698425
1697853785254750000,7.33975,9.731232643127441,1.5095441341400146,-0.1951274424791336
1697853785264971000,7.349970947265625,9.733627319335938,1.5059528350830078,-0.18315643072128296
1697853785274747000,7.359746826171875,9.734824180603027,1.5047557353973389,-0.18914192914962769
1697853785285100000,7.37010009765625,9.726444244384766,1.5059528350830078,-0.18794482946395874
1697853785295128000,7.380128173828125,9.71926212310791,1.4975731372833252,-0.1975216418504715
1697853785305037000,7.390037109375,9.739612579345703,1.4975731372833252,-0.1999158412218094
1697853785314813000,7.39981298828125,9.759963035583496,1.50355863571167,-0.20111294090747833
1697853785324757000,7.409757080078125,9.771934509277344,1.4951789379119873,-0.19632454216480255
1697853785335073000,7.420072998046875,9.762357711791992,1.4951789379119873,-0.2106897532939911
1697853785345112000,7.430112060546875,9.744400978088379,1.4903905391693115,-0.1999158412218094
1697853785354968000,7.439968017578125,9.640253067016602,1.502361536026001,-0.18914192914962769
1697853785365055000,7.450054931640625,9.864110946655273,1.5059528350830078,-0.23582886159420013
1697853785374750000,7.45975,9.676166534423828,1.5155296325683594,-0.19393034279346466
1697853785385069000,7.470069091796875,9.697713851928711,1.535880446434021,-0.20111294090747833
1697853785395065000,7.480065185546875,9.72165584564209,1.5286977291107178,-0.18555063009262085
1697853785405063000,7.49006298828125,9.740809440612793,1.5203180313110352,-0.20949265360832214
1697853785415114000,7.500114013671875,9.747992515563965,1.5203180313110352,-0.19393034279346466
1697853785424779000,7.509779052734375,9.750386238098145,1.5059528350830078,-0.1951274424791336
1697853785434849000,7.51984912109375,9.746794700622559,1.5083470344543457,-0.1867477297782898
1697853785445051000,7.53005078125,9.747992515563965,1.5095441341400146,-0.19632454216480255
1697853785456360000,7.54135986328125,9.749189376831055,1.502361536026001,-0.20350714027881622
1697853785464713000,7.549712890625,9.749189376831055,1.4891934394836426,-0.20709845423698425
1697853785474716000,7.5597158203125,9.731232643127441,1.4867992401123047,-0.20350714027881622
1697853785484847000,7.56984716796875,9.738415718078613,1.4975731372833252,-0.19393034279346466
1697853785494959000,7.579958984375,9.724050521850586,1.4939818382263184,-0.19153612852096558
1697853785504709000,7.589709228515625,9.727641105651855,1.4939818382263184,-0.19153612852096558
1697853785514713000,7.599713134765625,9.731232643127441,1.4987702369689941,-0.19393034279346466
1697853785524771000,7.60977099609375,9.72285270690918,1.5047557353973389,-0.19871874153614044
1697853785534999000,7.6199990234375,9.733627319335938,1.5095441341400146,-0.21547815203666687
1697853785544716000,7.629716064453125,9.726444244384766,1.5167267322540283,-0.20949265360832214
1697853785554707000,7.63970703125,9.732429504394531,1.5095441341400146,-0.21188685297966003
1697853785564724000,7.649723876953125,9.739612579345703,1.5203180313110352,-0.2059013396501541
1697853785574787000,7.659787109375,9.742006301879883,1.5191209316253662,-0.18914192914962769
1697853785584944000,7.669944091796875,9.75278091430664,1.5143325328826904,-0.1843535304069519
1697853785594783000,7.679782958984375,9.761159896850586,1.5143325328826904,-0.1951274424791336
1697853785604668000,7.68966796875,9.758766174316406,1.50355863571167,-0.18555063009262085
1697853785614776000,7.699776123046875,9.757569313049316,1.4939818382263184,-0.20231004059314728
1697853785624631000,7.709631103515625,9.747992515563965,1.4927847385406494,-0.20949265360832214
1697853785634694000,7.71969384765625,9.739612579345703,1.4963760375976562,-0.21547815203666687
1697853785644735000,7.72973486328125,9.733627319335938,1.4951789379119873,-0.22266076505184174
1697853785654705000,7.739704833984375,9.718064308166504,1.4963760375976562,-0.21667525172233582
1697853785664785000,7.749784912109375,9.731232643127441,1.50355863571167,-0.20470423996448517
1697853785674752000,7.759751953125,9.726444244384766,1.5083470344543457,-0.20470423996448517
1697853785684809000,7.76980908203125,9.716867446899414,1.5155296325683594,-0.19153612852096558
1697853785694783000,7.779782958984375,9.715670585632324,1.5071499347686768,-0.1867477297782898
1697853785704772000,7.789772216796875,9.737217903137207,1.5047557353973389,-0.181959331035614
1697853785714756000,7.799756103515625,9.738415718078613,1.5107412338256836,-0.1867477297782898
1697853785724743000,7.809742919921875,9.751583099365234,1.5119383335113525,-0.19393034279346466
1697853785734668000,7.81966796875,9.764751434326172,1.5083470344543457,-0.20350714027881622
1697853785744814000,7.82981396484375,9.75637149810791,1.5071499347686768,-0.1999158412218094
1697853785754662000,7.839661865234375,9.75278091430664,1.5107412338256836,-0.20350714027881622
1697853785764651000,7.849651123046875,9.744400978088379,1.5131354331970215,-0.1951274424791336
1697853785774673000,7.8596728515625,9.743204116821289,1.5119383335113525,-0.2082955539226532
1697853785785281000,7.870281005859375,9.736021041870117,1.4987702369689941,-0.20350714027881622
1697853785794743000,7.879742919921875,9.730035781860352,1.4856021404266357,-0.1999158412218094
1697853785804704000,7.8897041015625,9.734824180603027,1.5059528350830078,-0.20949265360832214
1697853785814855000,7.89985498046875,9.710882186889648,1.4975731372833252,-0.19871874153614044
1697853785824729000,7.90972900390625,9.740809440612793,1.499967336654663,-0.19871874153614044
1697853785834684000,7.919683837890625,9.71926212310791,1.4903905391693115,-0.19632454216480255
1697853785844917000,7.9299169921875,9.732429504394531,1.5083470344543457,-0.2106897532939911
1697853785854791000,7.939791015625,9.738415718078613,1.502361536026001,-0.1975216418504715
1697853785865951000,7.950950927734375,9.724050521850586,1.502361536026001,-0.1951274424791336
1697853785875060000,7.96006005859375,9.737217903137207,1.5071499347686768,-0.20111294090747833
1697853785884636000,7.969635986328125,9.744400978088379,1.5083470344543457,-0.1975216418504715
1697853785894625000,7.979625,9.75278091430664,1.5059528350830078,-0.19033902883529663
1697853785904672000,7.989672119140625,9.75278091430664,1.5119383335113525,-0.20111294090747833
1697853785914740000,7.999739990234375,9.743204116821289,1.5167267322540283,-0.19393034279346466
1697853785924740000,8.009739990234374,9.743204116821289,1.5071499347686768,-0.19632454216480255
1697853785934765000,8.01976513671875,9.72285270690918,1.50355863571167,-0.1999158412218094
1697853785944932000,8.02993212890625,9.718064308166504,1.5119383335113525,-0.19033902883529663
1697853785954682000,8.03968212890625,9.725247383117676,1.5047557353973389,-0.20111294090747833
1697853785964922000,8.049922119140625,9.745597839355469,1.50355863571167,-0.2059013396501541
1697853785974726000,8.059725830078126,9.746794700622559,1.4927847385406494,-0.22026655077934265
1697853785984916000,8.069916015625,9.737217903137207,1.4987702369689941,-0.21428105235099792
1697853785994762000,8.079761962890625,9.746794700622559,1.4927847385406494,-0.20709845423698425
1697853786005021000,8.09002099609375,9.727641105651855,1.4867992401123047,-0.20470423996448517
1697853786014806000,8.099805908203125,9.71926212310791,1.4951789379119873,-0.1975216418504715
1697853786025073000,8.110072998046874,9.720458984375,1.50355863571167,-0.19871874153614044
1697853786035017000,8.120016845703125,9.743204116821289,1.5119383335113525,-0.19033902883529663
1697853786044957000,8.12995703125,9.761159896850586,1.5155296325683594,-0.19632454216480255
1697853786054862000,8.139862060546875,9.746794700622559,1.5095441341400146,-0.2059013396501541
1697853786064940000,8.14993994140625,9.7791166305542,1.5203180313110352,-0.20350714027881622
1697853786074737000,8.15973681640625,9.75397777557373,1.4987702369689941,-0.2059013396501541
1697853786084967000,8.169966796875,9.75517463684082,1.4951789379119873,-0.2106897532939911
1697853786094695000,8.17969482421875,9.731232643127441,1.4856021404266357,-0.19871874153614044
1697853786104792000,8.1897919921875,9.718064308166504,1.4951789379119873,-0.20111294090747833
1697853786115018000,8.20001806640625,9.737217903137207,1.4975731372833252,-0.20231004059314728
1697853786124900000,8.209900146484374,9.725247383117676,1.4939818382263184,-0.1999158412218094
1697853786135056000,8.220055908203125,9.724050521850586,1.5059528350830078,-0.1951274424791336
1697853786144910000,8.22991015625,9.716867446899414,1.5107412338256836,-0.18794482946395874
1697853786154755000,8.239755126953124,9.718064308166504,1.5203180313110352,-0.19273324310779572
1697853786165734000,8.25073388671875,9.716867446899414,1.5119383335113525,-0.18794482946395874
1697853786174900000,8.25989990234375,9.72285270690918,1.5143325328826904,-0.18794482946395874
1697853786184698000,8.269697998046874,9.726444244384766,1.5191209316253662,-0.1975216418504715
1697853786194763000,8.279762939453125,9.746794700622559,1.5143325328826904,-0.1975216418504715
1697853786204684000,8.28968408203125,9.747992515563965,1.521515130996704,-0.20350714027881622
1697853786214710000,8.2997099609375,9.75397777557373,1.5131354331970215,-0.1951274424791336
1697853786224850000,8.309849853515624,9.767146110534668,1.5083470344543457,-0.19871874153614044
1697853786235600000,8.320599853515626,9.758766174316406,1.4879963397979736,-0.19871874153614044
1697853786246238000,8.331238037109374,9.75397777557373,1.4760253429412842,-0.21787235140800476
1697853786254684000,8.339683837890625,9.733627319335938,1.4712369441986084,-0.2082955539226532
1697853786265152000,8.350152099609375,9.728838920593262,1.4664485454559326,-0.19393034279346466
1697853786275925000,8.360925048828125,9.72165584564209,1.4760253429412842,-0.20350714027881622
1697853786284658000,8.369657958984375,9.701305389404297,1.4987702369689941,-0.1975216418504715
1697853786294670000,8.379670166015625,9.716867446899414,1.5191209316253662,-0.20470423996448517
1697853786304701000,8.389700927734374,9.714473724365234,1.5263035297393799,-0.20709845423698425
1697853786314742000,8.399741943359375,9.716867446899414,1.53707754611969,-0.2106897532939911
1697853786324635000,8.409634765625,9.731232643127441,1.534683346748352,-0.20709845423698425
1697853786334682000,8.41968212890625,9.730035781860352,1.5406688451766968,-0.2059013396501541
1697853786344667000,8.4296669921875,9.740809440612793,1.535880446434021,-0.19871874153614044
1697853786354664000,8.439663818359374,9.759963035583496,1.5131354331970215,-0.19153612852096558
1697853786364690000,8.44968994140625,9.767146110534668,1.4963760375976562,-0.18315643072128296
1697853786375021000,8.46002099609375,9.750386238098145,1.5083470344543457,-0.18555063009262085
1697853786384706000,8.4697060546875,9.75278091430664,1.4867992401123047,-0.1951274424791336
1697853786394678000,8.479677978515625,9.730035781860352,1.4748282432556152,-0.19393034279346466
1697853786404634000,8.489634033203124,9.725247383117676,1.4700398445129395,-0.1867477297782898
1697853786414698000,8.499697998046875,9.716867446899414,1.4688427448272705,-0.19632454216480255
1697853786424699000,8.509698974609375,9.714473724365234,1.479616641998291,-0.20709845423698425
1697853786434649000,8.519649169921875,9.718064308166504,1.4856021404266357,-0.21547815203666687
1697853786444642000,8.52964208984375,9.725247383117676,1.4951789379119873,-0.20949265360832214
1697853786454691000,8.539691162109374,9.757569313049316,1.499967336654663,-0.20111294090747833
1697853786464666000,8.549666015625,9.710882186889648,1.5083470344543457,-0.18555063009262085
1697853786475168000,8.56016796875,9.768342971801758,1.5071499347686768,-0.19153612852096558
1697853786484770000,8.56977001953125,9.725247383117676,1.4987702369689941,-0.15442600846290588
1697853786494636000,8.579635986328125,9.767146110534668,1.522712230682373,-0.21787235140800476
1697853786505379000,8.590379150390625,9.725247383117676,1.5179238319396973,-0.21188685297966003
1697853786514616000,8.599615966796875,9.720458984375,1.5322890281677246,-0.22744916379451752
1697853786524593000,8.609593017578124,9.702502250671387,1.525106430053711,-0.22266076505184174
1697853786534608000,8.61960791015625,9.709685325622559,1.53707754611969,-0.2059013396501541
1697853786544598000,8.629597900390625,9.728838920593262,1.5526398420333862,-0.20111294090747833
1697853786554597000,8.63959716796875,9.733627319335938,1.5454572439193726,-0.19393034279346466
1697853786564585000,8.6495849609375,9.757569313049316,1.5310919284820557,-0.1867477297782898
1697853786574590000,8.65958984375,9.761159896850586,1.5131354331970215,-0.1867477297782898
1697853786584669000,8.6696689453125,9.75278091430664,1.48081374168396,-0.1975216418504715
1697853786594635000,8.679635009765626,9.747992515563965,1.478419542312622,-0.18315643072128296
1697853786604704000,8.6897041015625,9.750386238098145,1.4616601467132568,-0.1999158412218094
1697853786614620000,8.699619873046874,9.751583099365234,1.4616601467132568,-0.1975216418504715
1697853786624643000,8.70964306640625,9.724050521850586,1.456871747970581,-0.20231004059314728
1697853786634751000,8.7197509765625,9.736021041870117,1.478419542312622,-0.21787235140800476
1697853786644660000,8.729659912109375,9.713275909423828,1.4891934394836426,-0.1975216418504715
1697853786654676000,8.739676025390626,9.733627319335938,1.5143325328826904,-0.20231004059314728
1697853786664974000,8.74997412109375,9.715670585632324,1.5167267322540283,-0.20709845423698425
1697853786674729000,8.75972900390625,9.701305389404297,1.5394717454910278,-0.1975216418504715
1697853786684592000,8.769592041015626,9.727641105651855,1.5490485429763794,-0.18555063009262085
1697853786694615000,8.779614990234375,9.737217903137207,1.5466543436050415,-0.18315643072128296
1697853786704579000,8.7895791015625,9.75637149810791,1.5418659448623657,-0.1867477297782898
1697853786714591000,8.799591064453125,9.757569313049316,1.5143325328826904,-0.1867477297782898
1697853786724595000,8.809594970703126,9.75278091430664,1.4927847385406494,-0.19153612852096558
1697853786734610000,8.81960986328125,9.769539833068848,1.4844050407409668,-0.20470423996448517
1697853786744595000,8.829594970703125,9.782708168029785,1.479616641998291,-0.20111294090747833
1697853786754757000,8.839757080078124,9.765948295593262,1.4712369441986084,-0.20470423996448517
1697853786764824000,8.849823974609375,9.773131370544434,1.4700398445129395,-0.21308395266532898
1697853786774769000,8.859768798828124,9.732429504394531,1.4616601467132568,-0.18076223134994507
1697853786784751000,8.869751220703124,9.71926212310791,1.460463047027588,-0.18555063009262085
1697853786794662000,8.879661865234375,9.712079048156738,1.459265947341919,-0.19033902883529663
1697853786804755000,8.8897548828125,9.706093788146973,1.4688427448272705,-0.18315643072128296
1697853786814605000,8.89960498046875,9.712079048156738,1.4700398445129395,-0.20350714027881622
1697853786824716000,8.909716064453125,9.72285270690918,1.4891934394836426,-0.20231004059314728
1697853786834601000,8.91960107421875,9.727641105651855,1.4939818382263184,-0.20231004059314728
1697853786845769000,8.93076904296875,9.733627319335938,1.4951789379119873,-0.20350714027881622
1697853786854736000,8.93973583984375,9.744400978088379,1.5107412338256836,-0.1999158412218094
1697853786864677000,8.949677001953125,9.750386238098145,1.5167267322540283,-0.2082955539226532
1697853786875042000,8.9600419921875,9.743204116821289,1.535880446434021,-0.19632454216480255
1697853786884640000,8.969639892578124,9.744400978088379,1.5442601442337036,-0.20231004059314728
1697853786894693000,8.979693115234374,9.746794700622559,1.5502456426620483,-0.20111294090747833
1697853786904855000,8.98985498046875,9.747992515563965,1.5514427423477173,-0.19033902883529663
1697853786914683000,8.999682861328125,9.743204116821289,1.5490485429763794,-0.19632454216480255
1697853786924625000,9.009625,9.739612579345703,1.5502456426620483,-0.19871874153614044
1697853786934613000,9.019613037109375,9.710882186889648,1.5430630445480347,-0.1975216418504715
1697853786944739000,9.029739013671875,9.668983459472656,1.5286977291107178,-0.20111294090747833
1697853786954635000,9.039635009765625,9.657012939453125,1.5298948287963867,-0.21667525172233582
1697853786964736000,9.049736083984374,9.653421401977539,1.533486247062683,-0.21667525172233582
1697853786974645000,9.05964501953125,9.68933391571045,1.5310919284820557,-0.20470423996448517
1697853786984623000,9.069623046875,9.75278091430664,1.533486247062683,-0.19632454216480255
1697853786994622000,9.0796220703125,9.786299705505371,1.534683346748352,-0.1759738177061081
1697853787004754000,9.08975390625,9.797073364257812,1.5203180313110352,-0.15562310814857483
1697853787014687000,9.09968701171875,9.769539833068848,1.50355863571167,-0.15801730751991272
1697853787024739000,9.109739013671875,9.759963035583496,1.479616641998291,-0.152031809091568
1697853787034733000,9.119733154296876,9.75397777557373,1.4688427448272705,-0.1759738177061081
1697853787044736000,9.129736083984374,9.759963035583496,1.456871747970581,-0.21188685297966003
1697853787054734000,9.139734130859376,9.75397777557373,1.434126853942871,-0.25977087020874023
1697853787064715000,9.149715087890625,9.736021041870117,1.4209587574005127,-0.2849099934101105
1697853787074744000,9.159744140625,9.684545516967773,1.4305355548858643,-0.28969839215278625
1697853787084620000,9.1696201171875,9.627084732055664,1.4472949504852295,-0.27653029561042786
1697853787094628000,9.179628173828124,9.57321548461914,1.4664485454559326,-0.25019407272338867
1697853787104681000,9.189680908203124,9.619902610778809,1.50355863571167,-0.24181437492370605
1697853787114727000,9.199726806640625,9.813833236694336,1.5646108388900757,-0.2777273952960968
1697853787124600000,9.20960009765625,9.931148529052734,1.5885528326034546,-0.23942017555236816
1697853787134737000,9.21973681640625,10.001777648925781,1.5933412313461304,-0.16160862147808075
1697853787144722000,9.229721923828125,9.919178009033203,1.5382746458053589,-0.07422025501728058
1697853787154732000,9.23973193359375,9.781511306762695,1.4951789379119873,-0.0586579404771328
1697853787164848000,9.24984814453125,9.684545516967773,1.4891934394836426,-0.10893617570400238
1697853787174817000,9.259817138671876,9.621099472045898,1.4879963397979736,-0.15682020783424377
1697853787184814000,9.26981396484375,9.599552154541016,1.5310919284820557,-0.15801730751991272
1697853787194770000,9.27977001953125,9.655815124511719,1.601720929145813,-0.16639702022075653
1697853787204742000,9.289741943359376,9.713275909423828,1.5921441316604614,-0.20350714027881622
1697853787214810000,9.29981005859375,9.725247383117676,1.5658079385757446,-0.2214636504650116
1697853787224788000,9.3097880859375,9.712079048156738,1.5442601442337036,-0.2406172752380371
1697853787234835000,9.3198349609375,9.774328231811523,1.4772224426269531,-0.2190694510936737
1697853787244701000,9.329700927734375,9.732429504394531,1.4772224426269531,-0.2190694510936737
1697853787254968000,9.339968017578125,9.726444244384766,1.479616641998291,-0.25498247146606445
1697853787264717000,9.349717041015625,9.732429504394531,1.4460978507995605,-0.2406172752380371
1697853787274728000,9.35972802734375,9.758766174316406,1.4460978507995605,-0.2346317619085312
1697853787284858000,9.369858154296875,9.75637149810791,1.4748282432556152,-0.2082955539226532
1697853787294846000,9.379845947265625,9.758766174316406,1.4676456451416016,-0.20350714027881622
1697853787304863000,9.389863037109375,9.77672290802002,1.4640543460845947,-0.18914192914962769
1697853787314737000,9.39973681640625,9.767146110534668,1.4748282432556152,-0.19033902883529663
1697853787325045000,9.410044921875,9.738415718078613,1.4544775485992432,-0.18076223134994507
1697853787334807000,9.41980712890625,9.737217903137207,1.4496891498565674,-0.16879121959209442
1697853787344782000,9.429781982421876,9.726444244384766,1.4640543460845947,-0.16759411990642548
1697853787354926000,9.439926025390625,9.72285270690918,1.4724340438842773,-0.18315643072128296
1697853787364784000,9.4497841796875,9.727641105651855,1.4963760375976562,-0.18794482946395874
1697853787374816000,9.45981591796875,9.743204116821289,1.4963760375976562,-0.20350714027881622
1697853787385361000,9.47036083984375,9.746794700622559,1.5071499347686768,-0.20709845423698425
1697853787394791000,9.479791015625,9.743204116821289,1.5131354331970215,-0.20470423996448517
1697853787404808000,9.489807861328124,9.751583099365234,1.5298948287963867,-0.21428105235099792
1697853787414798000,9.499798095703126,9.730035781860352,1.53707754611969,-0.22266076505184174
1697853787424827000,9.509826904296874,9.733627319335938,1.5406688451766968,-0.21787235140800476
1697853787434802000,9.519802001953124,9.730035781860352,1.5322890281677246,-0.2190694510936737
1697853787444792000,9.5297919921875,9.716867446899414,1.5203180313110352,-0.1999158412218094
1697853787454967000,9.539967041015625,9.701305389404297,1.525106430053711,-0.1867477297782898
1697853787464814000,9.54981396484375,9.707290649414062,1.5131354331970215,-0.1999158412218094
1697853787474808000,9.55980810546875,9.712079048156738,1.5083470344543457,-0.21547815203666687
1697853787485137000,9.570136962890626,9.713275909423828,1.5179238319396973,-0.2059013396501541
1697853787494791000,9.579791015625,9.727641105651855,1.4987702369689941,-0.18555063009262085
1697853787504962000,9.589962158203125,9.744400978088379,1.502361536026001,-0.17717093229293823
1697853787514798000,9.599798095703125,9.75637149810791,1.5071499347686768,-0.17477671802043915
1697853787524809000,9.60980908203125,9.762357711791992,1.4975731372833252,-0.19273324310779572
1697853787534775000,9.619775146484375,9.757569313049316,1.4939818382263184,-0.20111294090747833
1697853787544858000,9.629858154296874,9.75278091430664,1.4891934394836426,-0.19033902883529663
1697853787554695000,9.63969482421875,9.740809440612793,1.4975731372833252,-0.17836803197860718
1697853787564859000,9.64985888671875,9.740809440612793,1.4856021404266357,-0.1711854189634323
1697853787574965000,9.659965087890624,9.730035781860352,1.4891934394836426,-0.1711854189634323
1697853787584965000,9.669965087890626,9.726444244384766,1.4856021404266357,-0.19273324310779572
1697853787594955000,9.679955078125,9.728838920593262,1.5083470344543457,-0.21308395266532898
1697853787604892000,9.689891845703125,9.727641105651855,1.5119383335113525,-0.20231004059314728
1697853787614911000,9.699910888671875,9.737217903137207,1.5083470344543457,-0.19871874153614044
1697853787624598000,9.709597900390625,9.739612579345703,1.522712230682373,-0.21787235140800476
1697853787634667000,9.7196669921875,9.738415718078613,1.5083470344543457,-0.22505496442317963
1697853787644628000,9.7296279296875,9.742006301879883,1.5107412338256836,-0.23702596127986908
1697853787654724000,9.73972412109375,9.740809440612793,1.4987702369689941,-0.21547815203666687
1697853787664784000,9.749783935546875,9.743204116821289,1.501164436340332,-0.20350714027881622
1697853787674650000,9.759650146484375,9.743204116821289,1.5071499347686768,-0.19033902883529663
1697853787684687000,9.76968701171875,9.747992515563965,1.5083470344543457,-0.18076223134994507
1697853787694767000,9.77976708984375,9.742006301879883,1.4987702369689941,-0.17836803197860718
1697853787704973000,9.78997314453125,9.733627319335938,1.501164436340332,-0.1759738177061081
1697853787714738000,9.799738037109375,9.730035781860352,1.502361536026001,-0.18315643072128296
1697853787724713000,9.809712890625,9.731232643127441,1.4975731372833252,-0.18555063009262085
1697853787734960000,9.819960205078125,9.733627319335938,1.4975731372833252,-0.19393034279346466
1697853787744714000,9.8297138671875,9.732429504394531,1.50355863571167,-0.1951274424791336
1697853787754747000,9.839746826171876,9.750386238098145,1.5131354331970215,-0.19273324310779572
1697853787765015000,9.85001513671875,9.743204116821289,1.5131354331970215,-0.1999158412218094
1697853787774877000,9.859876953125,9.75278091430664,1.5047557353973389,-0.2082955539226532
1697853787784983000,9.869983154296875,9.732429504394531,1.5047557353973389,-0.2059013396501541
1697853787794973000,9.879972900390625,9.733627319335938,1.50355863571167,-0.21188685297966003
1697853787804786000,9.889785888671875,9.731232643127441,1.5047557353973389,-0.20949265360832214
1697853787814761000,9.899760986328126,9.737217903137207,1.5131354331970215,-0.2059013396501541
1697853787824676000,9.909676025390626,9.736021041870117,1.499967336654663,-0.1975216418504715
1697853787834691000,9.919691162109375,9.749189376831055,1.5083470344543457,-0.2059013396501541
1697853787844661000,9.929660888671876,9.757569313049316,1.4975731372833252,-0.20470423996448517
1697853787857469000,9.942468994140626,9.728838920593262,1.499967336654663,-0.20949265360832214
1697853787870207500,9.95520751953125,9.734824180603027,1.4856021404266357,-0.20111294090747833
1697853787884892000,9.969891845703126,9.730035781860352,1.4987702369689941,-0.19273324310779572
1697853787895452000,9.980451904296874,9.750386238098145,1.4987702369689941,-0.18315643072128296
1697853787904788000,9.9897880859375,9.730035781860352,1.5107412338256836,-0.18315643072128296
1697853787914629000,9.999629150390625,9.734824180603027,1.5107412338256836,-0.18914192914962769
1697853787924636000,10.009635986328124,9.730035781860352,1.5071499347686768,-0.18914192914962769
1697853787934607000,10.019607177734375,9.728838920593262,1.5131354331970215,-0.1951274424791336
1697853787944611000,10.029611083984374,9.71926212310791,1.50355863571167,-0.1975216418504715
1697853787954652000,10.03965185546875,9.732429504394531,1.502361536026001,-0.20231004059314728
1697853787964636000,10.049635986328125,9.725247383117676,1.501164436340332,-0.20350714027881622
1697853787974655000,10.059655029296875,9.733627319335938,1.5059528350830078,-0.19632454216480255
1697853787984732000,10.06973193359375,9.744400978088379,1.50355863571167,-0.1999158412218094
1697853787994759000,10.079759033203125,9.747992515563965,1.5119383335113525,-0.19153612852096558
1697853788004640000,10.089639892578125,9.749189376831055,1.5191209316253662,-0.18555063009262085
1697853788014612000,10.099612060546875,9.75397777557373,1.5071499347686768,-0.20350714027881622
1697853788024647000,10.10964697265625,9.75637149810791,1.502361536026001,-0.20470423996448517
1697853788034655000,10.119655029296876,9.747992515563965,1.4915876388549805,-0.19871874153614044
1697853788044715000,10.129715087890625,9.742006301879883,1.4891934394836426,-0.20470423996448517
1697853788054632000,10.1396318359375,9.733627319335938,1.4939818382263184,-0.20350714027881622
1697853788064667000,10.1496669921875,9.747992515563965,1.5059528350830078,-0.19632454216480255
1697853788074745000,10.1597451171875,9.731232643127441,1.502361536026001,-0.18914192914962769
1697853788084639000,10.169638916015625,9.72285270690918,1.5083470344543457,-0.18315643072128296
1697853788094653000,10.17965283203125,9.728838920593262,1.5071499347686768,-0.181959331035614
1697853788104645000,10.18964501953125,9.730035781860352,1.5059528350830078,-0.1975216418504715
1697853788114653000,10.19965283203125,9.744400978088379,1.5059528350830078,-0.1999158412218094
1697853788124601000,10.20960107421875,9.738415718078613,1.502361536026001,-0.19632454216480255
1697853788134667000,10.2196669921875,9.747992515563965,1.4987702369689941,-0.2082955539226532
1697853788144633000,10.229633056640624,9.757569313049316,1.5047557353973389,-0.19871874153614044
1697853788154671000,10.239671142578125,9.750386238098145,1.50355863571167,-0.1999158412218094
1697853788164634000,10.249634033203124,9.746794700622559,1.4987702369689941,-0.20111294090747833
1697853788174650000,10.259650146484375,9.75278091430664,1.4987702369689941,-0.20949265360832214
1697853788184635000,10.269634765625,9.75397777557373,1.4987702369689941,-0.2059013396501541
1697853788194640000,10.279639892578125,9.740809440612793,1.502361536026001,-0.20231004059314728
1697853788204617000,10.289616943359375,9.731232643127441,1.50355863571167,-0.20231004059314728
1697853788214778000,10.299778076171876,9.731232643127441,1.4963760375976562,-0.1999158412218094
1697853788224846000,10.30984619140625,9.72285270690918,1.501164436340332,-0.19393034279346466
1697853788234663000,10.319662841796875,9.72285270690918,1.499967336654663,-0.1975216418504715
1697853788244900000,10.329900146484375,9.728838920593262,1.5095441341400146,-0.20231004059314728
1697853788254656000,10.339656005859375,9.747992515563965,1.5155296325683594,-0.1975216418504715
1697853788264762000,10.34976220703125,9.75637149810791,1.5119383335113525,-0.18794482946395874
1697853788274632000,10.3596318359375,9.765948295593262,1.5083470344543457,-0.19393034279346466
1697853788284694000,10.369694091796875,9.749189376831055,1.5143325328826904,-0.19393034279346466
1697853788294682000,10.37968212890625,9.758766174316406,1.499967336654663,-0.19632454216480255
1697853788304607000,10.38960693359375,9.746794700622559,1.4975731372833252,-0.18914192914962769
1697853788314676000,10.399676025390624,9.745597839355469,1.4903905391693115,-0.20709845423698425
1697853788324607000,10.40960693359375,9.732429504394531,1.502361536026001,-0.20709845423698425
1697853788334654000,10.419654052734375,9.738415718078613,1.4951789379119873,-0.19871874153614044
1697853788344631000,10.429631103515625,9.72285270690918,1.5083470344543457,-0.19871874153614044
1697853788354635000,10.439635009765626,9.730035781860352,1.5155296325683594,-0.20350714027881622
1697853788364620000,10.4496201171875,9.72285270690918,1.5071499347686768,-0.19632454216480255
1697853788374665000,10.4596650390625,9.725247383117676,1.5071499347686768,-0.2106897532939911
1697853788384644000,10.46964404296875,9.730035781860352,1.5059528350830078,-0.20709845423698425
1697853788394626000,10.4796259765625,9.738415718078613,1.5047557353973389,-0.20231004059314728
1697853788404653000,10.489653076171875,9.744400978088379,1.4975731372833252,-0.19871874153614044
1697853788414616000,10.499615966796876,9.740809440612793,1.5071499347686768,-0.19632454216480255
1697853788424691000,10.50969091796875,9.746794700622559,1.5059528350830078,-0.18794482946395874
1697853788434663000,10.519662841796874,9.750386238098145,1.5071499347686768,-0.20111294090747833
1697853788444619000,10.529618896484376,9.747992515563965,1.5095441341400146,-0.19871874153614044
1697853788454639000,10.53963916015625,9.744400978088379,1.501164436340332,-0.19273324310779572
1697853788464713000,10.549712890625,9.733627319335938,1.4975731372833252,-0.20350714027881622
1697853788474621000,10.559620849609376,9.734824180603027,1.4987702369689941,-0.19393034279346466
1697853788484583000,10.5695830078125,9.724050521850586,1.4951789379119873,-0.19871874153614044
1697853788494640000,10.57964013671875,9.744400978088379,1.4951789379119873,-0.2106897532939911
1697853788504611000,10.589611083984375,9.745597839355469,1.50355863571167,-0.1999158412218094
1697853788514744000,10.599744140625,9.739612579345703,1.50355863571167,-0.19273324310779572
1697853788524764000,10.609763916015625,9.75397777557373,1.502361536026001,-0.19632454216480255
1697853788534839000,10.619839111328124,9.734824180603027,1.4951789379119873,-0.19153612852096558
1697853788544815000,10.629815185546875,9.751583099365234,1.5047557353973389,-0.19273324310779572
1697853788554682000,10.63968212890625,9.728838920593262,1.5095441341400146,-0.19273324310779572
1697853788564735000,10.64973486328125,9.733627319335938,1.5095441341400146,-0.20470423996448517
1697853788574972000,10.659971923828126,9.738415718078613,1.5071499347686768,-0.1999158412218094
1697853788584675000,10.669675048828125,9.749189376831055,1.5119383335113525,-0.20949265360832214
1697853788594763000,10.679762939453125,9.737217903137207,1.4975731372833252,-0.20350714027881622
1697853788604997000,10.6899970703125,9.739612579345703,1.5047557353973389,-0.20231004059314728
1697853788614813000,10.69981298828125,9.734824180603027,1.501164436340332,-0.20111294090747833
1697853788624745000,10.709744873046875,9.746794700622559,1.4963760375976562,-0.2082955539226532
1697853788635033000,10.720033203125,9.740809440612793,1.501164436340332,-0.19153612852096558
1697853788644794000,10.729794189453125,9.737217903137207,1.4903905391693115,-0.20231004059314728
1697853788654765000,10.73976513671875,9.733627319335938,1.501164436340332,-0.18794482946395874
1697853788664692000,10.74969189453125,9.72285270690918,1.5167267322540283,-0.1735796183347702
1697853788675044000,10.760044189453126,9.758766174316406,1.502361536026001,-0.20231004059314728
1697853788685047000,10.770047119140624,9.6989107131958,1.5191209316253662,-0.19871874153614044
1697853788694869000,10.779868896484375,9.763554573059082,1.5119383335113525,-0.21308395266532898
1697853788704924000,10.789923828125,9.736021041870117,1.5167267322540283,-0.2082955539226532
1697853788714816000,10.79981591796875,9.769539833068848,1.5071499347686768,-0.1975216418504715
1697853788724749000,10.8097490234375,9.737217903137207,1.501164436340332,-0.19393034279346466
1697853788735188000,10.82018798828125,9.758766174316406,1.5059528350830078,-0.1951274424791336
1697853788745056000,10.830055908203125,9.740809440612793,1.4879963397979736,-0.18914192914962769
1697853788755116000,10.840115966796875,9.749189376831055,1.5071499347686768,-0.19273324310779572
1697853788765103000,10.85010302734375,9.737217903137207,1.4844050407409668,-0.19871874153614044
1697853788775101000,10.860100830078125,9.758766174316406,1.5047557353973389,-0.1975216418504715
1697853788785160000,10.870159912109376,9.737217903137207,1.4903905391693115,-0.1999158412218094
1697853788795109000,10.880109130859376,9.740809440612793,1.5107412338256836,-0.21667525172233582
1697853788805121000,10.89012109375,9.737217903137207,1.5095441341400146,-0.2190694510936737
1697853788815100000,10.900099853515625,9.751583099365234,1.501164436340332,-0.2106897532939911
1697853788825101000,10.91010107421875,9.731232643127441,1.499967336654663,-0.21667525172233582
1697853788835044000,10.920044189453124,9.737217903137207,1.4927847385406494,-0.21428105235099792
1697853788844803000,10.929802978515625,9.724050521850586,1.501164436340332,-0.21308395266532898
1697853788855582500,10.94058251953125,9.730035781860352,1.5059528350830078,-0.1843535304069519
1697853788866991000,10.9519912109375,9.744400978088379,1.523909330368042,-0.17836803197860718
1697853788884699000,10.969698974609376,9.746794700622559,1.5143325328826904,-0.19153612852096558
1697853788894876000,10.9798759765625,9.734824180603027,1.5155296325683594,-0.21188685297966003
1697853788904638000,10.989637939453125,9.762357711791992,1.5095441341400146,-0.20470423996448517
1697853788914646000,10.99964599609375,9.75517463684082,1.4951789379119873,-0.20350714027881622
1697853788924596000,11.009595947265625,9.736021041870117,1.4915876388549805,-0.2106897532939911
1697853788934622000,11.0196220703125,9.747992515563965,1.50355863571167,-0.20231004059314728
1697853788944845000,11.029844970703126,9.746794700622559,1.4987702369689941,-0.20350714027881622
1697853788954708000,11.0397080078125,9.744400978088379,1.50355863571167,-0.19273324310779572
1697853788964853000,11.04985302734375,9.743204116821289,1.50355863571167,-0.19393034279346466
1697853788974757000,11.059757080078125,9.730035781860352,1.50355863571167,-0.1951274424791336
1697853788984735000,11.06973486328125,9.732429504394531,1.5047557353973389,-0.20350714027881622
1697853788994730000,11.07972998046875,9.733627319335938,1.5059528350830078,-0.2106897532939911
1697853789004705000,11.089705078125,9.730035781860352,1.499967336654663,-0.19871874153614044
1697853789014834000,11.099833984375,9.730035781860352,1.5131354331970215,-0.19033902883529663
1697853789024735000,11.10973486328125,9.746794700622559,1.501164436340332,-0.18794482946395874
1697853789034778000,11.119778076171874,9.739612579345703,1.5059528350830078,-0.2082955539226532
1697853789044872000,11.129871826171875,9.746794700622559,1.499967336654663,-0.17836803197860718
1697853789054681000,11.13968115234375,9.780313491821289,1.502361536026001,-0.1867477297782898
1697853789064645000,11.14964501953125,9.771934509277344,1.5083470344543457,-0.16639702022075653
1697853789074614000,11.159614013671876,9.78989028930664,1.50355863571167,-0.17238251864910126
1697853789084732000,11.16973193359375,9.77672290802002,1.5083470344543457,-0.1867477297782898
1697853789094732000,11.17973193359375,9.787496566772461,1.5095441341400146,-0.2082955539226532
1697853789104834000,11.189833984375,9.770736694335938,1.501164436340332,-0.2190694510936737
1697853789114735000,11.199735107421875,9.764751434326172,1.5059528350830078,-0.2322375625371933
1697853789124843000,11.209843017578125,9.742006301879883,1.50355863571167,-0.24181437492370605
1697853789134800000,11.2197998046875,9.751583099365234,1.5059528350830078,-0.24779987335205078
1697853789144619000,11.229618896484375,9.731232643127441,1.4939818382263184,-0.24779987335205078
1697853789154629000,11.239629150390625,9.726444244384766,1.4951789379119873,-0.2298433631658554
1697853789164630000,11.249630126953125,9.695320129394531,1.4844050407409668,-0.2106897532939911
1697853789174724000,11.25972412109375,9.704896926879883,1.4676456451416016,-0.19033902883529663
1697853789184724000,11.269723876953124,9.715670585632324,1.4688427448272705,-0.18076223134994507
1697853789194783000,11.279782958984375,9.743204116821289,1.4700398445129395,-0.15083470940589905
1697853789204773000,11.289773193359375,9.75278091430664,1.4652514457702637,-0.13287819921970367
1697853789214710000,11.2997099609375,9.785101890563965,1.4951789379119873,-0.1472434103488922
1697853789225035000,11.310034912109375,9.738415718078613,1.499967336654663,-0.1496376097202301
1697853789234862000,11.319862060546875,9.759963035583496,1.5047557353973389,-0.16879121959209442
1697853789245323000,11.330322998046874,9.701305389404297,1.5095441341400146,-0.1867477297782898
1697853789255325000,11.340324951171874,9.569623947143555,1.4975731372833252,-0.20231004059314728
1697853789265042000,11.3500419921875,9.645041465759277,1.5143325328826904,-0.21188685297966003
1697853789274753000,11.3597529296875,9.700108528137207,1.5502456426620483,-0.24779987335205078
1697853789284778000,11.369778076171874,9.804255485534668,1.581370234489441,-0.2298433631658554
1697853789294739000,11.379739013671875,9.850942611694336,1.5873557329177856,-0.22744916379451752
1697853789304788000,11.3897880859375,9.794678688049316,1.5047557353973389,-0.20949265360832214
1697853789314963000,11.399962890625,9.78869342803955,1.482010841369629,-0.1867477297782898
1697853789324762000,11.40976220703125,9.759963035583496,1.455674648284912,-0.17836803197860718
1697853789334995000,11.419994873046875,9.785101890563965,1.4748282432556152,-0.1843535304069519
1697853789344751000,11.429751220703125,9.77672290802002,1.4939818382263184,-0.1975216418504715
1697853789354778000,11.439778076171875,9.761159896850586,1.50355863571167,-0.2214636504650116
1697853789365079000,11.4500791015625,9.733627319335938,1.523909330368042,-0.22385786473751068
1697853789374780000,11.45977978515625,9.714473724365234,1.523909330368042,-0.2346317619085312
1697853789385081000,11.4700810546875,9.683348655700684,1.5119383335113525,-0.22385786473751068
1697853789394786000,11.4797861328125,9.676166534423828,1.5083470344543457,-0.20350714027881622
1697853789404772000,11.489772216796876,9.674968719482422,1.4891934394836426,-0.19033902883529663
1697853789415101000,11.500100830078125,9.68933391571045,1.482010841369629,-0.18315643072128296
1697853789425096000,11.510095947265626,9.701305389404297,1.4856021404266357,-0.17477671802043915
1697853789435096000,11.520095947265625,9.730035781860352,1.4987702369689941,-0.15682020783424377
1697853789445100000,11.53010009765625,9.768342971801758,1.5047557353973389,-0.16519992053508759
1697853789454804000,11.539803955078124,9.773131370544434,1.521515130996704,-0.1759738177061081
1697853789465092000,11.550092041015626,9.78869342803955,1.5275006294250488,-0.18076223134994507
1697853789474821000,11.559821044921875,9.794678688049316,1.522712230682373,-0.19871874153614044
1697853789485113000,11.570113037109374,9.781511306762695,1.5203180313110352,-0.2082955539226532
1697853789495634000,11.580634033203125,9.773131370544434,1.5107412338256836,-0.22385786473751068
1697853789504786000,11.589785888671875,9.747992515563965,1.5071499347686768,-0.22744916379451752
1697853789515094000,11.600093994140625,9.745597839355469,1.4915876388549805,-0.22505496442317963
1697853789525228000,11.61022802734375,9.743204116821289,1.4951789379119873,-0.2298433631658554
1697853789535328000,11.620327880859374,9.736021041870117,1.4915876388549805,-0.2082955539226532
1697853789545078000,11.630078125,9.731232643127441,1.5047557353973389,-0.2082955539226532
1697853789554770000,11.63977001953125,9.726444244384766,1.4879963397979736,-0.21667525172233582
1697853789565131000,11.650131103515625,9.731232643127441,1.4879963397979736,-0.21308395266532898
1697853789574846000,11.659845947265625,9.746794700622559,1.4844050407409668,-0.1999158412218094
1697853789585069000,11.670069091796876,9.743204116821289,1.4891934394836426,-0.20709845423698425
1697853789595095000,11.680094970703125,9.744400978088379,1.4915876388549805,-0.1975216418504715
1697853789605107000,11.69010693359375,9.742006301879883,1.5071499347686768,-0.1843535304069519
1697853789614972000,11.699971923828125,9.737217903137207,1.5131354331970215,-0.1867477297782898
1697853789624803000,11.709802978515626,9.740809440612793,1.5083470344543457,-0.18315643072128296
1697853789634789000,11.7197890625,9.745597839355469,1.5107412338256836,-0.18315643072128296
1697853789644774000,11.72977392578125,9.734824180603027,1.521515130996704,-0.1867477297782898
1697853789654810000,11.73981005859375,9.747992515563965,1.5107412338256836,-0.1843535304069519
1697853789664781000,11.749781005859376,9.750386238098145,1.5083470344543457,-0.18794482946395874
1697853789675076000,11.760076171875,9.750386238098145,1.5107412338256836,-0.19871874153614044
1697853789685040000,11.7700400390625,9.746794700622559,1.4975731372833252,-0.1951274424791336
1697853789694813000,11.77981298828125,9.739612579345703,1.4987702369689941,-0.20111294090747833
1697853789708904000,11.793904052734375,9.739612579345703,1.4987702369689941,-0.21547815203666687
1697853789724994000,11.809994140625,9.75278091430664,1.502361536026001,-0.21428105235099792
1697853789734653000,11.81965283203125,9.743204116821289,1.5047557353973389,-0.21188685297966003
1697853789744650000,11.82964990234375,9.749189376831055,1.4867992401123047,-0.2106897532939911
1697853789754621000,11.839620849609375,9.739612579345703,1.4915876388549805,-0.20949265360832214
1697853789764584000,11.849583984375,9.740809440612793,1.4951789379119873,-0.20949265360832214
1697853789774733000,11.859733154296874,9.740809440612793,1.502361536026001,-0.1975216418504715
1697853789784738000,11.869738037109375,9.742006301879883,1.5047557353973389,-0.19871874153614044
1697853789794739000,11.879739013671875,9.75517463684082,1.5071499347686768,-0.18555063009262085
1697853789804744000,11.889743896484376,9.751583099365234,1.5071499347686768,-0.1867477297782898
1697853789814865000,11.899864990234375,9.75397777557373,1.5107412338256836,-0.1975216418504715
1697853789824719000,11.909718994140626,9.734824180603027,1.5083470344543457,-0.18914192914962769
1697853789834717000,11.919717041015625,9.747992515563965,1.50355863571167,-0.19632454216480255
1697853789844722000,11.929721923828126,9.739612579345703,1.4963760375976562,-0.19273324310779572
1697853789854699000,11.939698974609374,9.736021041870117,1.501164436340332,-0.1951274424791336
1697853789864685000,11.94968505859375,9.746794700622559,1.501164436340332,-0.19393034279346466
1697853789875130000,11.960130126953125,9.749189376831055,1.499967336654663,-0.19871874153614044
1697853789884645000,11.96964501953125,9.746794700622559,1.5059528350830078,-0.20350714027881622
1697853789894826000,11.979825927734375,9.740809440612793,1.502361536026001,-0.18794482946395874
1697853789904605000,11.98960498046875,9.751583099365234,1.4963760375976562,-0.20709845423698425
1697853789914591000,11.999591064453124,9.747992515563965,1.502361536026001,-0.20709845423698425
1697853789924573000,12.009572998046876,9.732429504394531,1.4975731372833252,-0.20709845423698425
1697853789934793000,12.01979296875,9.738415718078613,1.5095441341400146,-0.20111294090747833
1697853789944728000,12.02972802734375,9.742006301879883,1.5095441341400146,-0.19632454216480255
1697853789954645000,12.03964501953125,9.738415718078613,1.5119383335113525,-0.19632454216480255
1697853789964584000,12.049583984375,9.727641105651855,1.501164436340332,-0.1951274424791336
1697853789974721000,12.059720947265625,9.736021041870117,1.5071499347686768,-0.19871874153614044
1697853789984658000,12.069657958984376,9.747992515563965,1.502361536026001,-0.19033902883529663
1697853789994705000,12.079704833984374,9.751583099365234,1.4987702369689941,-0.1951274424791336
1697853790004740000,12.089739990234374,9.762357711791992,1.5083470344543457,-0.19153612852096558
1697853790014815000,12.09981494140625,9.743204116821289,1.4987702369689941,-0.19153612852096558
1697853790024855000,12.10985498046875,9.749189376831055,1.4963760375976562,-0.19153612852096558
1697853790034752000,12.119751953125,9.757569313049316,1.4963760375976562,-0.1999158412218094
1697853790044820000,12.129820068359376,9.764751434326172,1.4927847385406494,-0.1975216418504715
1697853790054834000,12.139833984375,9.763554573059082,1.4975731372833252,-0.20470423996448517
1697853790064856000,12.14985595703125,9.75278091430664,1.4927847385406494,-0.21428105235099792
1697853790074851000,12.15985107421875,9.736021041870117,1.4987702369689941,-0.20231004059314728
1697853790084678000,12.169677978515624,9.715670585632324,1.4987702369689941,-0.19632454216480255
1697853790095086000,12.180086181640625,9.68813705444336,1.5095441341400146,-0.2059013396501541
1697853790105050000,12.190050048828125,9.709685325622559,1.5191209316253662,-0.20111294090747833
1697853790115053000,12.200052978515625,9.700108528137207,1.5322890281677246,-0.20111294090747833
1697853790124995000,12.2099951171875,9.718064308166504,1.533486247062683,-0.1975216418504715
1697853790135021000,12.22002099609375,9.744400978088379,1.5275006294250488,-0.20350714027881622
1697853790144853000,12.22985302734375,9.762357711791992,1.5083470344543457,-0.20231004059314728
1697853790154884000,12.239884033203126,9.768342971801758,1.5071499347686768,-0.19871874153614044
1697853790164701000,12.249700927734375,9.77791976928711,1.5107412338256836,-0.1951274424791336
1697853790174712000,12.259712158203126,9.803058624267578,1.5119383335113525,-0.18914192914962769
1697853790184677000,12.269677001953125,9.78989028930664,1.5143325328826904,-0.19632454216480255
1697853790194692000,12.279692138671875,9.80904483795166,1.4879963397979736,-0.19393034279346466
1697853790204828000,12.289827880859375,9.78989028930664,1.4736311435699463,-0.19153612852096558
1697853790214808000,12.29980810546875,9.785101890563965,1.43532395362854,-0.1951274424791336
1697853790224752000,12.309752197265626,9.740809440612793,1.4185645580291748,-0.20350714027881622
1697853790234689000,12.31968896484375,9.716867446899414,1.4173674583435059,-0.18914192914962769
1697853790244682000,12.329681884765625,9.679757118225098,1.43532395362854,-0.20231004059314728
1697853790254724000,12.33972412109375,9.676166534423828,1.4425065517425537,-0.1999158412218094
1697853790264754000,12.34975390625,9.68574333190918,1.4544775485992432,-0.20470423996448517
1697853790274671000,12.359671142578126,9.6989107131958,1.4664485454559326,-0.20709845423698425
1697853790284766000,12.369765869140625,9.720458984375,1.4748282432556152,-0.20231004059314728
1697853790294794000,12.3797939453125,9.750386238098145,1.501164436340332,-0.1975216418504715
1697853790304813000,12.38981298828125,9.787496566772461,1.522712230682373,-0.20709845423698425
1697853790314804000,12.399803955078125,9.801861763000488,1.5550340414047241,-0.21667525172233582
1697853790324763000,12.409762939453126,9.797073364257812,1.5753847360610962,-0.22505496442317963
1697853790335295000,12.420294921875,9.773131370544434,1.5741876363754272,-0.21308395266532898
1697853790344771000,12.42977099609375,9.751583099365234,1.5550340414047241,-0.19033902883529663
1697853790354825000,12.439824951171875,9.71926212310791,1.5550340414047241,-0.16639702022075653
1697853790364811000,12.44981103515625,9.701305389404297,1.5286977291107178,-0.18315643072128296
1697853790374803000,12.459802978515626,9.679757118225098,1.534683346748352,-0.17836803197860718
1697853790384981000,12.46998095703125,9.713275909423828,1.533486247062683,-0.17836803197860718
1697853790394784000,12.479783935546875,9.714473724365234,1.5394717454910278,-0.1759738177061081
1697853790404829000,12.489828857421875,9.759963035583496,1.558625340461731,-0.19393034279346466
1697853790414804000,12.499803955078125,9.758766174316406,1.5418659448623657,-0.19033902883529663
1697853790424788000,12.5097880859375,9.733627319335938,1.5442601442337036,-0.20350714027881622
1697853790434752000,12.519751953125,9.765948295593262,1.5155296325683594,-0.18794482946395874
1697853790444793000,12.52979296875,9.709685325622559,1.4903905391693115,-0.181959331035614
1697853790454825000,12.539824951171875,9.761159896850586,1.482010841369629,-0.1975216418504715
1697853790464797000,12.549796875,9.72165584564209,1.4640543460845947,-0.17956513166427612
1697853790474816000,12.55981591796875,9.764751434326172,1.482010841369629,-0.19273324310779572
1697853790485187000,12.57018701171875,9.747992515563965,1.48081374168396,-0.19632454216480255
1697853790494795000,12.579794921875,9.775525093078613,1.4963760375976562,-0.20231004059314728
1697853790504795000,12.589794921875,9.759963035583496,1.4879963397979736,-0.18914192914962769
1697853790514807000,12.59980712890625,9.746794700622559,1.5083470344543457,-0.20470423996448517
1697853790524776000,12.60977587890625,9.747992515563965,1.501164436340332,-0.20111294090747833
1697853790535055000,12.62005517578125,9.710882186889648,1.5263035297393799,-0.21428105235099792
1697853790544818000,12.62981787109375,9.728838920593262,1.522712230682373,-0.22864626348018646
1697853790554875000,12.639875,9.714473724365234,1.521515130996704,-0.21787235140800476
1697853790565018000,12.65001806640625,9.718064308166504,1.5275006294250488,-0.1867477297782898
1697853790574789000,12.6597890625,9.740809440612793,1.535880446434021,-0.2059013396501541
1697853790584770000,12.66977001953125,9.744400978088379,1.5071499347686768,-0.20231004059314728
1697853790595080000,12.680079833984376,9.710882186889648,1.53707754611969,-0.23343466222286224
1697853790605160000,12.690159912109374,9.7791166305542,1.478419542312622,-0.25737667083740234
1697853790615098000,12.70009814453125,9.799467086791992,1.4891934394836426,-0.22744916379451752
1697853790625047000,12.710047119140626,9.803058624267578,1.4700398445129395,-0.22625206410884857
1697853790635510000,12.720510009765626,9.743204116821289,1.4269442558288574,-0.21308395266532898
1697853790646266000,12.73126611328125,9.75637149810791,1.437718152999878,-0.19632454216480255
1697853790655152000,12.740152099609375,9.714473724365234,1.4688427448272705,-0.1975216418504715
1697853790665104000,12.750103759765626,9.684545516967773,1.4724340438842773,-0.17717093229293823
1697853790675101000,12.760100830078125,9.732429504394531,1.5131354331970215,-0.16639702022075653
1697853790685044000,12.7700439453125,9.75278091430664,1.534683346748352,-0.15682020783424377
1697853790694817000,12.779817138671875,9.718064308166504,1.534683346748352,-0.16160862147808075
1697853790704909000,12.789908935546874,9.800664901733398,1.5119383335113525,-0.16639702022075653
1697853790714863000,12.799863037109375,9.759963035583496,1.5275006294250488,-0.15801730751991272
1697853790725111000,12.810111083984374,9.807847023010254,1.5263035297393799,-0.18555063009262085
1697853790734870000,12.8198701171875,9.767146110534668,1.5286977291107178,-0.16998831927776337
1697853790744823000,12.829822998046875,9.77672290802002,1.53707754611969,-0.19033902883529663
1697853790754792000,12.8397919921875,9.68574333190918,1.5179238319396973,-0.1951274424791336
1697853790765065000,12.85006494140625,9.651026725769043,1.521515130996704,-0.21667525172233582
1697853790775082000,12.86008203125,9.591172218322754,1.4963760375976562,-0.27892449498176575
1697853790785046000,12.8700458984375,9.740809440612793,1.522712230682373,-0.3064578175544739
1697853790795034000,12.8800341796875,9.742006301879883,1.5179238319396973,-0.2777273952960968
1697853790805021000,12.89002099609375,9.87967300415039,1.5047557353973389,-0.2322375625371933
1697853790815017000,12.900016845703124,9.805453300476074,1.4975731372833252,-0.2190694510936737
1697853790824773000,12.909773193359374,9.797073364257812,1.4544775485992432,-0.15083470940589905
1697853790834950000,12.919949951171875,9.737217903137207,1.4113819599151611,-0.1628057211637497
1697853790844865000,12.929864990234375,9.710882186889648,1.4508862495422363,-0.15682020783424377
1697853790855067000,12.94006689453125,9.68933391571045,1.4676456451416016,-0.14365209639072418
1697853790864761000,12.949760986328124,9.704896926879883,1.5119383335113525,-0.1628057211637497
1697853790874690000,12.95968994140625,9.718064308166504,1.5418659448623657,-0.20231004059314728
1697853790885170000,12.970169921875,9.775525093078613,1.534683346748352,-0.20949265360832214
1697853790898358000,12.98335791015625,9.799467086791992,1.5322890281677246,-0.22625206410884857
1697853790914629000,12.999629150390625,9.77791976928711,1.4736311435699463,-0.21308395266532898
1697853790924739000,13.009739013671876,9.725247383117676,1.43532395362854,-0.23702596127986908
