time,seconds_elapsed,z,y,x
1700516426513638700,0.061638671875,-1.3556313498675823,0.358607101932168,0.2621492266308516
1700516426523648800,0.071648681640625,-0.6655752020418644,0.38229718959927556,0.16595993913784624
1700516426533658600,0.08165869140625,-0.8358300618946551,0.12719269384816287,-0.20205734416376797
1700516426543668700,0.091668701171875,1.1623895821809769,-0.22462445568293332,0.3495127450462431
1700516426553678800,0.101678955078125,1.9869898095309733,-0.501820079471916,-0.7333296184934676
1700516426563688700,0.111688720703125,-1.9190233577638864,-0.5188539241202176,0.4413941792774945
1700516426573698800,0.12169873046875,-0.9189654412209987,1.9558428299866615,-0.2295923802886158
1700516426583709700,0.131709716796875,1.1671826616764067,-0.8137363035082816,0.38038722779210654
1700516426593719800,0.1417197265625,1.4486983406215905,-1.0816806993491948,-0.6645116644635796
1700516426603729700,0.151729736328125,-1.4059984320580958,0.26304317979589104,0.2868713607594371
1700516426613739800,0.16173974609375,-1.0428653771340846,0.4705386598929763,0.1767882071442902
1700516426623749600,0.17174951171875,-0.7203513328462838,0.179948863132298,-0.21087869279459118
1700516426633759700,0.181759765625,0.979877882823348,-0.4250783467054367,0.399840445074439
1700516426643769900,0.191769775390625,2.316846033275127,-0.49216509302854533,-0.673860580632463
1700516426653779700,0.20177978515625,-1.7148294034302234,-0.5358905452474951,0.3373542878819629
1700516426663789800,0.211789794921875,-1.3673983600288628,1.790608136383444,-0.10759941050801426
1700516426673799700,0.221799560546875,0.9434610000520944,-0.32149580715596676,0.3131932582348585
1700516426683809800,0.231809814453125,1.7229548422187566,-1.3086281911522148,-0.4315068088503554
1700516426693819600,0.241819580078125,-0.8404016075938939,0.4192531476832926,0.14707991863358766
1700516426703829800,0.251829833984375,-1.2120540690600872,0.25916122379601,0.28042280567456035
1700516426713839900,0.26183984375,-1.097988713940978,0.16662088726460933,-0.026999760204367337
1700516426723849700,0.271849609375,0.7452461201280355,0.19945625828728078,0.24044786509554833
1700516426733859800,0.28185986328125,3.0683669958889483,-0.8752867507532238,-0.45266485728919503
1700516426743869700,0.29186962890625,-1.673984767344594,-0.6537915330067277,0.12838654327522964
1700516426753879800,0.3018798828125,-1.5443682073503733,1.7399308191999792,0.0780692915758118
1700516426763889700,0.3118896484375,0.6312532457232475,0.12477101965919137,0.11351502775996923
1700516426773899800,0.321899658203125,1.7052929287999867,-1.7842698732726274,-0.27562366176452485
1700516426783910000,0.331909912109375,-0.39937575017213817,0.3978803970478475,-0.1549490445734933
1700516426793919700,0.341919677734375,-1.1941618540167809,0.09444617015272379,0.3920239261046052
1700516426803929900,0.351929931640625,-1.2503630491882562,0.3038905923604965,-0.2314846603086218
1700516426813939700,0.361939697265625,0.32647008843719955,0.14201879931911826,0.22786738312691449
1700516426823949800,0.37194970703125,3.263743437516689,-0.6120093238100409,-0.45834641005694865
1700516426833960000,0.3819599609375,-1.1457079119712115,-0.7417825356706976,-0.12079203302562236
1700516426843969800,0.3919697265625,-2.0492098266005514,1.545922158794105,0.305902260976471
1700516426853980000,0.40197998046875,0.4317226070255041,0.5044600725866853,0.10010759344790131
1700516426863989800,0.41198974609375,2.050383546555042,-1.8414662169612943,-0.18705613785423336
1700516426874000000,0.421999755859375,-0.4081371487766504,0.26329905425310135,-0.17777005778849123
1700516426884009700,0.432009765625,-1.1927356206059456,0.2625143336161971,0.5021181125704198
1700516426894019800,0.442019775390625,-1.1361159077614544,0.07032032141685485,-0.10265724139809608
1700516426904030000,0.452030029296875,0.1881722093373537,0.2547013217777014,0.27070264504048974
1700516426914039800,0.462039794921875,3.328951530486345,-0.5465760437823832,-0.3726107120390981
1700516426924050000,0.4720498046875,-1.2051263156235217,-0.7722631602607667,-0.05870945166535675
1700516426934059800,0.482059814453125,-2.0510972477823493,1.4905710045807063,0.34133546647261825
1700516426944070000,0.49206982421875,0.3850748376190662,0.6768528212510049,0.12035769672896712
1700516426954079700,0.502079833984375,2.1014935560673473,-1.8947716906912624,-0.16476243644896893
1700516426964089900,0.51208984375,-0.36733459826707837,0.3052716714553535,-0.2503810474257916
1700516426974100000,0.522099853515625,-1.4562854347497225,0.2393542611725628,0.467222228821367
1700516426984109800,0.53210986328125,-0.9617015901416539,0.2373382451750338,-0.22603487047012893
1700516426994120000,0.542119873046875,0.1585135686546564,0.049532384932041165,0.2223722928419709
1700516427004129800,0.5521298828125,3.205312875857949,-0.35775618419125677,-0.49653439415395256
1700516427014140000,0.562139892578125,-1.085163134637475,-0.8556896314881741,-0.07034640570618211
1700516427024150000,0.57214990234375,-2.0832892063349484,1.3105647121727466,0.25547939347811044
1700516427034159900,0.582159912109375,0.4765905072778463,0.8620379776015877,-0.0558919830918312
1700516427044170000,0.592169921875,2.1095985365897416,-1.8264999723672866,-0.10841810647975653
1700516427054179800,0.602179931640625,-0.509193384718895,0.05896686049252748,-0.38470582164358347
1700516427064190000,0.61218994140625,-1.3930577019423245,0.26795652467012404,0.6031997021496296
1700516427074199800,0.62219970703125,-0.6730594203174114,0.4359789492957294,-0.38029008756056426
1700516427084210000,0.6322099609375,-0.23684300900399682,-0.21563918519467115,0.2782373879268765
1700516427094220000,0.642219970703125,3.2668063322186467,-0.21369828025996684,-0.525334993235208
1700516427104230000,0.65222998046875,-0.8462152623087167,-0.9387892088487744,-0.08079170227702706
1700516427114240000,0.662239990234375,-2.101967603319883,1.0935926709391175,0.28885749307535585
1700516427124249600,0.67224951171875,0.5177899481505155,1.09155561215356,-0.09422390570417045
1700516427134259700,0.682259765625,1.975516813880205,-1.8853120806895196,-0.010848799337819218
1700516427144269800,0.692269775390625,-0.4860638535439968,0.08967764057666062,-0.31376141351163384
1700516427154279700,0.70227978515625,-1.3018605967134236,0.1972913353383541,0.63106210706532
1700516427164289800,0.712289794921875,-0.6491846237331629,0.4364122261464596,-0.2571028664940968
1700516427174299100,0.722299072265625,-0.36871699253618717,-0.09898030645102263,0.2724131387528032
1700516427184309200,0.732309326171875,3.2134377301245927,-0.20475684891343116,-0.28205577717125413
1700516427194319400,0.7423193359375,-0.9461948089301585,-0.9224814865179359,-0.0817248549412936
1700516427204329200,0.7523291015625,-2.0382003568083045,1.1337247748412191,0.3973107439337298
1700516427214339300,0.76233935546875,0.6766869631648064,1.0645486550234258,-0.04615326388776302
1700516427224349200,0.77234912109375,1.9118705633997917,-1.9385908125430344,-0.03947353039551526
1700516427234359300,0.782359375,-0.7064829664915799,0.19315087453275917,-0.3009600188013166
1700516427244368400,0.792368408203125,-1.3123755609869956,0.29968130410239097,0.6343658247858286
1700516427254378200,0.802378173828125,-0.4567103332877159,0.29163272994235157,-0.24779314982444048
1700516427264388400,0.812388427734375,-0.04345101919174194,-0.12560893178805707,0.20824344892017543
1700516427274398200,0.822398193359375,2.9115047015726563,-0.16748846387937663,-0.3970949822911992
1700516427284408300,0.832408203125,-1.2150561734855174,-0.8556633280031383,0.03787679925598204
1700516427294418400,0.84241845703125,-1.669400362163782,1.2068111999705433,0.18122162301447242
1700516427304428300,0.85242822265625,0.6890583689600229,0.8434602645121514,0.03864931799843907
1700516427314438400,0.8624384765625,1.9499504109472034,-1.8123937056034802,-0.14842797224167734
1700516427324448300,0.8724482421875,-0.8990238924324512,0.16027341793403027,-0.2667296862889081
1700516427334458400,0.882458251953125,-1.2060329090744257,0.37581805671304463,0.45054859578758477
1700516427344468500,0.892468505859375,-0.35409167033433914,0.15434432014599442,-0.2019583407687023
1700516427354478300,0.902478271484375,-0.020175357544422148,-0.13992051186561583,0.21908753555025903
1700516427364488400,0.912488525390625,2.7791280292153355,-0.1759631544969976,-0.46511626951806245
1700516427374498300,0.922498291015625,-1.3146739010572432,-0.8744996920287609,0.032669184142909945
1700516427384508400,0.93250830078125,-1.583392057749629,1.28797776344195,0.11668993146903812
1700516427394518300,0.942518310546875,0.6892454159647226,0.7672853718481958,0.06448500285949557
1700516427404528400,0.9525283203125,1.9843238051921128,-1.8184664496459066,-0.15386241838056594
1700516427414538500,0.96253857421875,-0.9967436774283647,0.19178426235467194,-0.18224260009266435
1700516427424548400,0.97254833984375,-1.1444243019014597,0.2999398089081049,0.4099494588956237
1700516427434558500,0.982558349609375,-0.29216859038472176,0.11289514229595661,-0.1147637491794303
1700516427444568000,0.992568115234375,-0.09791384626328944,0.041785716328024865,0.21161606715843082
1700516427454578200,1.002578125,2.662517665788531,-0.13818565089702606,-0.39062710145134477
1700516427464588300,1.01258837890625,-1.259782034918666,-0.9624588382497429,0.05396233020350337
1700516427474598100,1.02259814453125,-1.4364000000625847,1.315638654436171,0.11141206413134933
1700516427484608300,1.032608154296875,0.6382838750123977,0.8702376506701112,0.06577975537776946
1700516427494618000,1.0426181640625,1.873698945915699,-1.8386220795765518,-0.11462390231732278
1700516427504628200,1.052628173828125,-1.0061550643742083,0.18137787302210925,-0.22285525405332446
1700516427514638000,1.06263818359375,-1.0137971035599709,0.3669171035073697,0.35751729740146543
1700516427524648200,1.072648193359375,-0.3373451181948185,0.09915960854068398,-0.16835841511432081
1700516427534658300,1.082658203125,-0.22070728223919867,0.0499491490393877,0.1952573452927172
1700516427544668200,1.092668212890625,2.7501848433256146,-0.19038813182115555,-0.4346643230332061
1700516427554678300,1.10267822265625,-1.1924088728696107,-0.8781184670478105,0.006624021249637007
1700516427564688100,1.112688232421875,-1.545498672685027,1.1881781034320593,0.16213621613122522
1700516427574698200,1.1226982421875,0.6104290688812732,0.9215297387510537,0.00040273558199405667
1700516427584708000,1.1327080078125,1.9448247384965418,-1.8109880765892563,-0.06191818457879126
1700516427594718200,1.14271826171875,-1.0116542463123799,0.11430340165868401,-0.24345132122784852
1700516427604728300,1.152728271484375,-1.087395423734188,0.35250746988281606,0.42731648102104663
1700516427614738200,1.16273828125,-0.24616554862260817,0.1245141222886741,-0.1879304730033502
1700516427624748300,1.172748291015625,-0.26069734732210637,-0.0027095512196421622,0.22783413844443856
1700516427634758100,1.182758056640625,2.822690692088008,-0.18188421510905026,-0.46670598639491945
1700516427644768300,1.192768310546875,-1.1812848367869853,-0.8642632524356245,0.0154899031419307
1700516427654778400,1.2027783203125,-1.6151543927133083,1.1529397629208862,0.21569869682956486
1700516427664788200,1.212788330078125,0.7318366034567355,0.9268063639797269,-0.042415794392488895
1700516427674798300,1.22279833984375,1.9828747754275797,-1.9001061835870146,-0.02577157011628151
1700516427684808200,1.23280810546875,-1.1123223597198724,0.170206052275002,-0.261736261915788
1700516427694818300,1.242818359375,-1.2062129418164491,0.32974370328038927,0.47648134781494733
1700516427704828200,1.252828125,-0.24745617295503614,0.24081030519977212,-0.17791936659868807
1700516427714838300,1.26283837890625,-0.09938041168451309,-0.19361790752261876,0.29241496636122466
1700516427724848400,1.272848388671875,2.6854151417732237,-0.09806026899665593,-0.5226519281636923
1700516427734858200,1.282858154296875,-1.1892279047459364,-0.817296041816473,0.10253288436606525
1700516427744867300,1.292867431640625,-1.614113943749666,1.1312024167567492,0.1463647561015561
1700516427754877400,1.30287744140625,0.628911651033163,0.8483053664557635,-0.030759916455484926
1700516427764887300,1.31288720703125,2.2833459147334096,-1.686925059068948,-0.07543477835375816
1700516427774897400,1.3228974609375,-1.1006862824618815,0.06571136631667614,-0.23839330718591809
1700516427784907300,1.3329072265625,-1.3571785793095825,0.31236396780386566,0.4766192219156772
1700516427794917400,1.34291748046875,-0.1439741711705923,0.3660175243191421,-0.21918471231441944
1700516427804927200,1.35292724609375,-0.031499884635210036,-0.26370164370462296,0.2656204829379916
1700516427814937300,1.362937255859375,2.806335769614577,-0.07191869652420282,-0.5533259199013933
1700516427824947500,1.372947509765625,-1.3236036419659851,-0.8692620836362243,0.12792736479826272
1700516427834957300,1.382957275390625,-1.7176415382415056,1.1620179723896085,0.12478102959655224
1700516427844967400,1.392967529296875,0.6384919648051262,0.9090545803204179,0.005679470408521592
1700516427854977300,1.402977294921875,2.2408540959626433,-1.8215723067067562,-0.11312949904110282
1700516427864987400,1.4129873046875,-1.0336562347620726,0.12828019682392477,-0.20525855135787277
1700516427874997500,1.42299755859375,-1.4907435846686363,0.30010829734280703,0.453700739675574
1700516427885007400,1.43300732421875,-0.23253800528645513,0.3215069130718708,-0.17499902217257768
1700516427895017500,1.443017578125,0.034682021802663804,-0.2138432416886091,0.23942129852678626
1700516427905027300,1.45302734375,2.784996628987789,-0.05727978418841958,-0.5137685106147081
1700516427915037200,1.463037109375,-1.245741819128394,-0.8789021647714078,0.12805511936377734
1700516427925047000,1.473047119140625,-1.7690350408703088,1.0520629751987756,0.16970690711382774
1700516427935057200,1.48305712890625,0.6316922216624021,0.985741514159739,-0.028918599437735972
1700516427945067300,1.4930673828125,2.234079487261176,-1.7389580286450683,-0.07093242543321103
1700516427955077000,1.5030771484375,-0.8727250835716723,0.04882642861977219,-0.2647588246073574
1700516427965087200,1.513087158203125,-1.4934966827690601,0.24187837282270191,0.4876099139422178
1700516427975097000,1.52309716796875,-0.14709025736451148,0.33585984807312486,-0.25501111837923524
1700516427985107200,1.533107177734375,-0.1785252600699663,-0.12476356700509786,0.26136304468922317
1700516427995117300,1.543117431640625,2.837785969889164,-0.02205824868157506,-0.5013118742214515
1700516428005127200,1.553127197265625,-1.0267951168209313,-0.9494371518522501,0.03648658700659871
1700516428015137300,1.56313720703125,-1.9465917481690644,0.9390987131893634,0.25291096776220945
1700516428025147100,1.573147216796875,0.6037976680427789,1.2143215756006538,-0.09231829127855598
1700516428035157200,1.5831572265625,2.1374095035791396,-1.8722781193323432,0.0017058175371959805
1700516428045167000,1.5931669921875,-0.6975947266370057,0.08521525434032082,-0.33983043220452963
1700516428055177200,1.60317724609375,-1.6138929944753646,0.23870514961406586,0.5006606803037226
1700516428065187300,1.613187255859375,-0.14074293416440486,0.314521145837754,-0.24905626509543508
1700516428075197200,1.623197265625,-0.2718663915902376,-0.053467532423883676,0.22241415922231972
1700516428085206300,1.633206298828125,2.9215941339105367,-0.07402282919660211,-0.3922359979527071
1700516428095217200,1.643217041015625,-0.7647036847919225,-0.9474943472214042,-0.07494345117285847
1700516428105226200,1.653226318359375,-2.1797037539511916,0.9111977298289536,0.33798816533870996
1700516428115236400,1.663236328125,0.5945160449564456,1.409147105347365,-0.14970347207020968
1700516428125246200,1.67324609375,2.1346786173105237,-2.052942875649035,0.10180822335332632
1700516428135256300,1.68325634765625,-0.5707189897835254,0.07658785737901926,-0.44033371043913067
1700516428145266200,1.69326611328125,-1.626764166486263,0.3200095141209662,0.5385565495863557
1700516428155276300,1.7032763671875,-0.24591361968815326,0.3268362914010882,-0.1993915955532342
1700516428165286400,1.713286376953125,-0.14103461058735847,-0.2677240310885012,0.258047344269976
1700516428175296800,1.723296875,2.7375492336362597,-0.0016458675108850002,-0.5215661422209814
1700516428185307000,1.733306884765625,-0.7722177136838436,-0.7843687547266482,0.02626782920062542
1700516428195316700,1.743316650390625,-1.8734762430757284,0.6820305161498487,0.2484529654400423
1700516428205326800,1.753326904296875,0.3131178549110889,1.393440856041014,-0.1882323054941371
1700516428215336700,1.763336669921875,2.283890104612708,-1.805567220584303,0.1020693585075438
1700516428225346800,1.773346923828125,-0.5194382998794317,-0.027845892172306774,-0.4187401931924745
1700516428235357000,1.78335693359375,-1.752635694733262,0.23198197883889077,0.5317176069444045
1700516428245366800,1.79336669921875,-0.13586276090741156,0.3774355749122798,-0.326800854761526
1700516428255377000,1.803376953125,-0.2507400169312954,-0.13877411830946804,0.28248130910694597
1700516428265386800,1.81338671875,2.6511481305122375,0.027951398373395202,-0.43488896210193634
1700516428275396900,1.82339697265625,-0.5745914473026991,-0.9687842418789863,-0.04324570587798953
1700516428285406700,1.83340673828125,-2.0791882007569074,0.7339888130545615,0.3132874393243342
1700516428295416800,1.843416748046875,0.34468262147605416,1.5113545571513474,-0.16929383280090987
1700516428305427000,1.853427001953125,2.149059609362483,-1.8599312634564935,0.10723397472910583
1700516428315436800,1.863436767578125,-0.35994507253766056,-0.006070405954867601,-0.43581875376533713
1700516428325447000,1.873447021484375,-1.7733032197088001,0.24921456092968583,0.5584552090812475
1700516428335456800,1.883456787109375,-0.04330371967554092,0.3721599725969136,-0.3219099409148097
1700516428345467000,1.893466796875,-0.25353110895454883,-0.20532529645115136,0.2738879240131005
1700516428355476700,1.903476806640625,2.4699790779352186,0.13408040753528475,-0.47307961308006197
1700516428365486800,1.91348681640625,-0.4154050939530134,-0.8725041342973708,0.001077346907928586
1700516428375497000,1.9234970703125,-1.9318857619464396,0.40905148714259265,0.26320677285976707
1700516428385506800,1.9335068359375,0.12643559187054634,1.652013904685527,-0.24085914931017904
1700516428395517000,1.943516845703125,2.0191104564130304,-1.5848850727863608,0.16033048188351093
1700516428405526800,1.95352685546875,-0.06558510958850383,-0.27768808348104357,-0.463791523720324
1700516428415537000,1.963536865234375,-1.8423551286250353,0.21554931495413182,0.5485056236054748
1700516428425547000,1.973547119140625,0.038747371545434,0.3731668115518987,-0.40981830679662523
1700516428435555800,1.983555908203125,-0.5033563491284847,-0.1763398788549006,0.30627598965968933
1700516428445566000,1.99356591796875,2.3002210616886614,0.2108383607842028,-0.2976301437262446
1700516428455576000,2.003576171875,0.4196130670368671,-1.1210106930881738,-0.17343663169406354
1700516428465586000,2.0135859375,-2.3588889392346144,0.3567015605717897,0.386474219555594
1700516428475596000,2.023595947265625,0.0747580116033554,1.817218641541898,-0.2531514254545793
1700516428485606000,2.03360595703125,1.8229595232814548,-1.6185064796201885,0.30663967187292873
1700516428495616000,2.043615966796875,0.3293126183867454,-0.46678179157748817,-0.569193606847152
1700516428505625900,2.0536259765625,-1.7666554522573947,0.3744254333108663,0.5596413135932758
1700516428515636000,2.063635986328125,-0.2648246563851833,0.18400325308963655,-0.2666237416964024
1700516428525646000,2.07364599609375,-0.5351625232338905,-0.03682429452836513,0.23974892304595558
1700516428535656000,2.083656005859375,2.0495634623438117,0.14904446017220616,-0.26194106377288695
1700516428545666000,2.093666015625,0.6763572928190231,-0.9083676209695637,-0.18362714978624134
1700516428555676000,2.103676025390625,-2.074381092736125,0.02740720849409699,0.3325799130870029
1700516428565686000,2.11368603515625,-0.28426000921726224,1.8951959074527025,-0.2686300034848973
1700516428575696000,2.12369580078125,1.6360311765253543,-1.1722868529476225,0.26569668997935947
1700516428585706000,2.1337060546875,0.7199532734394073,-0.8096151319250464,-0.550350849613361
1700516428595716000,2.143716064453125,-1.8404817359685897,0.537530129148066,0.49725200437139716
1700516428605726000,2.153725830078125,-0.3863713071703911,0.2543574767760932,-0.3283214153923094
1700516428615736000,2.163736083984375,-0.5467284578651189,-0.24206235108748078,0.2634630857083946
1700516428625746000,2.173745849609375,1.7199667663186788,0.4270511080831289,-0.2169897960860282
1700516428635756000,2.183756103515625,1.2751052762567996,-1.0457025002561509,-0.29184246370289474
1700516428645766000,2.193765869140625,-2.336948910105228,-0.059444707137346266,0.37050058801732955
1700516428655775700,2.203775634765625,-0.4611930316597223,2.0280176932290197,-0.26286990558821705
1700516428665785900,2.213785888671875,1.605264866861701,-1.09057624572739,0.2740360272468999
1700516428675795700,2.223795654296875,1.111157407593727,-1.0599883613705634,-0.5502432245204225
1700516428685805800,2.233805908203125,-1.9315783034324645,0.6083868955291807,0.4718967234384268
1700516428695815700,2.243815673828125,-0.4984726687401533,0.14625965175926683,-0.18772819189690051
1700516428705825800,2.25382568359375,-0.39545711542367934,-0.2993180237479508,0.21273228477202355
1700516428715836000,2.2638359375,1.5311930839568375,0.5022961725510656,-0.18370551225207746
1700516428725845800,2.273845703125,1.5359914241492747,-0.9558931961238384,-0.298731017640233
1700516428735855900,2.28385595703125,-2.2926526722609997,-0.2504194066748023,0.3451516637599096
1700516428745865700,2.29386572265625,-0.519338931158185,1.9970799725212156,-0.2112763503426686
1700516428755875800,2.303875732421875,1.4888684384465216,-0.7352372056804597,0.28279775464497503
1700516428765886000,2.313885986328125,1.305215167838335,-1.47960259745121,-0.4869298957888037
1700516428775895800,2.323895751953125,-1.7907202184557913,0.7407165138743818,0.4114765223324299
1700516428785906000,2.333906005859375,-0.6809568955689669,0.13241291271448136,-0.05754442647397518
1700516428795915000,2.3439150390625,-0.3854156138807535,-0.21275296223387122,0.1664559424938634
1700516428805926000,2.35392578125,1.254621291154623,0.2164895184136927,-0.038737799999490376
1700516428815935000,2.36393505859375,1.651447941365838,-0.6169551096491516,-0.3532217921646312
1700516428825944800,2.37394482421875,-2.06258427195847,-0.5062982477992772,0.358213389906846
1700516428835955000,2.383954833984375,-0.8147954571723938,1.8170207808822392,-0.1689896622225642
1700516428845964800,2.39396484375,1.2394815896898508,-0.2632845873363316,0.25926263834387064
1700516428855975000,2.403974853515625,1.6520955916196107,-1.7067421046949922,-0.4029496631361544
1700516428865985000,2.413985107421875,-1.672152875742316,0.7052795820511877,0.26906064998712387
1700516428875995000,2.423994873046875,-0.8861562275528907,0.2059162480816245,0.029630145240575074
1700516428886005000,2.4340048828125,-0.24966683474183082,-0.35089623529389496,0.12013524961732328
1700516428896014800,2.444014892578125,0.9109744424670934,0.5815269456543029,-0.057753539180010555
1700516428906025000,2.45402490234375,2.052914526337385,-0.7022087963037192,-0.39837585241459306
1700516428916034800,2.464034912109375,-2.0144372039049863,-0.5676615019090473,0.3118894456272945
1700516428926045000,2.474044921875,-0.9045347648084163,1.697991081354022,-0.1038259198512882
1700516428936055000,2.484054931640625,1.0441355432003736,0.1542820685647428,0.14233254144340754
1700516428946065000,2.49406494140625,1.7519868754357097,-1.93088710629791,-0.33211488939113915
1700516428956075000,2.504074951171875,-1.4184399804800747,0.7310387310773134,0.11580967803578823
1700516428966084900,2.5140849609375,-1.0497469533413648,0.14450535543784498,0.12613109249863771
1700516428976095000,2.524094970703125,-0.2051262667477131,-0.19669468461945652,0.023470891958475112
1700516428986105000,2.53410498046875,0.6085130061268806,0.4292370738200843,-0.014385302900895475
1700516428996115000,2.544114990234375,2.319426112896204,-0.4441188550010323,-0.41418603701945395
1700516429006125000,2.554125,-1.772294919449091,-0.7583974242545664,0.2289610601151362
1700516429016135000,2.564135009765625,-1.1567799256056546,1.3394943079285322,0.031163638418167827
1700516429026145000,2.57414501953125,0.9079565559506416,0.7349215638600289,0.01965272190980613
1700516429036155000,2.58415478515625,1.7939280745863913,-2.1349550961643455,-0.1857871408317238
1700516429046165000,2.5941650390625,-1.1759183413177727,0.5360812455140054,-0.014701565775834024
1700516429056175000,2.604175048828125,-1.1914426581859587,0.23650091756805777,0.29396288992296904
1700516429066185000,2.61418505859375,-0.136218150216341,-0.1059942768663168,-0.11991006255932152
1700516429076195000,2.624195068359375,0.23465514357089995,0.1865244421303272,0.13882573889885097
1700516429086205000,2.634204833984375,2.4187153391659257,-0.1004234909966588,-0.43206605016831306
1700516429096215000,2.644215087890625,-1.3165461246699095,-0.9370885424107313,0.16857417675685135
1700516429106225000,2.654224853515625,-1.4283248301565645,1.0626479359686374,0.14601579653341323
1700516429116235000,2.664235107421875,0.6891635829001664,1.1847225561507047,-0.07615753967035561
1700516429126244900,2.674244873046875,1.920890905201435,-2.1528752221278844,-0.05730269013997167
1700516429136254700,2.684254638671875,-0.8240197971135378,0.40319370102509855,-0.18083386580590158
1700516429146264800,2.694264892578125,-1.424849263000488,0.24913360464796422,0.3996391503486782
1700516429156274700,2.704274658203125,-0.06995324167013169,-0.033078239867836236,-0.23735263902656734
1700516429166284800,2.714284912109375,-0.04837503159046173,0.2047552414782345,0.19137699672803282
1700516429176298500,2.724298583984375,2.5634113948702812,0.01710106466561556,-0.418132473090291
1700516429186308600,2.73430859375,-0.9045902943879366,-1.0337651019640266,0.054813759401068085
1700516429196318700,2.744318603515625,-1.74116971334517,0.9145571232594549,0.25501988620758054
1700516429206328600,2.75432861328125,0.4872574472427368,1.5148371385701,-0.20169724214710294
1700516429216338700,2.764338623046875,1.950619103989005,-2.1933879959106446,0.061008010931313035
1700516429226348500,2.7743486328125,-0.46462943584918975,0.215750390484184,-0.3263297666510567
1700516429236358700,2.784358642578125,-1.6651339368909597,0.35756110001057384,0.4785336041696369
1700516429246368800,2.79436865234375,-0.14750935955941677,0.05029080208390951,-0.31885022455062717
1700516429256378600,2.804378662109375,-0.12798925105333328,0.05609086666479707,0.23481559482961892
1700516429266388700,2.814388671875,2.4594693743586538,0.1422081844113767,-0.4363692637875676
1700516429276398600,2.824398681640625,-0.5075549698621035,-0.9743274090893566,-0.0006745382606983184
1700516429286408700,2.83440869140625,-1.8889555517584085,0.53086000373438,0.3342297261206433
1700516429296418600,2.84441845703125,0.3141840228378773,1.8238756152130662,-0.3101092476796359
1700516429306428700,2.8544287109375,1.9510802917599677,-2.052581056599319,0.15182736888900397
1700516429316438800,2.864438720703125,-0.11455050828754901,-0.08770984763503074,-0.4209161855246871
1700516429326448600,2.87444873046875,-1.7511726364433764,0.39892289183810353,0.5372486453255638
1700516429336458800,2.884458740234375,-0.15593231998980045,0.08206833461672067,-0.3588075929403305
1700516429346468600,2.894468505859375,-0.21765373988747597,-0.02994315671250224,0.29703137411549685
1700516429356478700,2.904478759765625,2.23224408852756,0.19984160434305667,-0.4096650889962911
1700516429366488600,2.914488525390625,-0.11037117677628994,-0.9715925772979855,-0.06078826723340899
1700516429376498700,2.924498779296875,-1.866954732352495,0.3125891548618674,0.3862124633468687
1700516429386508800,2.9345087890625,0.04920271458625793,1.8319528309457003,-0.2820258204244077
1700516429396518700,2.9445185546875,1.778371024492383,-1.591480087137222,0.22501754665374754
1700516429406528800,2.95452880859375,0.219425425735116,-0.4251851680807769,-0.47513106571715324
1700516429416538600,2.96453857421875,-1.7520365597963332,0.47983168115615843,0.5804525578884407
1700516429426548700,2.974548828125,-0.2368582065731287,0.16175839579477905,-0.4310548638317734
1700516429436558800,2.984558837890625,-0.2899433155506849,-0.13059767998605964,0.34547289507091045
1700516429446568700,2.994568603515625,1.9353619136244058,0.36604002841189504,-0.34273623664863406
1700516429456578800,3.004578857421875,0.5424211160600185,-1.0717603399679063,-0.14063202113583684
1700516429466588700,3.014588623046875,-2.014545924976468,0.12259557531625032,0.3477545032020658
1700516429476598800,3.024598876953125,-0.20234686516225336,1.9701326366238294,-0.3169358788292855
1700516429486608600,3.034608642578125,1.6049539012163876,-1.3262708153486251,0.26100064111761745
1700516429496618800,3.04461865234375,0.7148813770025968,-0.820685538124293,-0.47922070965096353
1700516429506628900,3.05462890625,-1.8113403971582651,0.5803660851813852,0.49103353171534836
1700516429516638700,3.064638671875,-0.3692904085099697,0.11067059811428188,-0.3147450907867402
1700516429526648800,3.07464892578125,-0.30779812119305133,-0.3084884415447712,0.3136944126900285
1700516429536658700,3.08465869140625,1.6346622262597084,0.5855079781144857,-0.26550803553946317
1700516429546668800,3.094668701171875,1.0542278981477022,-1.0618532784596084,-0.251783059710823
1700516429556678700,3.1046787109375,-2.146098421469331,-0.10485752792134881,0.3887237155154347
1700516429566688800,3.114688720703125,-0.34385961465537546,1.9596264401786028,-0.3060951897326857
1700516429576699000,3.124698974609375,1.4925965190589428,-0.8903852434247732,0.2784682375406846
1700516429586708700,3.134708740234375,1.0484978300631045,-1.2422986929371953,-0.4605381844801828
1700516429596718800,3.14471875,-1.7679238647580147,0.7379812436915933,0.39951669301278886
1700516429606728700,3.154728759765625,-0.5132528892427682,0.050013738708198065,-0.135141351297684
1700516429616738800,3.16473876953125,-0.2721457930535078,-0.40533378179371354,0.256843009981513
1700516429626749000,3.1747490234375,1.2692816846698523,0.7836815031148493,-0.1449820695715025
1700516429636758800,3.1847587890625,1.6028408545851707,-1.0854242697916925,-0.301259257476218
1700516429646769000,3.194768798828125,-2.2477134603381157,-0.2395471533961594,0.39605420453399415
1700516429656778500,3.204778564453125,-0.5622381616860628,1.9408114112019539,-0.1816360125016421
1700516429666788600,3.21478857421875,1.4131927274763583,-0.5752826444372534,0.2538388231968507
1700516429676798500,3.224798583984375,1.3054764491230249,-1.637393843180686,-0.41911037821173663
1700516429686808600,3.23480859375,-1.765871608403325,0.9082245592370629,0.29911731354407967
1700516429696818700,3.244818603515625,-0.7135948443233966,0.052559623798727986,-0.012744805684871971
1700516429706828500,3.25482861328125,-0.19437340206503867,-0.4052864355206489,0.1757559414871037
1700516429716838700,3.264838623046875,1.1715133843570946,0.658399319063127,-0.12474340099990368
1700516429726848500,3.2748486328125,1.7832418453991412,-0.885767812757194,-0.37318211871888485
1700516429736858600,3.284858642578125,-2.2223066318809983,-0.38811142883598804,0.3746520451409742
1700516429746868700,3.29486865234375,-0.6944733797460794,1.905197807637602,-0.19829897801093757
1700516429756878600,3.304878662109375,1.4259025714457034,-0.34006285272091624,0.22634558038711547
1700516429766888700,3.314888671875,1.4230693938463925,-1.8167540927700698,-0.4071165004920214
1700516429776898600,3.324898681640625,-1.8267226752072572,0.9055046327538788,0.2658385096028447
1700516429786908700,3.33490869140625,-0.7827478755265473,0.17017331904917954,0.0512837586440146
1700516429796918500,3.34491845703125,-0.09502163195312023,-0.31316476279273625,0.06358341437727212
1700516429806928600,3.3549287109375,1.1403349867612123,0.28411490165814757,0.039007958710379896
1700516429816938800,3.364938720703125,1.6586252856492996,-0.5457274641290307,-0.4994995275698602
1700516429826948600,3.374948486328125,-2.0839321804136035,-0.4779784545049071,0.4324572049103677
1700516429836959500,3.38495947265625,-0.7855600103378295,1.7819592582426964,-0.21140158415753393
1700516429846969600,3.394969482421875,1.3460410992234944,-0.2189474329598248,0.2068465146690607
1700516429856979700,3.404979736328125,1.6253718353450297,-1.7478176269270478,-0.3608701149607077
1700516429866989600,3.414989501953125,-1.734487459102273,0.7658763818331062,0.23860263908766208
1700516429876999700,3.424999755859375,-0.9421475793659686,0.19607991372197867,0.07015018901433795
1700516429887009500,3.435009521484375,-0.058466802015900605,-0.2768830507084727,0.023179398198612033
1700516429897019600,3.44501953125,0.9262526756197214,0.411720560221374,0.1109400627054274
1700516429907029500,3.455029541015625,2.0552479377210138,-0.6508512417711317,-0.5006227229135111
1700516429917039600,3.46503955078125,-1.9970564455151556,-0.5345724483862518,0.31229784376509484
1700516429927049700,3.4750498046875,-1.1090203955650328,1.7067980726659298,-0.016907149528712032
1700516429937059600,3.4850595703125,1.0747773497015236,0.05514145698547363,0.0930792291810736
1700516429947069700,3.495069580078125,1.830152649655938,-1.813133564185351,-0.2510525900118053
1700516429957079600,3.50507958984375,-1.2805495131373406,0.6157287827245891,0.014895663575828074
1700516429967089700,3.515089599609375,-1.305589846369624,0.1684251602075994,0.3897764029061421
1700516429977099800,3.525099853515625,-0.4218798429250717,0.15094824796691536,-0.1910123281341046
1700516429987109600,3.535109619140625,0.6538017621397971,0.03985460213497281,0.2508325175203383
1700516429997119700,3.54511962890625,2.693448810625076,-0.40918008195832367,-0.5007962528495118
1700516430007129600,3.555129638671875,-1.3885463619977234,-0.790091954679042,0.18682769939322025
1700516430017139700,3.5651396484375,-1.6961995217621326,1.3666336592666803,0.19189020694717765
1700516430027149600,3.575149658203125,0.5386895283162594,0.6104939508110284,0.10618526939377188
1700516430037159700,3.58515966796875,2.253976027864218,-1.9291718268126248,-0.11568217919860034
1700516430047169800,3.595169677734375,-0.41998131582736964,0.24298487275987862,-0.2558031455397606
1700516430057179600,3.6051796875,-1.360672851166129,0.04451718711853027,0.5022025759834796
1700516430067190500,3.6151904296875,-0.7845458648592233,0.41649771149531006,-0.17267141947522757
1700516430077200600,3.62520068359375,0.1468149475544691,-0.012514029136300087,0.23874898875579237
1700516430087210800,3.635210693359375,2.8113725947380064,-0.22637831361293792,-0.4144578031655401
1700516430097220600,3.645220703125,-0.8616033855766058,-0.7779192863263189,-0.13232052172329276
1700516430107230700,3.655230712890625,-1.8083926532685755,0.9413681194260716,0.20385949821490792
1700516430117240600,3.665240478515625,0.38051264427006243,1.063047748941183,-0.16262122316919267
1700516430127250700,3.675250732421875,1.937659084650874,-1.5892399069949983,-0.03940726022627204
1700516430137260800,3.6852607421875,-0.6218827753096818,0.19706695199795066,-0.4036240187337622
1700516430147270700,3.695270751953125,-1.4409452422767877,0.2199330829963088,0.5440853960104286
1700516430157280800,3.70528076171875,-0.615106997564435,0.36241760013103486,-0.3408254345912486
1700516430167290600,3.71529052734375,0.11879822885990142,-0.057903030653297896,0.11822145188525318
1700516430177300700,3.72530078125,3.2271476910471915,-0.0643974341738969,-0.40032775366734713
1700516430187310600,3.735310546875,-0.7446832255482673,-0.9482287989757955,-0.1849013344405219
1700516430197320700,3.74532080078125,-2.286872335293889,1.0045049590796231,0.3269238600866869
1700516430207330800,3.755330810546875,0.38114275886714455,1.4934389612324535,-0.11679397636540233
1700516430217340700,3.765340576171875,2.1370295643508435,-2.0158898869313298,0.09679905342180281
1700516430227351600,3.7753515625,-0.3523141392678022,0.07231514849588275,-0.4222635084804147
1700516430237361700,3.785361572265625,-1.7222972550928592,0.1670972726047039,0.7111855912245809
1700516430247371800,3.795371826171875,-0.5599257930904626,0.3509570255704224,-0.2113006810663268
1700516430257381600,3.805381591796875,-0.15515958205163477,-0.15234481689184903,0.21748017341885714
1700516430267391700,3.815391845703125,3.053861500674486,-0.2068028216578066,-0.21415716647598892
1700516430277401600,3.825401611328125,-0.1286024145156145,-0.9577617664746939,-0.10697411821652203
1700516430287411700,3.83541162109375,-2.3994898296922442,0.69126917687729,0.39628563866969196
1700516430297421600,3.845421630859375,-0.1024035588979721,1.6240525694400072,-0.04480692731272429
1700516430307431700,3.855431640625,2.2027800936341286,-1.8737571058437228,0.1799401318365708
1700516430317441800,3.86544189453125,0.3258499107122421,-0.10594123150482773,-0.5281651386272161
1700516430327451600,3.87545166015625,-1.9252496849328278,0.206284131545946,0.6935143254555761
1700516430337461800,3.885461669921875,-0.6579021831959485,0.41179435610994697,-0.16347641522642223
1700516430347471600,3.8954716796875,-0.35132512823045253,-0.04327113258019089,0.1894791272174567
1700516430357482800,3.905482666015625,3.0639521020561453,-0.060948389698565,-0.27596863927729426
1700516430367492600,3.91549267578125,0.209604288944602,-1.0055805524218826,-0.1983255006916821
1700516430377502700,3.925502685546875,-2.5751333968460557,0.6470465887911617,0.30873342928178604
1700516430387512600,3.9355126953125,-0.21217326264977454,1.7703575216457246,-0.21160960088502614
1700516430397522700,3.945522705078125,2.186214158758521,-1.807931173236668,0.19318704182468355
1700516430407532800,3.95553271484375,0.556284806239605,-0.31004991870783266,-0.6182165078870951
1700516430417542700,3.965542724609375,-1.9296178170144558,0.3652076692409813,0.4731247308634221
1700516430427552800,3.975552734375,-0.7536848626494407,0.4753874150983989,-0.23486907858252523
1700516430437562600,3.985562744140625,-0.31102935819923877,-0.03118526572808623,0.14764569929018614
1700516430447572700,3.99557275390625,2.813020361945033,0.047047874639928336,-0.4263008742377162
1700516430457582600,4.00558251953125,0.2585287711113691,-0.7592763990461826,-0.1575258362589404
1700516430467592700,4.0155927734375,-2.3096745342105627,0.33381080658882856,0.23638945655021815
1700516430477603600,4.025603515625,-0.4410509918630123,1.8568012948676942,-0.29789347083754836
1700516430487613700,4.03561376953125,2.127075156569481,-1.3057545354120432,0.2722262378785759
1700516430497623800,4.045623779296875,0.6059755966037511,-0.5438528293635696,-0.6010236002195626
1700516430507633700,4.055633544921875,-1.995653592979908,0.21109657332897186,0.5097757511841133
1700516430517643800,4.065643798828125,-0.4051566716611385,0.6498778666943311,-0.380833437189646
1700516430527653600,4.075653564453125,-0.579461099165678,-0.2606165371708572,0.33350254435725507
1700516430537663700,4.085663818359375,2.393983048969507,0.15118921711593866,-0.28127251783907414
1700516430547673600,4.095673583984375,1.023960770177841,-0.9605867607675492,-0.2527082847969606
1700516430557683700,4.10568359375,-2.6631729148268697,-0.06781696029379963,0.29076223071813584
1700516430567693800,4.11569384765625,-0.25936054576039314,1.931282827617228,-0.21441581741217522
1700516430577704700,4.12570458984375,1.8485148202985524,-1.2141336518131196,0.29102628848180173
1700516430587714600,4.135714599609375,0.6707803694695234,-0.9059466774329542,-0.5149878963418305
1700516430597724700,4.145724609375,-1.8355623997449875,0.22964666775912046,0.5294924051756039
1700516430607734800,4.15573486328125,-0.2666559634655714,0.40333632436618205,-0.2174683733832091
1700516430617744600,4.16574462890625,-0.7444763047993183,-0.23479747465103865,0.3005527531746775
1700516430627754800,4.175754638671875,2.0600953777521847,0.1746468112014234,-0.14071582696177065
1700516430637764600,4.1857646484375,1.5540098959207533,-0.7599340592373162,-0.2621850285965949
1700516430647774700,4.195774658203125,-2.592493112447858,-0.31829525754898785,0.272184006172046
1700516430657784600,4.20578466796875,-0.5069581730127334,1.9891979870997367,-0.12780001209154723
1700516430667795700,4.215795654296875,1.7376228345185518,-0.8174434874631464,0.28652707736641164
1700516430677805600,4.2258056640625,1.0744926875412464,-1.048290397857502,-0.45988220478948205
1700516430687815700,4.235815673828125,-1.963580876892805,0.41965427583009,0.44575595468357204
1700516430697825800,4.24582568359375,-0.538423570856452,0.4573842870265245,-0.06941233972646296
1700516430707835600,4.255835693359375,-0.6111223118424415,-0.057238575395196674,0.20084793184138833
1700516430717845800,4.265845703125,1.6589274834662675,0.24603994948156177,-0.11954809737913309
1700516430727855600,4.275855712890625,1.7734587025314568,-0.5423460049971938,-0.3309092033958062
1700516430737865700,4.28586572265625,-2.431596448048949,-0.41032530647069215,0.25524671723339704
1700516430747876900,4.295876953125,-0.8569891697794199,2.068474206779897,-0.1996129466863349
1700516430757887000,4.305886962890625,1.5191472568541764,-0.45176498584002256,0.2725205446500331
1700516430767896800,4.315896728515625,1.521219971475005,-1.2929887234717607,-0.5082234437081963
1700516430777906700,4.32590673828125,-1.9223124624371528,0.4658841851506382,0.22942977360542863
1700516430787916500,4.33591650390625,-0.7072814233928918,0.41625411199778317,0.04249700640253722
1700516430797926700,4.3459267578125,-0.7148468902111053,-0.13012553242966532,0.055642830636352295
1700516430807936800,4.355936767578125,1.4777332964479923,0.14913075021617114,-0.041473143247514964
1700516430817946600,4.365946533203125,2.4438357518970966,-0.5711809082068503,-0.46815077837575225
1700516430827957800,4.375957763671875,-2.627472655892372,-0.6024749680716543,0.2138526671040803
1700516430837968000,4.3859677734375,-1.1185007560938596,1.810152356417477,-0.05503328390326351
1700516430847978000,4.39597802734375,1.554768020811677,-0.1632816598393023,0.17540533795114605
1700516430857987800,4.40598779296875,1.759812454494834,-1.64858115375787,-0.4084091341184452
1700516430867998000,4.415998046875,-1.8273837694644928,0.3034456250719726,0.29260683567151424
1700516430878007800,4.4260078125,-0.7653180172979831,0.35750915062762795,0.1525087022166699
1700516430888018000,4.436017822265625,-0.7664572504609822,-0.08369257481768727,-0.017300277032144366
1700516430898028800,4.44602880859375,1.2074147188216446,0.024556568303331732,0.08538735950421542
1700516430908039000,4.456038818359375,2.785384167000651,-0.4201191899280995,-0.44123084194194523
1700516430918048800,4.466048828125,-2.3273680118113753,-0.7718878241423517,0.19352478587906807
1700516430928059000,4.476058837890625,-1.3447779474198818,1.7785818907640873,0.018723953159712255
1700516430938069000,4.486069091796875,1.3846037618517875,0.09891929697878658,0.11385068945512175
1700516430948078800,4.496078857421875,1.8608154989451169,-1.7727903017506002,-0.294413081375882
1700516430958089000,4.5060888671875,-1.5466881747305392,0.34662060380131005,0.0392118472520262
1700516430968099800,4.516099853515625,-0.7569739673227072,0.4912059656728059,0.39933709866218264
1700516430978110000,4.52610986328125,-0.9533931960016488,0.10903744395449758,-0.1334407944574952
1700516430988119800,4.536119873046875,1.1774071185708046,-0.1295523356515914,0.2946754586391151
1700516430998130000,4.5461298828125,2.8481957202225923,-0.4156137682676315,-0.5650795956570654
1700516431008139800,4.556139892578125,-2.1391595621168613,-0.7114514756191521,0.2992745133997872
1700516431018150000,4.56614990234375,-1.5179098240137099,1.8321308178611098,0.044858182575926185
1700516431028159700,4.57615966796875,1.3153630523651838,0.02976546205803752,0.08596103120632469
1700516431038171000,4.5861708984375,1.8104408179700373,-1.8501142183192074,-0.21997655681185424
1700516431048180700,4.5961806640625,-1.5196692349016665,0.4692528578661382,-0.042232802508398885
1700516431058190800,4.60619091796875,-0.9631026891112326,0.377457129156962,0.33160693986900147
1700516431068200700,4.61620068359375,-0.8401648762285708,0.08143383610546588,-0.17272826422899962
1700516431078210800,4.6262109375,1.459482769486308,-0.12315233241617679,0.15497100067697464
1700516431088221000,4.636220947265625,2.2751304595738646,-0.44923057199157773,-0.4804803908558562
1700516431098231800,4.646231689453125,-2.072653830552101,-0.58683338149935,0.2958618188794702
1700516431108242000,4.656241943359375,-1.2529039658427237,1.8448747102305292,-0.15532463642023503
1700516431118251800,4.666251708984375,1.6076327650368212,-0.08341543837673962,0.07248736325763165
1700516431128262000,4.676261962890625,1.4240736024528742,-1.718907758785039,-0.22062683741413056
1700516431138271700,4.686271728515625,-1.7494529730439186,0.9016501492828131,0.08336966300625354
1700516431148281900,4.69628173828125,-1.0397469528526067,0.4130114768147468,0.156843991474621
1700516431158291700,4.706291748046875,-0.6221294435471296,-0.07604264458641409,-0.0807960131259635
1700516431168302800,4.716302734375,1.736449114564061,0.01686849801875651,0.17069653920568525
1700516431178312000,4.72631201171875,1.721928421780467,-0.17428944913111627,-0.5143435340236873
1700516431188322000,4.736322021484375,-2.286322300195694,-0.43009865908548234,0.2876458157306537
1700516431198332200,4.746332275390625,-0.995256653741002,1.7332243072986602,-0.19580372712910174
1700516431208342000,4.756342041015625,1.8464257390648124,-0.2575313575718552,0.14966273820102213
1700516431218352000,4.76635205078125,1.4619845231741666,-1.6485975203707812,-0.30138635445460676
1700516431228363000,4.776363037109375,-2.1578964112907646,0.19232626027688382,0.12958039270229638
1700516431238373000,4.786373046875,-0.581036970180273,0.5620475344847887,0.15108783910069615
1700516431248383000,4.796383056640625,-0.49566462558209895,-0.13674246635138987,-0.1359021430697292
1700516431258393000,4.80639306640625,1.536740781211853,-0.12773323046565055,0.21524850537665188
1700516431268403000,4.81640283203125,2.161219418233633,-0.16753588321767746,-0.3985476287849247
1700516431278413000,4.8264130859375,-2.5129326689988374,-0.7373295017845928,0.43152394264824684
1700516431288424000,4.836423828125,-0.9733189626991748,1.961367730887979,-0.0675864760061726
1700516431298434000,4.84643408203125,1.6766799977779387,-0.23682671545632183,0.1528016207486391
1700516431308444000,4.85644384765625,1.4549626617133617,-1.6085997103728353,-0.2146775736209005
1700516431318454000,4.8664541015625,-2.0544804604798554,0.3807682995315641,0.19590262092631308
1700516431328464100,4.876464111328125,-0.6814350344747304,0.6486815695818513,0.06803432937152683
1700516431338475000,4.88647509765625,-0.6238853473037481,-0.11536087482236325,-0.1107159716259688
1700516431348485000,4.896485107421875,1.4444289927393197,0.030020240536704657,-0.06588248509988189
1700516431358495000,4.906494873046875,2.2942530931949614,-0.28389073751345273,-0.3743691365463659
1700516431368505000,4.916505126953125,-2.419013445329666,-0.8095588716931641,0.2432162338303402
1700516431378515000,4.926514892578125,-1.0096306315302848,1.8073337918654082,-0.16855598351303486
1700516431388525000,4.936525146484375,1.7118635393619537,-0.020175795935839413,0.13525292191337793
1700516431398536000,4.946535888671875,1.4513012165963648,-1.808272534020245,-0.23830829578358678
1700516431408546000,4.956546142578125,-1.9926760384738444,0.28419198548235,0.23084102864284067
1700516431418556000,4.966555908203125,-0.4017196829497814,0.6658972005378454,0.12511658169385045
1700516431428566000,4.97656591796875,-0.5998223346710204,-0.0827031253889203,-0.09574746200963855
1700516431438575900,4.986575927734375,1.1814046637743711,-0.2019468329939991,0.11306220595855265
1700516431448587300,4.996587158203125,2.170465970006585,-0.10598514371179044,-0.5051868524912745
1700516431458597000,5.00659716796875,-2.285201187211275,-0.7918197283197194,0.31632216737773267
1700516431468607000,5.01660693359375,-1.19886316357553,1.5689426766365766,-0.1942636215476319
1700516431478616800,5.026616943359375,1.7538439014792442,0.29913499533124266,0.013434760710410772
1700516431488627000,5.036626953125,1.6011714600682259,-1.670364823281765,-0.1971981040969491
1700516431498638000,5.04663818359375,-2.236605206346512,0.1676009112779051,0.18906214391440151
1700516431508648200,5.056648193359375,-0.35396833621561524,0.6875460647009313,0.12794716547727583
1700516431518658000,5.066657958984375,-0.3007856120824814,-0.09157843269668518,-0.053969344466179604
1700516431528668200,5.076668212890625,1.027116603860259,-0.13141191897839308,0.16872333943657575
1700516431538678300,5.08667822265625,1.994047326827049,-0.06625175680369139,-0.3325348318362608
1700516431548689200,5.096689208984375,-1.9940946731001137,-0.8681148863624781,0.3273134804587811
1700516431558699000,5.106698974609375,-0.9823188462346791,1.663262882322073,-0.1019702089820057
1700516431568709000,5.116709228515625,1.184183480837941,0.2282846586909145,0.090405224198848
1700516431578719200,5.12671923828125,1.9152964461952446,-1.788072626556456,-0.1774841535191983
1700516431588729000,5.13672900390625,-1.7686562706857918,0.4756643323436379,0.1116259260777384
1700516431598740200,5.146740234375,-0.9790157130360603,0.4021165733128786,0.05823668305445462
1700516431608750000,5.15675,-0.32290742751955986,-0.34776582831367847,-0.02422266017384827
1700516431618760200,5.16676025390625,0.8906944555044174,0.6974998879604041,-0.05349317832179367
1700516431628770000,5.17677001953125,2.3066835357010365,-0.6230434165868908,-0.2965566692758351
1700516431638780200,5.1867802734375,-1.9311679690659045,-0.820776650473848,0.1592049119196832
1700516431648791000,5.196791015625,-1.2761644299209116,1.6112524168387055,0.0692277038745582
1700516431658801200,5.20680126953125,0.9319663770914077,0.43917979116365313,-0.07642660240270197
1700516431668811000,5.21681103515625,2.2059335892289877,-2.0576693196490408,0.012224727333523332
1700516431678821000,5.226821044921875,-1.442667828285694,0.6416741019725799,-0.04388692639097571
1700516431688831000,5.2368310546875,-1.3948942697197197,0.29683409797772764,0.2486123572528362
1700516431698842000,5.246842041015625,-0.22404490222930906,-0.3381418215304613,-0.05239000285286456
1700516431708852000,5.25685205078125,0.7153495790362357,0.674193611979112,0.034020196893066165
1700516431718862000,5.266862060546875,2.356571309942007,-0.3214057177197188,-0.284652588731423
1700516431728872000,5.276871826171875,-1.5215677619993686,-0.9090282037701457,0.07744630083926021
1700516431738882000,5.286882080078125,-1.497199044418335,1.283601594184339,0.10191066081449389
1700516431748893000,5.296892822265625,0.6975783600240946,1.1335329785961656,-0.20927107493486255
1700516431758903000,5.306903076171875,2.32295779415369,-2.21536061213538,0.009554740939289331
1700516431768913200,5.3169130859375,-1.0023989267110824,0.38750337994024153,-0.1406371357023716
1700516431778923000,5.326923095703125,-1.7536030784606933,0.5041000071026385,0.28481976199187337
1700516431788934000,5.336933837890625,-0.2574234402179718,-0.13452917421609162,-0.1644510689448565
1700516431798944000,5.346944091796875,0.34550562829673287,0.3039709641203284,0.11286485675554722
1700516431808954000,5.3569541015625,2.559986681118607,0.07855703856013715,-0.23562135825455188
1700516431818964000,5.3669638671875,-1.073520043116808,-1.0694161879945545,0.013641316133178769
1700516431828974000,5.37697412109375,-1.8662194038152693,0.8017264975670725,0.25345154091231525
1700516431838985000,5.38698486328125,0.5049193606615067,1.7103344300985335,-0.30530707156229764
1700516431848995000,5.3969951171875,2.31732592574656,-2.340495935062319,0.11925167171582579
1700516431859005000,5.4070048828125,-0.5021493114262819,0.12360467929355799,-0.2354014684261754
1700516431869015000,5.41701513671875,-1.9543243882477281,0.60552324972637,0.32805443501919507
1700516431879026200,5.427026123046875,-0.24125614927113054,-0.18906353215388952,-0.25479773135688155
1700516431889036300,5.437036376953125,0.1864250734090805,0.4238438364744186,0.042476475071161986
1700516431899046100,5.447046142578125,2.6063427741020915,0.059963324183970684,-0.24192089679017661
1700516431909056000,5.457055908203125,-0.6538526155441999,-1.2049041973054408,-0.08854878267720341
1700516431919065900,5.46706591796875,-2.0081559316784143,0.7967943749271332,0.4006869423685595
1700516431929077200,5.4770771484375,0.2403255904227495,1.768887449093163,-0.4104178435923531
1700516431939087000,5.487087158203125,2.395106500041485,-2.1439929736226797,0.16878749071396887
1700516431949097200,5.49709716796875,-0.24462884057462214,-0.10435958833657205,-0.2925742120435461
1700516431959107000,5.507107177734375,-2.193160616895556,0.7241313628416508,0.39820403951164335
1700516431969118200,5.5171181640625,-0.25068039569854733,-0.17699658919796346,-0.21144487530998884
1700516431979128000,5.527128173828125,0.2401215922832489,0.19997304870299995,0.08973521598279476
1700516431989138200,5.53713818359375,2.5288205584824084,0.12664346246756614,-0.24632329646758733
1700516431999148000,5.54714794921875,-0.6067822368115187,-1.0022972199022768,-0.13744107960741966
1700516432009158100,5.557158203125,-2.0472464175730942,0.4886434947736561,0.40391496450435366
1700516432019169000,5.5671689453125,0.15172025525271893,1.8086024966269731,-0.4489281549789011
1700516432029179100,5.57717919921875,2.425298809209466,-1.8143474700197577,0.18629764763712883
1700516432039189000,5.58718896484375,-0.06714052233695983,-0.36461847117617724,-0.3997099505625665
1700516432049199000,5.59719921875,-2.2042373067051173,0.7438716169044375,0.3742356828924268
1700516432059210000,5.6072099609375,-0.23985855743288992,0.016986352244764566,-0.17075265330709516
1700516432069220000,5.61722021484375,0.1780769317805767,0.05038578689098358,0.10232764411754905
1700516432079230000,5.62722998046875,2.438783144682646,0.10538535118773579,-0.04778071895912289
1700516432089240000,5.637239990234375,-0.08961246638596057,-1.0744630230553447,-0.07642360672801733
1700516432099251000,5.6472509765625,-2.0804034217655656,0.15993629493415354,0.44309608782455323
1700516432109261000,5.657260986328125,0.08099953634142876,1.7768084513507783,-0.30841628962401296
1700516432119271000,5.66727099609375,2.069888457491994,-1.3768655688151716,0.2075647459410131
1700516432129281000,5.677281005859375,-0.15207447551786898,-0.72510495711416,-0.184859431527555
1700516432139292000,5.6872919921875,-1.754700226047635,0.5341378563612699,0.2514381552632898
1700516432149302000,5.697302001953125,-0.3901818053692579,-0.9920623877443373,-0.1369194668861106
1700516432159312100,5.70731201171875,-2.133670901572704,0.021004209583997725,-0.22066581771764904
1700516432169322000,5.717322021484375,2.613191617083549,1.4069645006112754,0.6321675840891897
1700516432179333400,5.72733349609375,2.8057138383239506,-5.441289136651158,-1.4881211272105574
1700516432189343500,5.737343505859375,-4.912895961421728,4.784558043061197,1.185984977301955
1700516432199353300,5.747353271484375,1.0078069232344626,-0.280187352950871,-0.024356515686586498
1700516432209363500,5.757363525390625,4.189370090192556,-5.159492302677035,-0.1632668275963515
1700516432219374300,5.767374267578125,-1.141394724947214,0.9654005907900631,0.023909867897629736
1700516432229384400,5.777384521484375,-3.557120819169283,1.212259893830493,-0.2345502949569374
1700516432239394300,5.787394287109375,0.06519932514131069,1.7413259268201886,0.6619574499361217
1700516432249404400,5.797404296875,4.315969348192215,-6.1494672166228295,0.6080838574619963
1700516432259415300,5.807415283203125,-0.14869535447359084,0.11929726442322135,-1.8376795380294322
1700516432269425400,5.81742529296875,-3.398609588602185,5.858180085247755,1.2646379505172372
1700516432279435500,5.827435546875,-0.11804711823165416,-6.0558221337199205,-0.14510573248378933
1700516432289445400,5.8374453125,3.4476024598300454,-2.259801665277779,-0.6615804333172738
1700516432299455500,5.84745556640625,-0.020997779843211172,1.1899246548384428,0.2394668912341818
1700516432309466400,5.85746630859375,-3.196129452449083,3.6040576346501707,-0.5410933015223592
1700516432319476500,5.8674765625,2.4936019455850125,-5.550495945823192,1.707884991119802
1700516432329486300,5.877486328125,1.3908604841589927,-3.9785196005791423,-2.7026412941232323
1700516432339497200,5.887497314453125,-2.9819495261520146,7.699999791821837,1.5117964556999504
1700516432349507300,5.89750732421875,0.9167904352694749,-5.000955353146791,-0.4843642465518787
1700516432359517400,5.907517333984375,-0.17578268336355685,-3.540208555074036,-1.1619340934984386
1700516432369527300,5.91752734375,-1.4160592228233813,0.00904408800341189,1.056027933306992
1700516432379538200,5.9275380859375,-0.8186579778194427,5.340087939280271,-0.19210173080600798
1700516432389548300,5.93754833984375,5.8953539238661525,-9.687974520736931,-0.15809859464559703
1700516432399558400,5.947558349609375,-5.6745051873296495,1.4525328042179346,-1.4694528132282196
1700516432409568300,5.957568359375,0.49818566849231716,1.4533585875175892,3.091066318953037
1700516432419579400,5.967579345703125,3.0761604262441393,-6.681696024492383,-3.159739457684755
1700516432429589500,5.977589599609375,-4.495180836960673,-2.383308948611468,0.6414671812236309
1700516432439599600,5.987599609375,-0.05233341382741928,0.7514617797724902,1.7903578148841857
1700516432449609500,5.997609375,4.637845094576478,-7.159716272312402,-2.1527362520486113
1700516432459620400,6.007620361328125,-3.4590409686893224,-0.21211144945994018,0.8176122681587934
1700516432469630500,6.01763037109375,1.7700521089583634,-4.907312608331441,0.5311683024985715
1700516432479640600,6.027640625,1.274002283450961,-0.9678060444965958,-0.5938776009224355
1700516432489650400,6.037650390625,-0.7269242814958096,-1.1229101700339466,0.7036281615823506
1700516432499661600,6.04766162109375,1.1881541380345821,-6.8562219857931135,-0.4206650237752124
1700516432509671400,6.05767138671875,1.1896066749304532,2.084231163360178,-0.7744410888217389
1700516432519681500,6.067681640625,-2.7375240991950034,-7.21831809888482,2.237446333345771
1700516432529691400,6.07769140625,0.20289690026044843,-4.890228202539682,-2.8000276093810794
1700516432539702500,6.08770263671875,0.18046704178750514,3.2596234349772333,1.7326958995103836
1700516432549712400,6.09771240234375,3.3326702587485313,-7.413177823162078,1.1013451847620308
1700516432559722500,6.107722412109375,0.10875322018563746,-1.7806155885487793,-3.6783798851847647
1700516432569732400,6.117732421875,-1.5500298863738775,-0.20435265202671288,3.6762376124590634
1700516432579743500,6.127743408203125,2.2234043639898298,-10.000594362998008,-1.53361300458014
1700516432589753300,6.13775341796875,-3.1783056264668703,2.214703755661845,-1.4616265035167335
1700516432599763500,6.147763427734375,3.21538184992969,-2.4873887701585886,3.174547735238075
1700516432609774300,6.1577744140625,2.338178744161129,-6.680209585326909,-4.156239681746065
1700516432619784400,6.167784423828125,-4.117990615111589,-2.114388693475723,1.7878528463259338
1700516432629794300,6.177794189453125,1.6429232741266488,-7.695714661848545,0.04988236741349101
1700516432639804400,6.187804443359375,-0.986950013166666,-1.1188317416138946,-1.4575650992967188
1700516432649815300,6.197815185546875,0.6409083782970905,-5.243372947412729,2.3824811194851994
1700516432659825400,6.207825439453125,3.922203839117288,-3.3468677109271288,-2.2946251413777468
1700516432669835300,6.217835205078125,0.7045639811277389,-3.818219148507714,1.4677183906510471
1700516432679845400,6.227845458984375,-0.3570201250016689,-9.026514937320352,-0.01483534822333604
1700516432689856300,6.237856201171875,-0.3163531835705042,0.2127440482750535,-1.0109279778644442
1700516432699866400,6.247866455078125,-1.3019874379634857,-6.2353966105818746,1.3352189686968923
1700516432709876200,6.257876220703125,2.919112838488817,-2.6805662404373285,-1.4381727088235319
1700516432719887600,6.2678876953125,2.3816671727538106,-1.9913018275111913,0.8109303792420774
1700516432729897500,6.2778974609375,1.2394903575181961,-5.785569022545218,-0.06718100047782063
1700516432739907600,6.287907470703125,1.6374924812495708,-2.5961042886823416,-0.6637386342644691
1700516432749917400,6.29791748046875,-4.35296023145914,-8.192906643128394,0.014670366919972002
1700516432759928600,6.307928466796875,-3.4892011291533707,-4.645156878894567,0.16695928890611975
1700516432769938400,6.3179384765625,0.16119301699697972,-6.127286948996782,1.0200383360370993
1700516432779948500,6.327948486328125,5.9701931840121745,-3.7148318392693995,-1.2196614753238857
1700516432789958400,6.33795849609375,4.389488173389434,-1.4784393988907336,0.1395961387494579
1700516432799969500,6.347969482421875,-1.3227543316602706,-7.18163408960998,0.0658292205426842
1700516432809979400,6.3579794921875,2.172371511366963,-5.033702607494592,0.5268311866097152
1700516432819989500,6.367989501953125,-0.5127268195420503,-3.670197747772932,-0.5141948462679982
1700516432830000400,6.37800048828125,2.243333637818694,-0.08250292664170265,-0.8224038863494991
1700516432840010500,6.388010498046875,-0.29224983892738815,-4.127518029652536,0.24461773465871808
1700516432850020400,6.398020263671875,0.07411854465603827,-4.395802763363719,-0.12352584190368651
1700516432860030500,6.408030517578125,0.20908581802845,-5.677956789088249,-0.39939609884042293
1700516432870041300,6.418041259765625,-2.1953893988609314,-6.255139421927929,-0.8800872098375111
1700516432880051500,6.428051513671875,0.2729898426622152,-4.6031215717196465,0.05687522197552025
1700516432890061300,6.438061279296875,-0.9300561595559119,-7.208702713799476,-0.0650819823719561
1700516432900072400,6.448072509765625,4.9627662000060075,-3.094714320066571,-0.2535655592134222
1700516432910082300,6.458082275390625,1.8282137905478477,-4.9030081891357895,0.6520235004208982
1700516432920092400,6.468092529296875,3.825193663695454,-2.2969133984453975,-0.8419488370358943
1700516432930102300,6.478102294921875,2.2897791626513,-2.4133440213911235,0.06745126878656446
1700516432940113400,6.488113525390625,-2.3560201058000323,-3.6301720268547535,0.19073336506225166
1700516432950123300,6.498123291015625,-3.3425989475667475,-6.6381479746669525,0.2779919983310625
1700516432960133400,6.50813330078125,-0.8557102358847856,-4.664397878198326,-0.9701511463180184
1700516432970144500,6.51814453125,2.9463591573327776,-2.1657243284374474,-0.3761261728141457
1700516432980154600,6.528154541015625,-1.8343489323019981,-8.134393663883209,-0.059138709928095334
1700516432990164500,6.53816455078125,3.3425428334653375,-2.486899817597866,-0.780988903030008
1700516433000174300,6.54817431640625,0.37880700939595696,-5.287587936714291,0.33468850273881107
1700516433010185500,6.558185546875,0.6973533190965652,-6.166664435139298,-0.8144114993561059
1700516433020195600,6.568195556640625,-0.28963293442726135,-3.864531110088527,0.4586509459614753
1700516433030205400,6.578205322265625,1.3372551506996153,-0.9001984891697764,0.5872413047131151
1700516433040216300,6.58821630859375,1.2614642889171839,-5.1974903171598905,1.1702458486393092
1700516433050226400,6.598226318359375,2.4324714773178098,-3.1262004684373736,-0.7690639258280396
1700516433060236500,6.608236572265625,1.9368547825306652,-2.348576219534874,-0.35302268939595666
1700516433070247400,6.618247314453125,-2.8298341341018673,-5.575127698254585,0.9638199705351144
1700516433080257500,6.628257568359375,-0.781092509534955,-6.237182909476757,-0.8490830728299915
1700516433090267400,6.638267333984375,-1.4086270269960164,-3.786502698512375,-0.4445175354624167
1700516433100277500,6.648277587890625,3.94066420943737,-0.3885748085640371,0.19440419906210152
1700516433110288400,6.658288330078125,2.37769593103528,-4.568615491005778,0.472384397357516
1700516433120298500,6.668298583984375,0.6128437288075685,-4.66165676279664,-0.64951633990556
1700516433130308400,6.678308349609375,-3.0841204453378914,-4.615177335694432,0.43230606946926564
1700516433140319200,6.6883193359375,-1.0735428394705055,0.49086686991155143,0.19617880751919
1700516433150329300,6.698329345703125,2.5386469559699294,-5.480816260397434,0.6650060238517821
1700516433160339500,6.70833935546875,3.1190882983446118,-3.8729192914664745,-1.315958534040302
1700516433170349300,6.718349365234375,-2.075351399073005,-4.5698827344626185,-0.41185171232037243
1700516433180360700,6.728360595703125,-1.1889315521478652,-1.7519046039797366,-0.3202696263618767
1700516433190370800,6.738370849609375,0.4643254844665527,-2.8203581574872136,-0.6558277150094509
1700516433200381000,6.748380859375,3.9962347054898735,-3.485606319531798,-0.4507844503700733
1700516433210392000,6.75839208984375,-0.23458909259736538,-4.036818644812703,-0.7706571863688528
1700516433220402000,6.76840185546875,-1.1129355231821536,-2.783197178350389,0.6941878408029675
1700516433230412000,6.778412109375,1.0620400332033633,-0.5501579939223825,0.07426887637954205
1700516433240423000,6.7884228515625,3.854402222523093,-4.579582290700078,0.3608538579456508
1700516433250433000,6.79843310546875,1.9337971485257148,-2.5416128200381993,-0.5536638100862503
1700516433260443000,6.80844287109375,-1.7834803303301334,-4.256463266256452,0.862612343423441
1700516433270453000,6.818452880859375,0.5755617536395787,-0.051472997605800624,-0.9609192075923084
1700516433280464000,6.8284638671875,0.6820616419404745,-4.205361440050602,-0.19994279969520865
1700516433290474000,6.838473876953125,-0.500920061892271,-3.2734821567207573,-0.9160299722909927
1700516433300483800,6.84848388671875,-1.1712474268972872,-3.88002386277467,-0.011392770021408795
1700516433310495000,6.858494873046875,0.5287409657537937,-0.14054989581033586,-0.9759421508096158
1700516433320504800,6.8685048828125,0.9714975924909114,-4.35029364259839,0.8702038945309817
1700516433330515000,6.878514892578125,0.3059282356679439,-2.4852561420440673,-1.0651356611311436
1700516433340525800,6.88852587890625,-1.8863082521200178,-5.7160570949017995,1.1892528199914842
1700516433350536000,6.898535888671875,-0.5894681139171123,1.333116589590162,-0.2212523854339495
1700516433360545800,6.9085458984375,-0.9644628715485334,-5.989857084903121,1.8851513371698556
1700516433370557000,6.918556884765625,0.3059446022808552,-0.7963741036884486,-1.8616333911992609
1700516433380566800,6.92856689453125,-1.1712526875942946,-4.963352475461363,1.1923114038445055
1700516433390577000,6.938576904296875,1.8326748616099358,1.8920089479796587,-0.7696584576550871
1700516433400586800,6.948586669921875,1.495628434100747,-6.032225569555163,0.12896397783700375
1700516433410598000,6.958597900390625,-0.8157154946267604,-1.0877847153127194,-2.546445062500238
1700516433420607700,6.968607666015625,-1.2957476667910814,-3.611076281240582,1.0804797991268336
1700516433430617900,6.978617919921875,2.4199732302725314,1.5869740078896284,-1.110927252099663
1700516433440629000,6.98862890625,2.6838135517954824,-5.567440066361427,0.1622449920016341
1700516433450639000,6.99863916015625,-1.712547429972887,-2.5347286134824154,-0.7947272132642567
1700516433460649000,7.00864892578125,-0.8283890982389449,-2.818092842903733,1.2806608645573259
1700516433470660000,7.01866015625,1.9992542478203772,1.1770894309237598,-0.9494709079913795
1700516433480670000,7.028669921875,3.0976492044746875,-6.129063311019539,0.6046678750060498
1700516433490680000,7.03868017578125,2.0173183122992513,-2.3091557710334656,-1.4678824951715768
1700516433500691000,7.04869091796875,0.04263853376507759,-4.191181523528694,0.5080605082314461
1700516433510701000,7.058701171875,4.372234256249666,2.2840175303846597,-0.626448914181441
1700516433520711000,7.0687109375,-1.7312965541064738,-6.27554098944366,0.42803504108656193
1700516433530721800,7.0787216796875,1.1902175003051758,-4.144323326241969,0.21172427677325903
1700516433540732000,7.08873193359375,0.15771920340657233,0.18694778210893273,0.0959228825086262
1700516433550742000,7.098741943359375,2.325055643215775,-0.8724538654148578,0.5150418915513902
1700516433560751900,7.108751953125,0.4101514112085104,-5.861258177518844,0.5626651549264788
1700516433570762800,7.1187626953125,-1.7304273700565098,-3.4346330881416796,-0.46514264606833455
1700516433580772900,7.12877294921875,-0.891847717192769,-0.3772343532517552,-0.035648930606059726
1700516433590783000,7.138782958984375,1.0544044237583876,-5.170377853828668,-0.1415164940864779
1700516433600793900,7.1487939453125,0.5962111584365367,-0.791892720490694,-2.6023855609089135
1700516433610804000,7.158803955078125,0.1350467683494091,-4.910663087803125,-0.16625307686552404
1700516433620813800,7.168813720703125,1.4732535206854342,-0.08890168776810169,-0.3757502887064591
1700516433630824700,7.17882470703125,0.6195078628718853,-2.4725325618103144,-0.5761809815164655
1700516433640834800,7.188834716796875,-4.335325790569186,-4.411276811349392,0.3990089261537417
1700516433650845000,7.198844970703125,-0.02931903346478939,0.4328593559704721,0.916879501792416
1700516433660856000,7.20885595703125,2.763420172473788,-4.286169545473158,0.895460062471032
1700516433670866000,7.218865966796875,0.6503571746438741,-2.2277413702808317,-1.811113748795539
1700516433680876000,7.2288759765625,-3.409173652714491,-2.7600959964871405,1.2943863153100013
1700516433690887000,7.238886962890625,0.9754156427174806,2.0671438349589706,-0.36527945583555843
1700516433700897000,7.24889697265625,2.5963983031928537,-6.401385045161843,-0.03348159650433808
1700516433710907000,7.258906982421875,-2.2611340829253197,-2.6060245019331574,-1.985454708918184
1700516433720918000,7.26891796875,-1.6017290939509867,-0.7542576941013336,-0.21454828468542544
1700516433730927900,7.278927978515625,3.4362031139373777,-3.4053546789482234,0.03398567356895655
1700516433740938000,7.28893798828125,3.5101024628847837,-2.1828176481880246,-1.2119355572469532
1700516433750948900,7.298948974609375,-1.2310060222893953,-4.475069192302227,0.11421780573446302
1700516433760959000,7.308958984375,-0.13426000188589096,1.4514134447991847,-1.173569367038831
1700516433770968800,7.31896875,0.6667062518984079,-5.259688122397661,1.5167014711372553
1700516433780980000,7.32897998046875,-0.5441793579041958,-2.8551182129621506,-0.720450847698003
1700516433790989800,7.33898974609375,-3.1167478726983067,-2.5379390999615192,1.0793100977603345
1700516433801000000,7.349,-0.7394692902922629,-2.1792427123107014,0.8267248182885348
1700516433811010800,7.3590107421875,-0.005111059403419494,-2.1636282329410315,-1.0941467976905406
1700516433821021000,7.36902099609375,-1.495861658334732,-4.970566060101985,1.0676035125494003
1700516433831030800,7.37903076171875,0.6221423030287027,2.8114208177939055,-1.0998147603243589
1700516433841042000,7.3890419921875,2.9539895060807466,-6.351144804221391,0.6946089888244867
1700516433851051800,7.3990517578125,-0.0984434230953455,-3.149036569623649,-1.8999626834630965
1700516433861062000,7.409061767578125,-1.079319669306278,-0.5888511510625482,-0.6854700621444731
1700516433871073000,7.419072998046875,2.9452485657423733,-2.0121984850674868,0.630823329873383
1700516433881083100,7.429083251953125,3.6671529732495545,-3.9047041305229064,-0.9482023493602871
1700516433891093000,7.439093017578125,-1.9914239925861357,-4.228351270493865,-0.13965455440580843
1700516433901103900,7.449103759765625,-2.2343489518523216,3.5546240339174866,0.36511553397811947
1700516433911114000,7.459114013671875,2.1953923214703797,-4.738278814706206,0.925647110942006
1700516433921124000,7.4691240234375,1.8220301334768532,-4.6341354264035814,0.03857080026897602
1700516433931135000,7.479135009765625,0.06606909371316433,0.20940014467462897,0.09214129074383527
1700516433941144800,7.489144775390625,1.8544190759062766,-1.386273740890622,0.10368400889625773
1700516433951155000,7.499155029296875,-1.2453303157180546,-3.402289446158707,-1.6721961303621529
1700516433961165800,7.509165771484375,-3.808157188698649,-3.722973644670844,-1.106844951222092
1700516433971176000,7.519176025390625,2.3048031287819146,0.9961059640467166,-1.720885634729266
1700516433981185800,7.529185791015625,5.197787838801741,-4.881923315531015,-0.7642535298716276
1700516433991197000,7.539197021484375,-1.1347358515799044,-2.8753172436431047,-1.0426713158667087
1700516434001206800,7.549206787109375,-0.6437234357178211,1.0091767502829432,-0.5539221687614917
1700516434011217000,7.559216796875,2.3636551307231186,-4.781237081944942,0.9864555807132274
1700516434021227800,7.569227783203125,0.2648258254289627,-2.627017313340306,0.8697147958397865
1700516434031238000,7.57923779296875,-1.298648064407706,-2.941051114052534,0.6376693963758647
1700516434041247700,7.589247802734375,2.140230406218767,1.4751310049951076,-0.5033520382795482
1700516434051259000,7.5992587890625,2.0388275487959384,-4.660515191546082,1.111687934273854
1700516434061268700,7.609268798828125,-0.6969073288947344,-5.26429590845406,0.29699012878965586
1700516434071278800,7.61927880859375,0.45051206316947934,1.8211182793289422,-0.5670722673116252
1700516434081290000,7.6292900390625,0.6820686562031507,-2.59401871457994,-0.05015049856407568
1700516434091300000,7.639300048828125,5.857654015547037,-5.127224940800667,-0.3897524740412831
1700516434101310000,7.64931005859375,-16.29276324663758,-4.700820898449421,-2.8437954394370317
1700516434111321000,7.659321044921875,-11.660624839270115,3.1586443559244275,-0.4176192628711462
1700516434121331000,7.6693310546875,-2.0660908187747,-1.370114779380709,-0.858908885795623
1700516434131341000,7.679341064453125,4.82598340164423,-7.1675769226849075,1.7700092927299438
1700516434141352000,7.68935205078125,9.313963513445854,1.6535528046905994,-1.2917252794072032
1700516434151362000,7.699362060546875,3.778810098183155,-4.442454039901495,1.0984383574046195
1700516434161372000,7.709371826171875,-2.4119693720370528,-3.6151325708940623,-0.5850446714516728
1700516434171382800,7.7193828125,-3.3984967758774753,1.336728934868425,0.11972887903982772
1700516434181389000,7.72938916015625,3.1130133623450993,-3.70720265956521,1.8403787139855323
1700516434191399200,7.739399169921875,4.628640043857693,-0.9618988662794232,-1.1137662749178707
1700516434201410000,7.74941015625,2.2588047631949184,-4.29174296169132,0.9360733740188181
1700516434211420200,7.759420166015625,2.407859014108777,1.1741475322529673,0.24380046345908193
1700516434221430000,7.769429931640625,-3.1255338212221857,-2.8343068956017494,0.1941023300386965
1700516434231441200,7.779441162109375,-3.6360511480212208,-3.654724868831038,-0.3055888476457447
1700516434241451300,7.789451171875,-2.053914058768749,0.06798866359889506,-1.3942339061148463
1700516434251462100,7.799462158203125,2.1772049228727814,-2.830651880225539,-0.41749939935114233
1700516434261472300,7.80947216796875,1.0460749868303536,-2.8929256733089685,-2.2604944698475298
1700516434271482000,7.819482177734375,-1.5907266384214163,-3.7986113617181774,-0.6116719085492194
1700516434281493200,7.8294931640625,3.0982009931385517,0.3449647994183004,-0.6329324309818446
1700516434291503000,7.839503173828125,1.5056629213809967,-2.9887235503315925,0.22109200724046676
1700516434301513200,7.84951318359375,-2.131852453973889,-4.540976957973838,0.12723554660920053
1700516434311524000,7.859524169921875,-0.22708207796812055,2.2871768711984157,0.002469933777488768
1700516434321534200,7.8695341796875,3.323697847741842,-4.810059271803498,1.990728557667881
1700516434331544000,7.8795439453125,1.213361644527316,-3.2148949431955813,0.22382548732496796
1700516434341555200,7.88955517578125,-0.7491226693004369,0.19986089356541634,1.0779467735178767
1700516434351565000,7.89956494140625,2.7769208745598792,-2.418333500241488,0.8976192863315343
1700516434361575200,7.9095751953125,2.5496833137691017,-2.4297677713170645,-0.8460131638653576
1700516434371586000,7.9195859375,0.10548632734417915,-3.541750231558084,-0.7905253776602447
1700516434381596200,7.92959619140625,3.114800245761871,2.510191261336207,-1.2969957671560346
1700516434391606000,7.93960595703125,4.449742443343997,-4.045992715871334,-0.4357433504415676
1700516434401617200,7.9496171875,1.8308757032334804,-4.834987376832962,-1.872522011090815
1700516434411627000,7.959626953125,0.11328969457149506,1.5160991213299333,-0.78545413881056
1700516434421638100,7.96963818359375,0.6662737057000399,-1.9913497583061455,1.1247840741470456
1700516434431648300,7.979648193359375,-3.1835774293899535,-5.177196301671862,2.2244103261619803
1700516434441658400,7.989658447265625,-6.707572224026918,-2.2543108127765357,0.8435628481037915
1700516434451669200,7.999669189453125,-0.256852362331748,0.799323893404752,2.454741469053924
1700516434461679000,8.00967919921875,0.35585868000686166,-3.2994778909817337,0.2588200456755236
1700516434471689200,8.019689208984374,-1.9907979696422815,-4.375017164966464,-0.42146717047095295
1700516434481700000,8.0297001953125,0.3398281671822071,1.3299322604656219,-0.31574148141294717
1700516434491710200,8.039710205078125,0.26365093643069265,-4.305038204333186,-0.1905870884593576
1700516434501720000,8.049719970703125,-0.6102998895436526,-3.1447818347886205,-2.8277044285967943
1700516434511731200,8.059731201171875,0.9410621222168206,0.34037542580142616,-0.5489801092494279
1700516434521741000,8.069740966796875,2.232470298498869,-3.2234064586922524,0.7283418201435357
1700516434531751200,8.079751220703125,1.3272750239551065,-2.4658763187915085,-1.2680847299702465
1700516434541762000,8.089761962890625,-4.379451932543516,-2.688338920265436,0.4765277807725593
1700516434551772200,8.099772216796875,0.7453273686707019,1.92161352038756,2.2689273671500385
1700516434561783000,8.109782958984376,1.8542320289015768,-4.384765821042657,0.3519894738906994
1700516434571793200,8.119793212890626,-1.8423457762748001,-4.057703027409315,-0.7041240553405136
1700516434581803000,8.129802978515626,0.38631986924409867,2.9158462379083034,2.0244389579594135
1700516434591814100,8.139814208984374,2.6941157501012087,-4.489235080298781,2.1964424150452015
1700516434601824000,8.149823974609374,2.0369664310991764,-3.085003365652263,-1.2414122654914854
1700516434611834000,8.159834228515624,-0.07965162886381148,-2.25575750445351,-0.3233019067298621
1700516434621845200,8.16984521484375,3.5167642588615418,1.398620012244582,0.07728745701573789
1700516434631855400,8.17985546875,1.8855588950574398,-4.938076579907536,-0.04409592949915677
1700516434641865200,8.189865234375,0.466691629076004,-4.323767454722524,-1.204632540757209
1700516434651876000,8.1998759765625,-0.46453240521550176,4.197834259416163,1.247651744402945
1700516434661886200,8.20988623046875,-0.9466162492126226,-4.148194614717364,2.052823633183539
1700516434671897000,8.21989697265625,-1.3487725700139999,-4.333597359341383,0.601930011007376
1700516434681907200,8.2299072265625,-5.352630609989166,0.7631465184777975,0.984639398136735
1700516434691917000,8.2399169921875,-1.8404098397761581,-2.450658145263046,1.0160092997167258
1700516434701928200,8.24992822265625,0.22941724291741847,-2.08549665325135,-2.006371386349201
1700516434711938000,8.25993798828125,0.9672960491478443,-3.3933886390835046,0.6662690295249223
1700516434721948200,8.2699482421875,2.9438948130458593,0.7007761331520974,0.31576186661385
1700516434731959000,8.279958984375,2.616996854585409,-4.806823650883138,-0.9675545539535582
1700516434741969200,8.28996923828125,-3.9462458089619874,-2.003012139049172,0.20434114425200967
1700516434751980000,8.29997998046875,1.7924802138656377,2.9986224285334346,1.3342039464354514
1700516434761990100,8.309990234375,2.803977223789692,-5.512935738235711,2.34103910202831
1700516434772000000,8.32,-0.031160861939191816,-1.5216218302741646,-1.1692945392638445
1700516434782011100,8.33001123046875,0.8715496100515127,-1.0741995498135686,0.6075403617024422
1700516434792021000,8.34002099609375,1.9597142645925283,-0.6506140720143914,0.8612954886712133
1700516434802031000,8.350031005859375,2.902294390156865,-1.5687971306860446,-1.351513247024268
1700516434812042200,8.360042236328125,-2.7951170409858226,-4.565367010603845,0.9263089358516037
1700516434822052400,8.37005224609375,-2.8638223284214734,3.2086358828008175,1.7311122835807502
1700516434832062200,8.380062255859375,-4.200585311689973,-5.13439936247468,1.0275171474851668
1700516434842073000,8.390072998046875,-0.5951186870247125,-2.323504906642437,-0.853813243157044
1700516434852083200,8.400083251953125,2.5343892985254524,0.1443725228384137,0.1374230324940756
1700516434862094000,8.410093994140626,0.5222627096503972,-3.563631223976612,0.7936625066421925
1700516434872104200,8.420104248046876,-2.4356349097847936,-2.4830437266916037,-0.8026135095346718
1700516434882114000,8.430114013671876,-3.896245221996307,-4.463085909041762,0.440916771024093
1700516434892125200,8.440125244140624,1.0612924297064543,3.696947223010659,-0.9360254432238638
1700516434902135000,8.450135009765624,3.2685043683081862,-3.3240418388739226,0.7813377164676785
1700516434912145200,8.460145263671874,1.4778379258662462,-4.811792963728308,-1.0394562993429601
1700516434922156000,8.470156005859375,1.2389350617229937,2.9265213611796494,0.23629509279765187
1700516434932166100,8.480166259765625,-1.0957961723327636,-3.6097143452376126,2.5399860956192013
1700516434942177000,8.490177001953125,-2.13336227401495,-2.48595932187736,-0.1524182109216228
1700516434952187100,8.500187255859375,-1.8597908320724963,-1.235000498753041,-0.019713366055861114
1700516434962197000,8.510197021484375,4.1915684770196675,1.808942103844881,0.6809855371415615
1700516434972208400,8.52020849609375,6.28583500444293,-3.185267866694927,-0.7701742982227355
1700516434982218200,8.53021826171875,0.7647405096709727,-4.400608117818832,-0.791010384698212
1700516434992229000,8.54022900390625,3.1846161247879263,4.472529736952484,-0.960355509294942
1700516435002239200,8.5502392578125,0.45071606130897995,-4.12267088188231,0.8171907548110932
1700516435012249300,8.560249267578126,-2.78643046118319,-3.1638919011890887,-0.02802570571862161
1700516435022260200,8.57026025390625,-3.2315620003581045,0.5524412825539707,0.35057606342881914
1700516435032270000,8.58027001953125,1.7549141610592602,-0.6380757852196693,0.6449046083264053
1700516435042280200,8.5902802734375,1.9431343011915683,-3.4497988008305427,-0.24356614324655382
1700516435052291000,8.600291015625,-1.0428419962584972,-3.3944609444901346,0.415718251555413
1700516435062301200,8.61030126953125,1.0565946272790432,3.1631612488269805,0.7831441813677549
1700516435072312000,8.62031201171875,-0.5832686747550964,-4.779686345371604,0.5912176975307986
1700516435082322200,8.630322265625,-1.602722781163454,-1.3847345486246048,-1.0249726506341248
1700516435092332000,8.64033203125,-1.5105080233246087,-1.1268541584193705,-0.2584762006739154
1700516435102343200,8.65034326171875,2.099497413814068,-2.195507764543593,-0.0785552849944681
1700516435112353000,8.66035302734375,3.173930480122566,-2.183010540411621,-2.0675164676636455
1700516435122363100,8.670363037109375,-2.1573498833239078,-3.905094883406162,-0.9923313408788293
1700516435132374000,8.6803740234375,1.150979130372405,2.5156910277962683,0.48761502850875255
1700516435142384000,8.690384033203125,0.6444342143356799,-3.4563638584345577,1.3040547457568348
1700516435152395300,8.700395263671876,-0.7829431058377027,-4.106654105322063,0.579201169587858
1700516435162405400,8.7104052734375,0.04106032466292381,2.730348508477211,0.6424767235923559
1700516435172415200,8.720415283203126,1.7268413282632826,-2.5076541440740225,1.2283340266011655
1700516435182429400,8.730429443359375,1.527107860469818,-3.8486549110427495,-0.8143344885971396
1700516435192439600,8.740439453125,-1.4586188461333511,-2.3279208233885464,0.9396887149717659
1700516435202450400,8.750450439453125,4.298060182014107,3.6507168022334575,0.5111440803952515
1700516435212460500,8.76046044921875,0.8605290343433618,-3.735380121779442,0.6583532879643141
1700516435222470400,8.770470458984375,-0.8658055134415626,-3.4105899492532012,-0.7524380774587393
1700516435232481500,8.7804814453125,-2.740741892197728,1.9103850010171533,-0.45500294484794135
1700516435242491400,8.790491455078126,3.950855933105945,-1.9784099049732087,0.07179086889345199
1700516435252502800,8.800502685546874,2.342439908736944,-2.2257122025407847,-0.4937270085830241
1700516435262512600,8.8105126953125,-2.1615186934411525,-3.1910598940998316,0.1018010446938686
1700516435272522500,8.8205224609375,1.303195644709468,-0.2808753352150321,-0.7255817077804356
1700516435282533600,8.83053369140625,1.0559855554699897,-0.4157357872121036,-0.013025485789775847
1700516435292543700,8.840543701171875,-0.8591191675454377,-5.019225169330835,0.402871556398645
1700516435302553600,8.8505537109375,1.0498732100695372,1.5503772385068237,0.09032364686261862
1700516435312564700,8.860564697265625,-0.16875789929330348,-1.6145220861591398,2.141865167813748
1700516435322574600,8.87057470703125,-3.121373194411397,-4.570796926698089,0.7289509650178253
1700516435332585500,8.88058544921875,-5.416232436805963,0.5537877287268639,0.15145250769462434
1700516435342595600,8.890595703125,-0.23169980089664458,-0.981270067834109,2.573290399327874
1700516435352605700,8.900605712890625,-0.25373276900649067,-3.0771824627682567,-1.3805804976850746
1700516435362616600,8.910616455078125,0.1640770480006933,-1.783322217158973,0.3509127845698967
1700516435372626400,8.92062646484375,2.149992506298423,1.0035814144939184,-0.7021395304597914
1700516435382637600,8.930637451171876,-0.8365057691991329,-3.8427439334332942,-0.6600044161722064
1700516435392647400,8.9406474609375,-3.1193057404875755,-1.3904130326524375,-0.4358958741221577
1700516435402657500,8.950657470703124,2.389270048972964,0.6226159118898212,-0.11312723401878029
1700516435412668400,8.96066845703125,4.4821565202146765,-2.46305775423944,0.13079705674936995
1700516435422678500,8.970678466796874,5.46403931311965,-0.9883749314032494,-0.7829827071957289
1700516435432689700,8.980689697265625,-1.095092407977581,-4.636898169115185,0.38922231268733737
1700516435442699800,8.99069970703125,2.9907746376425024,4.240437137345969,1.1099470088906584
1700516435452709600,9.000709716796875,-2.00137547775805,-0.9790706580936908,3.726011989453435
1700516435462720500,9.010720458984375,-4.118307425975799,-3.348202174401283,0.9605115035742521
1700516435472730600,9.020730712890625,-5.462470456367731,3.87421459197402,0.28682127454001455
1700516435482741500,9.030741455078125,0.35006723712384696,-3.0388471791550513,0.4802611586146056
1700516435492751600,9.040751708984375,3.0299937183529138,-4.063907142746448,-3.1463077291816473
1700516435502761700,9.05076171875,1.5418530096590517,-0.4522637291423976,-0.9482714690737426
1700516435512772600,9.060772705078126,2.5492162807792424,-2.831706942236423,-0.4138995482282713
1700516435522782500,9.070782470703126,-1.2613380321890115,-1.6285403823785483,-0.6477662813678383
1700516435532793600,9.080793701171874,-5.036339385738969,-3.951009662362933,1.518527079129219
1700516435542803500,9.090803466796874,-1.6801994040757418,3.374031027662754,1.4305524430781602
1700516435552813600,9.1008134765625,-1.695954607090354,-3.045466889555752,3.102093908923864
1700516435562824400,9.110824462890625,-2.844061396896839,-4.31476698666513,0.3449591003298759
1700516435572834600,9.12083447265625,-2.247794708880782,2.657967162877321,0.14425996584203093
1700516435582845400,9.130845458984375,-1.654890775296092,-1.9891659845262766,2.297428946752101
1700516435592855600,9.14085546875,-0.32040976548492905,-3.4976129836678505,-3.0233456586405634
1700516435602865400,9.150865478515625,-0.18762685041427613,-1.285015260374546,-1.0414125479772687
1700516435612876500,9.16087646484375,5.356081042703986,3.2489474349230525,-1.091252391423285
1700516435622886700,9.17088671875,5.46002773939073,-4.635356200370192,0.40453700539283455
1700516435632897500,9.1808974609375,1.762458585089445,-2.350941633491963,-2.5230758773505686
1700516435642907600,9.19090771484375,2.4110662857174874,-0.3359465034432709,1.4901011951118708
1700516435652917500,9.20091748046875,3.8889854601263996,0.36053923903852697,1.7088735637657344
1700516435662928600,9.2109287109375,-2.24528009571135,-1.044075045184791,1.736105269562453
1700516435672938500,9.2209384765625,-0.8874562042355537,-3.526542141032219,0.24918325247596948
1700516435682949600,9.23094970703125,-0.269256501352787,5.188597401130199,1.1484399672836065
1700516435692959500,9.24095947265625,-1.0746528465390204,-2.7422774312019347,2.028820972435921
1700516435702969600,9.250969482421874,2.797549821090698,-4.245777329330146,-0.8551839469883591
1700516435712980500,9.26098046875,-0.4015238681167364,2.4898434698343275,-0.5454185443103313
1700516435722990600,9.270990478515625,-0.1021639049232006,-3.359446621993184,-0.5459012497933581
1700516435733001500,9.28100146484375,-2.2353198427110907,-2.095615165553242,-3.3907939464151857
1700516435743011600,9.291011474609375,-4.987679691988229,-1.9675638090491294,0.1574833122914657
1700516435753021400,9.301021484375,-1.0548521675258875,-0.2920812043622136,-0.3331441959062591
1700516435763032600,9.311032470703125,0.7054775888413191,-1.3834301880277693,0.46787722213137894
1700516435773042700,9.321042724609375,-1.2863041311413048,-4.1557483910977835,1.1740851345412433
1700516435783053600,9.331053466796876,0.9112351392298936,2.8899285373196,0.3919664237637073
1700516435793063700,9.341063720703126,4.017138377308846,-2.6836519314929843,2.7203879632160066
1700516435803073500,9.351073486328126,2.2552181368798014,-3.3131147866681214,-1.583960505287349
1700516435813084700,9.361084716796874,1.340482296052575,-0.825217628595978,0.04044179090578109
1700516435823094500,9.371094482421874,5.025557879483699,2.1145010678090155,-0.7164833323065191
1700516435833105700,9.381105712890625,2.5901404118418694,-2.2368210410542786,0.908478314802423
1700516435843115500,9.391115478515625,0.7110773085445166,-4.109042461763322,-1.074626981445402
1700516435853125600,9.401125732421875,0.23611527925133705,1.214131752116978,-0.6361872680593281
1700516435863136500,9.411136474609375,5.0090743621945375,1.1177423389419912,-1.2298502763830124
1700516435873146600,9.421146728515625,-0.591788665819168,-1.3553693379305303,0.34019057075381276
1700516435883157500,9.431157470703125,3.1717472908645865,-2.4247386911086735,-0.522139594727382
1700516435893167600,9.441167724609375,7.027291084638238,2.401552022919059,-0.5234968545552343
1700516435903177500,9.451177490234375,-0.8817612074643373,-2.12460043701902,1.0042761187598108
1700516435913188400,9.461188232421875,-2.6348405543118716,-3.8848604891508813,0.8243292283888906
1700516435923198500,9.471198486328126,3.119164286190271,3.0286814667105673,-0.40509219159018245
1700516435933209600,9.481209716796876,-2.659398072463274,-2.6733473950996993,0.7940824856199323
1700516435943219700,9.4912197265625,-2.781559640276432,-2.4808032542884346,-0.18771219061017036
1700516435953230600,9.501230712890624,-6.375760774561763,-2.7002774876013396,-0.22147377309966831
1700516435963240700,9.51124072265625,-1.071209428086877,1.5426386070787905,0.41851281417738645
1700516435973250600,9.52125048828125,-0.6131757372409105,-2.894168659107387,0.3102836543984711
1700516435983261700,9.53126171875,-1.6268243722409008,-4.967863230884075,-0.1755049258681014
1700516435993271600,9.541271484375,-0.5695441007852554,4.886090664343536,-0.2326179751874879
1700516436003282400,9.551282470703125,0.5117494989424943,-5.783337902492285,2.2814573245078322
1700516436013292500,9.56129248046875,1.7326438770622015,-0.8753514865525066,-1.1413819385308772
1700516436023302700,9.571302734375,3.214212806150317,0.40314372440353036,-0.6582749620310961
1700516436033313500,9.5813134765625,3.743704882532358,-0.45572643681690095,-0.16829930533822626
1700516436043323400,9.591323486328125,2.045590467059612,-2.8592098661899565,0.8868151298530399
1700516436053334500,9.60133447265625,-1.2117998020380734,-5.695986366775632,0.029861250582709907
1700516436063344400,9.611344482421876,-0.09121814801692962,3.4682629705429076,-0.47663273898437614
1700516436073355800,9.621355712890624,1.577819226053357,-1.143779135865718,-0.16953516727611423
1700516436083365600,9.63136572265625,-4.354498693072796,-3.0496582037657496,-0.17630056975781916
1700516436093375700,9.641375732421874,1.3333464528232812,0.6174035840690135,-0.7764615617986768
1700516436103386600,9.65138671875,2.5654917082756756,1.1908591592095792,0.2592442259043455
1700516436113396700,9.661396728515625,-3.0310920349836348,-2.101142989064008,1.2699290426626801
1700516436123407600,9.67140771484375,-2.629893161037564,-3.9693618961334227,-0.09696480191014707
1700516436133417700,9.681417724609375,-0.32878362607657907,2.20649794511348,-0.6091656248167157
1700516436143427600,9.691427490234375,0.7162193476080894,-1.164385870564729,1.5546557926088571
1700516436153438500,9.7014384765625,0.4569458956092596,-3.193740511485934,-1.322709761866182
1700516436163448600,9.711448486328125,-2.8462703051179647,0.9895913214556872,-0.1393687597343698
1700516436173459500,9.72145947265625,1.0916969203203917,-1.382260705856979,1.5539344925969838
1700516436183466000,9.731466064453125,-0.060543023768067354,-2.517072837543487,-0.8238413718067109
1700516436193476900,9.741476806640625,-4.251884121772647,-2.180236107262224,0.22372958920244126
1700516436203487000,9.751487060546875,1.4563094001471995,2.559676299995184,-0.2346339911850169
1700516436213496800,9.761496826171875,0.44657823085188864,-3.6235064314857124,1.109381191701442
1700516436223508000,9.771508056640625,-2.045059136661887,-3.5299785452216863,-1.5655281920179724
1700516436233517800,9.781517822265625,-0.3170616241008043,4.65688297252357,-1.1570068662293254
1700516436243529000,9.791529052734376,0.4251923284739256,-3.8142192652165887,1.385204211962968
1700516436253538800,9.801538818359376,-0.01153612401485443,-2.715364289835095,-0.7644621311210096
1700516436263549000,9.811548828125,-2.307819846254587,-1.7980986382693052,0.753681136322394
1700516436273560000,9.82156005859375,3.7565854068934916,3.306360343971848,0.6697574561625719
1700516436283570200,9.831570068359374,3.3621605571269986,-2.8161715194523333,0.7170480535171926
1700516436293581000,9.8415810546875,2.337202008083463,-4.375334560352564,0.3962251041214913
1700516436303591000,9.8515908203125,0.13257599432170392,0.11444807082638143,-0.07301390788238495
1700516436313602000,9.86160205078125,4.759153844952583,1.0123711624100804,-0.18583200288675725
1700516436323612000,9.87161181640625,-5.827611343982816,-2.9646798269212242,-0.8768271851282566
1700516436333622000,9.8816220703125,-0.7781208002477884,-1.7588130681939422,-0.7955581111304462
1700516436343633000,9.8916328125,3.8761119500279424,4.423759276303649,0.033645226100832225
1700516436353643000,9.90164306640625,-2.1149059953480958,-1.4846692331910132,1.409308871780336
1700516436363654000,9.91165380859375,-1.6044284160375595,-5.617068897405266,-0.18680362439788878
1700516436373664000,9.9216640625,1.170779809385538,1.5573684125684202,-0.9210335527319461
1700516436383675000,9.9316748046875,0.7464858910560608,0.7108832472771406,0.3836043632077053
1700516436393685000,9.94168505859375,-0.6858569425702095,-4.164702974186837,-0.6636597968745976
1700516436403694800,9.95169482421875,-3.2661323784798384,-0.5946287115506828,-1.0980364986054598
1700516436413705700,9.961705810546874,3.283946852111816,1.1952535947762428,-0.2608441353816539
1700516436423715800,9.9717158203125,2.428901802137494,-2.729538945659995,0.01344656074605882
1700516436433727000,9.98172705078125,-2.7654823657006022,-4.093933447697759,-0.25928707866538314
1700516436443737000,9.991737060546875,2.515052145370841,5.079254982879758,-0.34787447631992396
1700516436453748000,10.001748046875,-0.392199574932456,-3.565702769553661,2.326162435413897
1700516436463758000,10.011758056640625,-3.170162067499757,-3.0874189023613927,-1.1875449931602924
1700516436473768000,10.021767822265625,-1.5172984141170978,1.4051219414845109,1.4934320931002496
1700516436483779000,10.031779052734375,-0.08149754899144172,-1.0936622290439904,1.1237959398925303
1700516436493789000,10.041788818359375,-0.4926379712373018,-1.972635413224995,-0.6949677391342818
1700516436503799800,10.0517998046875,-1.919064858818054,-4.393204855825006,0.04657411964833736
1700516436513810000,10.061809814453126,1.2158107912451028,5.531633424443006,-2.1835184899337587
1700516436523820800,10.07182080078125,1.586847751161456,-3.6591432697951793,1.4379229718461632
1700516436533831000,10.081830810546874,0.5089484700471163,-3.8358834000140427,-1.5806972657077014
1700516436543840800,10.0918408203125,-2.624253693845868,1.589116719006747,-0.24033896136097607
1700516436553852000,10.101851806640624,2.834527260354161,0.35124767908006904,-0.42880120315346865
1700516436563861800,10.11186181640625,1.7009557763785124,-1.782224631180614,-0.42091684311181304
1700516436573873200,10.121873046875,-2.937787143820524,-4.023216820439696,0.10265567049551755
1700516436583883000,10.131883056640625,1.9530799411445854,5.0342906365156175,-1.010466936223954
1700516436593894000,10.141893798828125,2.5162609366387128,-2.2080115645468235,1.0425523656621574
1700516436603904000,10.151904052734375,-4.565959423539042,-3.7601258559793234,-0.444547455676645
1700516436613914000,10.1619140625,-2.8709149170309303,1.3060837673664092,1.1401974049214274
1700516436623925000,10.171925048828125,3.930005452778935,-0.006174012459814548,0.9489027527146041
1700516436633934800,10.181934814453125,1.6383961520910262,-1.361297705066204,-1.6109844135522842
1700516436643946000,10.191946044921876,-3.4187826080590487,-3.998530122950673,0.35327027094885705
1700516436653955800,10.201955810546876,0.2597287945508957,4.532739875504374,-0.1481220115650445
1700516436663967000,10.211967041015624,0.9439438151329755,-4.376621093031764,0.9523419333830475
1700516436673976800,10.221976806640624,-2.8476135364204644,-2.194246220175177,-2.3700825334221123
1700516436683988000,10.231988037109375,-0.28315818545520305,1.9394117735370993,1.5095149206340313
1700516436693997800,10.241997802734375,0.403615287438035,-2.3077662163712085,0.9908831148318946
1700516436704008000,10.252008056640625,-0.8282727783828974,-2.3191754991360005,-1.4590440858080982
1700516436714018800,10.262018798828125,-3.03035495288074,-2.5978797739222643,0.1853624126136303
1700516436724029000,10.27202880859375,1.6948165429711342,4.53136741810739,-0.8373135784506798
1700516436734040000,10.2820400390625,2.7159476426810025,-4.237795390665531,1.0469916632838547
1700516436744050000,10.2920498046875,-1.9951269387573003,-2.6001754836440085,-2.1345301487505433
1700516436754061000,10.30206103515625,-0.004835165071487427,2.8894942375555632,0.7387365921035408
1700516436764071000,10.31207080078125,2.6124621337652205,-1.06123485430032,1.0658198440030215
1700516436774082000,10.32208203125,0.7388081960350275,-2.3943548048913477,-1.301746030423045
1700516436784092000,10.332091796875,-0.8297159629285336,-1.6176428485281764,0.3069349650250748
1700516436794102000,10.34210205078125,3.7228573248147963,3.9841701736867425,-0.3995102267393842
1700516436804113000,10.35211279296875,3.0900884138315914,-2.9898312193125482,0.6399024161249399
1700516436814123000,10.362123046875,-1.212410627412796,-3.3010569768667217,-0.8238041816014796
1700516436824134000,10.3721337890625,-1.9991881968468426,2.6685391180351377,0.14023308494612574
1700516436834144000,10.38214404296875,1.6840993341237305,-0.8335907585352659,-0.622402707530558
1700516436844155000,10.39215478515625,-1.0975544141769409,-2.86612242205739,-1.156920064728707
1700516436854164700,10.402164794921875,-3.3737288298457857,-1.2898854967594147,0.013953998811542988
1700516436864176000,10.412176025390625,1.7064660642325877,1.5583319969035685,-0.6754086137920617
1700516436874186000,10.42218603515625,1.5962743356764315,-2.0538944772854446,-1.826683804501593
1700516436884196000,10.432196044921875,-1.184638823390007,-3.444613507147133,-1.1087946239851414
1700516436894207000,10.44220703125,0.4905594113975763,4.0659813186720015,-1.1777290440015493
1700516436904217000,10.452217041015626,1.469729438212514,-2.8560575396388765,0.645063232954219
1700516436914228000,10.46222802734375,0.1423848561525345,-2.960059181383252,-1.3941785226657986
1700516436924238000,10.472238037109374,-1.6596598893940449,1.4581836695864796,0.2729038814118132
1700516436934249000,10.4822490234375,3.8860301174521443,0.694771632040292,1.0949015615805984
1700516436944258800,10.4922587890625,-2.002648566433787,-2.5269062492936847,-0.776466822495684
1700516436954270000,10.50227001953125,-4.648324987536668,-3.861185599052906,-0.05129592400584369
1700516436964279800,10.51227978515625,2.025730166813731,6.171331842428446,-0.9120598265510051
1700516436974290000,10.5222900390625,2.086394771134853,-3.5732086151391265,0.6425839102938771
1700516436984300800,10.53230078125,-1.5607763213157653,-3.910037015983462,-3.29417890779078
1700516436994311000,10.542310791015625,-1.0854951430708168,2.197512382364273,-0.8065376241758465
1700516437004322000,10.552322021484375,1.112556168475747,-0.9400373092137276,-0.2801123514859006
1700516437014332200,10.562332275390625,-0.4009253177016973,-1.47225457277596,-2.0751371718004346
1700516437024343000,10.572343017578126,-2.114965616580844,-4.477794817873836,0.17761424617227164
1700516437034353000,10.582352783203126,2.5948399678349494,5.686839183723926,-1.4908569819152355
1700516437044364000,10.592364013671874,2.170202935156226,-3.956117214635014,0.3108004813468084
1700516437054374000,10.602373779296874,-0.39696693546473977,-2.4541744828209278,-1.7336659135863184
1700516437064385000,10.612385009765624,-1.0083680642485617,0.5626202928714454,-0.46626806990168984
1700516437074395000,10.622394775390624,3.6111581143051383,2.1512661794960497,0.1500053045609966
1700516437084405000,10.632405029296875,2.157674292972684,-2.791245752510428,1.1154584657885134
1700516437094416000,10.642415771484375,-3.1806454675912854,-1.8757817435391246,0.07912051766179501
1700516437104426000,10.652426025390625,-1.3585294093966482,3.5533114900141953,-1.3017653196454047
1700516437114436900,10.662436767578125,1.6988520820975304,-2.4259558118134734,-0.36638109693452714
1700516437124447000,10.672447021484375,-0.2733013928294182,-1.7973865444771944,-1.9864156629048286
1700516437134457900,10.682457763671875,0.8761252474039792,1.4296711301989853,-1.585275387278199
1700516437144467700,10.6924677734375,0.5787509050697088,-1.8575152883559465,-1.0832584700599313
1700516437154479000,10.70247900390625,-1.0175649316608906,-2.7373925817698237,-3.313106311100721
1700516437164489000,10.712489013671876,-4.032643989476561,-0.7012821829780936,-0.4951736271947622
1700516437174500000,10.7225,0.47645314463377,2.387765928020328,-0.09428571889400482
1700516437184510200,10.73251025390625,2.3987013096630574,-2.6169360643088817,-0.2519918801559135
1700516437194521000,10.74252099609375,-1.963724669277668,-4.518955095779895,-0.5160728055017069
1700516437204531200,10.75253125,-1.3223901745229958,4.604356081950664,-0.5108410788606852
1700516437214541300,10.762541259765625,2.40871183154583,-2.934821279752254,1.141278258960694
1700516437224552400,10.772552490234375,3.493412024846673,-1.0232868164390325,-2.1743410578742624
1700516437234562000,10.78256201171875,-0.9979168128609657,-1.8859189605414866,-0.27624738315343855
1700516437244573400,10.792573486328125,1.621093135112524,3.4328482505515217,-0.5283815943894907
1700516437254583300,10.802583251953125,0.4294721977502107,-2.4738415985822675,-0.7980106919143348
1700516437264594400,10.812594482421876,-0.23768822765648365,-3.176127113384008,-1.3681260897815226
1700516437274604300,10.822604248046876,0.9780056592106818,4.441051771888136,-1.8786648977600038
1700516437284615200,10.832615234375,3.75763228559792,-0.3094371205717325,-0.33024631904028356
1700516437294625300,10.842625244140624,3.483367016172409,-3.9323587379068132,-0.8863450281232594
1700516437304636200,10.85263623046875,-2.458943304657936,-1.6325215609692036,-0.5921446396499872
1700516437314646300,10.862646240234374,0.5908136833071709,4.27769017868042,-1.7633102334827184
1700516437324657200,10.8726572265625,0.9792623812735081,-3.2116680901035664,0.040458267116546626
1700516437334667300,10.882667236328125,-1.7932178804904222,-3.3847780471265314,-0.2477731299497187
1700516437344677000,10.892677001953125,-1.4424837038904428,2.9588498055934904,-0.3045657151430845
1700516437354688300,10.902688232421875,1.483524739331007,-2.35555891802907,0.5320932353237644
1700516437364698000,10.912697998046875,-1.4349942249178886,-2.759118091365695,-1.369260208377987
1700516437374709200,10.922709228515625,-2.495873982170224,-0.8013043996974826,-0.9218759218402206
1700516437384719400,10.93271923828125,2.0129975264906883,1.1714479179054498,-0.5570495435344055
1700516437394730200,10.942730224609376,2.6685966934412715,-1.89326537778154,-0.9882061507076024
1700516437404740400,10.952740234375,-2.7085902656555176,-2.39664919943884,-0.24061894734613595
1700516437414751200,10.962751220703124,-0.23819325456917284,4.178646743865311,-0.8758997680850327
1700516437424761300,10.97276123046875,1.691778782710433,-3.654881520697474,0.4227435105497017
1700516437434772200,10.982772216796874,0.09579027823805808,-1.4899610559888183,-2.1001263593673705
1700516437444782300,10.9927822265625,-0.01695405741035938,1.4514748195976017,-0.2314434149827808
1700516437454793200,11.002793212890625,3.6307816831856963,-0.536364592500031,0.502988757925108
1700516437464803300,11.01280322265625,0.847805746370554,-1.7202789010077715,-1.3329516082867978
1700516437474814200,11.022814208984375,-2.4741332750052214,-3.531196104317903,-0.2732516719361767
1700516437484824000,11.032823974609375,1.0002771122515202,5.6180415418297045,-1.1963412438824772
1700516437494834200,11.042834228515625,1.115760517475009,-2.9781954343155026,0.24445333787724374
1700516437504845300,11.05284521484375,-2.4505308656215665,-4.040010718852281,-0.6977394688699394
1700516437514855400,11.06285546875,-1.1761726083397865,1.3139298046916723,-0.3417031307412311
1700516437524866300,11.0728662109375,2.4980174239397046,1.0342141609057784,0.03771163528952747
1700516437534876400,11.08287646484375,-2.4861639045387505,-2.974033930721879,-1.9615043628796933
1700516437544887300,11.09288720703125,-2.2194348758369684,-2.0714277958884835,-0.6475020044084638
1700516437554897400,11.1028974609375,3.2863001372396945,3.914669644220173,-0.14916607725787906
1700516437564908300,11.112908203125,2.536069798958301,-1.8786526228003202,-0.28515056484881784
1700516437574918100,11.122918212890625,-2.1379560315459964,-3.4159921005576845,-0.4665844058418646
1700516437584929300,11.13292919921875,-1.713332442870736,4.570687621104717,0.18501604686137288
1700516437594939100,11.142939208984375,0.6363000077188015,-2.6238889521867037,1.0683191865380852
1700516437604950300,11.1529501953125,-0.12278408362567424,-1.7905713115043937,-2.0026240165144205
1700516437614960000,11.162960205078125,-0.9353162720412015,-1.1167398839011788,0.2611781531089917
1700516437624971300,11.17297119140625,1.0539619406878948,2.579311267052591,0.39468039543014016
1700516437634981000,11.182981201171875,-0.29878654721975323,-3.856882348901033,-1.007859749400243
1700516437644992300,11.1929921875,-4.460664234852791,-2.8784663553237912,-1.1179981403339654
1700516437655002400,11.20300244140625,-0.45878655503988264,4.714033431243896,-0.49035512099713086
1700516437665013200,11.21301318359375,2.3010165959805247,-2.5892104375153777,2.1090682291053233
1700516437675023400,11.2230234375,-1.8951637587487697,-4.471424698320031,-2.0795564495474097
1700516437685033200,11.233033203125,-0.3861053497105837,1.958493929017335,0.2195672818912193
1700516437695044400,11.24304443359375,3.05402165967226,0.6215285550445317,0.9717350545085967
1700516437705054200,11.25305419921875,2.340272501569986,-2.305979479084909,-0.06027301118765026
1700516437715065300,11.2630654296875,-2.282974158811569,-2.6196295411765576,-0.3343741760926321
1700516437725075200,11.2730751953125,1.515610314899683,4.637726436632871,0.517750602520816
1700516437735086000,11.283086181640625,4.734938272106647,-1.0355936325654387,1.3029092289835214
1700516437745096200,11.29309619140625,3.4677912613779305,-3.1536312039375303,-0.0695341029426083
1700516437755107000,11.303107177734375,-2.2879548698335883,1.999086782298982,0.2941241448992863
1700516437765117200,11.3131171875,-1.2824369343191384,0.00003229483440518379,-0.9049475103277712
1700516437775128300,11.32312841796875,-1.9069085570782423,-1.676244090578705,-1.5580676468789576
1700516437785138400,11.333138427734376,-7.963669432953,-1.7726843571580946,-0.29928317163027823
1700516437795149300,11.3431494140625,-2.492880645573139,2.7357889459654685,-0.19410547184385357
1700516437805159400,11.353159423828124,0.30447219164073464,-4.204381781363487,0.29698340678792445
1700516437815170300,11.36317041015625,-2.2392747178167105,-1.9785504824876785,-0.29957433659657834
1700516437825180400,11.373180419921875,2.4032699327528477,2.891328174984455,-0.2064084885779768
1700516437835191300,11.38319140625,1.7874135781258345,-2.671910348033905,2.4598449296727773
1700516437845201200,11.393201171875,-1.0624410152196884,-2.4189339503526686,-0.7899103145018219
1700516437855212300,11.40321240234375,0.970211644333601,2.778762995295226,1.9372182090155778
1700516437865222100,11.41322216796875,2.9900030687481163,-1.4984038901634513,2.0051294234640897
1700516437875233300,11.4232333984375,2.7293121511667966,-1.6432715030424296,0.15745167504418642
1700516437885243100,11.4332431640625,-1.2218442261904476,-2.785186890862882,0.30771658038944005
1700516437895254300,11.443254150390626,2.8068595012277364,5.682313230732083,-1.1623881208762525
1700516437905264400,11.453264404296876,-0.6927928793132305,-2.6027269216924904,-0.1676826347446069
1700516437915275300,11.463275146484374,-0.0023106150299310683,-2.3124049820877612,-4.053595884351432
1700516437925285400,11.473285400390624,-2.055861685705185,3.028258857384324,-0.3734785078495741
1700516437935296300,11.483296142578125,3.251971751180291,1.077603074646741,-0.28450981925986707
1700516437945306400,11.493306396484375,-0.1834749914318323,-3.165289493027329,-1.014026601466909
1700516437955317200,11.503317138671875,-3.0595325320482254,-0.636490123463422,1.3527546253874898
1700516437965327400,11.513327392578125,0.6334720908164978,1.8542142009839415,2.0521450032696125
1700516437975337200,11.523337158203125,0.11531330935359001,-2.8050480678915974,1.8889447381034492
1700516437985348400,11.533348388671875,-5.104156784424186,-3.1709549714431167,0.9756063429839908
1700516437995358200,11.543358154296875,-0.15935469565391538,4.306558545768261,2.4894050784170627
1700516438005369000,11.553369140625,1.8916373381882905,-4.047259374806285,2.4666224609836935
1700516438015379200,11.563379150390626,-1.2695482266515492,-1.1562613085590303,-1.8275094416707753
1700516438025390300,11.573390380859376,1.5396785882294177,2.140387058085203,0.5214065312124788
1700516438035400400,11.583400390625,1.9742805500835179,-0.7799880554243922,0.14421813599430025
1700516438045411300,11.593411376953124,0.8546370536953211,-3.393890158864856,-2.4220567585483193
1700516438055421400,11.60342138671875,-1.537950741523504,0.5619232505179941,0.708945703343302
1700516438065432300,11.613432373046875,1.7604881617993116,1.1519738404981792,-2.206899657782167
1700516438075442400,11.6234423828125,1.0301806676059961,-1.7450095837689936,-0.2971113805491477
1700516438085453300,11.633453369140625,-1.5258201587468385,-3.159006759496033,-0.020174773022532462
1700516438095463200,11.643463134765625,0.11940671614706516,5.314128153115511,0.44565424787476654
1700516438105474300,11.653474365234375,2.9279402880668637,-1.4117859294183552,1.4666392171122133
1700516438115484200,11.663484130859375,-0.4739624968618154,-3.180654235419631,0.5046256384119391
1700516438125495300,11.673495361328126,-1.470132173794508,2.584295777466893,1.7112258259803055
1700516438135505200,11.683505126953126,3.499807278841734,0.3262685745157301,2.8295447957664726
1700516438145516000,11.69351611328125,1.2563175736784935,-3.0620126584261653,0.3398321127049625
1700516438155526100,11.703526123046874,-2.2547803299844262,0.8456184654593467,1.957912037476152
1700516438165537300,11.713537353515624,2.2920342481017113,0.5710447146065533,0.3061291650675237
1700516438175547400,11.72354736328125,3.2068916694819927,-0.7947808431476354,-0.7383130329292267
1700516438185557500,11.7335576171875,-4.045015979793668,-2.6639696181625125,-2.7124296976879236
1700516438195567600,11.743567626953125,-2.2573843750029803,3.4696418576806782,-0.9833960470121353
1700516438205578500,11.75357861328125,1.019457029017806,-1.9343014447860418,0.6997904100503772
1700516438215588600,11.763588623046875,-3.9875837815225124,-2.076891468121856,-2.674653509262204
1700516438225599700,11.773599853515625,-2.6336469606131314,2.4786925457447766,0.7891757896821946
1700516438235609600,11.783609619140625,3.6915731287568807,-0.8003422766670584,3.3054952515751124
1700516438245620700,11.793620849609376,4.197860855162143,-3.9440436227425932,-0.6038674453433602
1700516438255630800,11.803630859375,-0.9489981759130954,1.8417799590855837,2.3073700566604733
1700516438265641700,11.813641845703126,-1.3377689454406498,-1.614022758334875,2.435803836610913
1700516438275651600,11.823651611328126,-1.8125129480689763,-1.3028677279293537,0.29177111549973483
1700516438285662700,11.833662841796874,-3.3822119960308075,-1.4906287261173128,0.18374072969593105
1700516438295672600,11.843672607421874,-0.7919464965045452,3.8633845704019065,1.4516025376304984
1700516438305683700,11.85368359375,2.161212988492846,-3.1971015123516318,-0.22405695799328385
1700516438315693600,11.863693603515625,-2.258307335066795,-1.4890474482752383,-3.4639918690949676
1700516438325704400,11.873704345703125,-0.23748306047320364,3.1026617719396947,0.47079153867550194
1700516438335714600,11.883714599609375,0.8523024732679129,-0.21695698979496955,0.10220935150012374
1700516438345725400,11.893725341796875,-0.36571021193563935,-3.6998248242735863,-2.4314669764503836
1700516438355735600,11.903735595703125,-1.9404408243238924,2.0655634338997304,1.9420647722639142
1700516438365746700,11.91374658203125,3.008442396280169,-0.1715311633989215,1.680669067414105
1700516438375756800,11.9237568359375,3.580471299618482,-0.4364429135456681,-1.3260652097739278
1700516438385767700,11.933767578125,-1.5066677145093679,-2.9964123512685297,0.08627075474262237
1700516438395777800,11.94377783203125,0.5103384631007909,4.475762435263395,0.22397052181884644
1700516438405788700,11.95378857421875,1.4267086271315812,-2.100613850623369,-0.3398378117933869
1700516438415798800,11.963798828125,-2.9636294410854576,-2.022171451418847,-1.3565730146318673
1700516438425809700,11.9738095703125,-1.5059329704940319,3.4796371819943186,1.33687345790565
1700516438435819500,11.983819580078125,3.0126328337073325,0.08461305066347122,1.996873928555101
1700516438445830700,11.99383056640625,-1.2857844911813736,-3.342793885616958,-0.7813432694256305
1700516438455840500,12.003840576171875,-2.4754800134390593,3.539550091165304,2.5971061592012643
1700516438465851600,12.0138515625,1.431662450146675,-1.0333116591081022,1.2422446246623993
1700516438475861500,12.023861572265625,-0.23655542423427103,-1.8685878865122794,-1.8756490570701658
1700516438485872600,12.03387255859375,-2.862059410402179,-0.3741604987643659,0.7903921066693961
1700516438495882800,12.0438828125,1.9720856703877447,2.134497415524721,-0.4672909101434052
1700516438505893600,12.0538935546875,3.838905962705612,-2.1903699632637204,-1.8566054800346492
1700516438515903700,12.06390380859375,-1.9052631279587744,-2.7354242043063044,-1.4249927631244061
1700516438525914600,12.07391455078125,1.323176940986514,3.176388394668698,1.0298109575107692
1700516438535924700,12.0839248046875,4.196100859752297,-0.48985155538916586,1.2227439515091478
1700516438545935600,12.093935546875,-0.07249474284648895,-2.991560819584131,-0.24686434454172848
1700516438555945700,12.10394580078125,-2.184844623970985,2.7452877189338207,0.9270518631733954
1700516438565956600,12.11395654296875,1.8232365866571665,0.5736347310997545,1.9542713428862393
1700516438575966700,12.123966796875,0.05022621241509914,-2.7483132042348384,0.6318520153339952
1700516438585977600,12.1339775390625,-2.3877847788512705,-0.08449249302372336,1.1554279264748095
1700516438595987500,12.143987548828125,2.2354753255337476,2.635404617935419,-0.05369235415570438
1700516438605998800,12.153998779296876,2.0635884805649516,-1.5909357511274516,-0.7602526967324316
1700516438616008700,12.1640087890625,-2.8484505717664956,-1.896813864043355,-1.7416347005084156
1700516438626019800,12.174019775390626,2.84079625762105,2.801618093442917,-0.15096439538411796
1700516438636029700,12.18402978515625,4.698316806674003,-1.0331170133188365,0.22792802727296946
1700516438646040600,12.19404052734375,-0.9802695124894379,-3.3857603361621496,-1.4760966351568698
1700516438656050700,12.20405078125,-1.901328711119294,2.586104872715473,0.7393968095779418
1700516438666061600,12.2140615234375,5.355616347801685,-0.18923399334996938,0.3046333004865795
1700516438676071700,12.22407177734375,1.5758973180800675,-3.0693793878018854,-0.49191981303058563
1700516438686082600,12.23408251953125,-2.051448545438051,2.081344794268906,1.657063150899112
1700516438696092700,12.2440927734375,-1.1417121203333138,0.13178688977062702,0.6017533757988364
1700516438706103600,12.254103515625,-3.7295927705496545,-2.0275019987918435,-0.9000305852569639
1700516438716113700,12.26411376953125,-4.669479419246316,0.6208676069177687,0.9916590676404535
1700516438726124800,12.274124755859376,1.6036983481973408,2.2156680706493557,1.09525497812815
1700516438736134700,12.284134765625,3.108094026121497,-3.149303403866291,-0.9713571611069143
1700516438746145800,12.294145751953126,-3.2376246613979336,-0.6319483883805572,-0.07237929977327585
1700516438756155600,12.30415576171875,-0.8381237257897853,1.7714692822799085,0.23090704308375715
1700516438766166800,12.314166748046874,0.8846119207203388,-0.9721756378829479,0.6915192061156034
1700516438776176600,12.3241767578125,-1.3728560409128665,-2.9173166027218103,-0.9473854069542139
1700516438786187800,12.334187744140625,2.483448800361156,3.3118180248558517,1.2082447399049996
1700516438796197600,12.34419775390625,3.6985441368132825,-1.798671177460253,-0.20908888676837084
1700516438806208500,12.35420849609375,0.1008347021460533,-2.3004168765217066,-2.1607209671922027
1700516438816218600,12.364218505859375,-3.174123956868052,1.1531298786655069,0.284853591196239
1700516438826229500,12.3742294921875,2.006017750605941,2.7306872389122843,0.8763912779290228
1700516438836239600,12.384239501953125,0.6512520776569843,-1.952219232662022,-0.6838252906121313
1700516438846250500,12.39425048828125,-2.7602918113201853,0.2907648610666394,0.32569486628100275
1700516438856260600,12.404260498046876,0.5833025770246982,1.1849898287847638,1.915066436831653
1700516438866271700,12.414271728515626,2.4310563498228785,0.3770411687672138,0.3446421433351934
1700516438876281900,12.42428173828125,-4.773703179308772,-1.954231449267268,-0.3421183239459991
1700516438886292700,12.434292724609374,-2.2217717943519353,3.0861247708976265,2.245920731702447
1700516438896302600,12.444302490234374,0.49920682823359963,-0.7402718388468027,0.9256149622380733
1700516438906313700,12.454313720703125,-3.0080688867926595,-2.8217642248928545,-0.916255013218522
1700516438916323600,12.464323486328125,1.6502806511521337,3.018655747258663,0.8653104234009981
1700516438926334700,12.474334716796875,2.557760821762681,-1.2648435560919344,0.7277188659396022
1700516438936344600,12.484344482421875,-0.08666296893060207,-3.073740505620837,-1.4620990894645451
1700516438946355500,12.49435546875,-2.7396190256476403,2.2402697202034294,0.6174853440683334
1700516438956365600,12.504365478515625,1.7680021906912327,-0.3297219298399985,-0.0662714844174683
1700516438966376400,12.51437646484375,2.4064146605193613,-0.5557213271379471,-0.6835539263248444
1700516438976386600,12.524386474609376,-1.5575100129961967,-0.7399297474108636,0.27138405143339184
1700516438986397700,12.534397705078124,-1.3996627992957829,2.4994968488425013,0.15487320285830647
1700516438996407800,12.54440771484375,2.7121710467517373,-0.01073357546031475,0.9027927434466779
1700516439006418700,12.554418701171874,-2.372328851044178,-2.4699194567024705,0.9730347389303147
1700516439016428800,12.5644287109375,0.3689385263323784,4.406602389797568,1.998343708846718
1700516439026439700,12.574439697265625,2.732666722291708,-0.14666764803826807,1.434333130660653
