time,seconds_elapsed,z,y,x
1700516426468594000,0.016593994140625,0.012053467333316803,0.023873109370470047,0.0547758974134922
1700516426478603800,0.026603759765625,0.03443094342947006,-0.046898532658815384,0.09078290313482285
1700516426488614000,0.03661376953125,-0.024158332496881485,-0.002870887517929077,-0.1897512972354889
1700516426498623700,0.046623779296875,-0.024336764588952065,0.05324165150523186,-0.07611367851495743
1700516426508633900,0.0566337890625,0.0013880395563319325,-0.07869028300046921,0.02713494747877121
1700516426518644000,0.06664404296875,-0.005095425993204117,0.12596085667610168,0.02166827768087387
1700516426528653800,0.07665380859375,0.031186148524284363,-0.17692896723747253,0.15992335975170135
1700516426538664000,0.086663818359375,-0.0362408272922039,0.06965737789869308,-0.2053171992301941
1700516426548673800,0.096673828125,-0.024464596062898636,0.009120261296629906,-0.11385013908147812
1700516426558684000,0.106683837890625,0.014248178340494633,0.0219108909368515,0.0626593828201294
1700516426568693800,0.11669384765625,0.04761625453829765,-0.03940386325120926,0.12023213505744934
1700516426578704000,0.126703857421875,-0.016943030059337616,0.005583849735558033,-0.16136199235916138
1700516426588714800,0.13671484375,-0.010476876050233841,0.11488770693540573,-0.10174340754747391
1700516426598724900,0.146724853515625,0.008071774616837502,-0.1134333536028862,-0.010926417075097561
1700516426608734700,0.156734619140625,-0.0012998889433220029,0.11752104014158249,-0.011293667368590832
1700516426618744800,0.166744873046875,0.022891201078891754,-0.18264198303222656,0.1324339359998703
1700516426628755000,0.1767548828125,-0.04037272185087204,0.02556528151035309,-0.2462257593870163
1700516426638764800,0.186764892578125,-0.031096933409571648,0.02852192334830761,-0.23073653876781464
1700516426648775000,0.19677490234375,-0.0017526262672618032,-0.04469610005617142,-0.007738613523542881
1700516426658784800,0.20678466796875,0.036433909088373184,-0.04939684271812439,0.0933280810713768
1700516426668795000,0.216794921875,-0.021739117801189423,-0.06119811162352562,-0.1545610874891281
1700516426678805000,0.226804931640625,-0.04637948423624039,0.10182783007621765,-0.15484949946403503
1700516426688814800,0.23681494140625,-0.0029497172217816114,-0.11115128546953201,0.017899371683597565
1700516426698825000,0.246824951171875,-0.002034655073657632,0.09195149689912796,0.061590392142534256
1700516426708834800,0.256834716796875,0.015803197398781776,-0.14892981946468353,0.21531763672828674
1700516426718845000,0.266844970703125,-0.03539660573005676,-0.030164826661348343,-0.18376104533672333
1700516426728854800,0.276854736328125,-0.04278048500418663,0.10318630933761597,-0.24659034609794617
1700516426738865000,0.286864990234375,-0.0020354539155960083,-0.08203468471765518,-0.005633917171508074
1700516426748875000,0.296875,0.034986212849617004,-0.0057313889265060425,0.08635485917329788
1700516426758884900,0.306884765625,-0.006183327175676823,-0.08169273287057877,-0.11263253539800644
1700516426768895000,0.31689501953125,-0.03514626994729042,0.1455843597650528,-0.18039800226688385
1700516426778904800,0.32690478515625,0.018546253442764282,-0.10481137037277222,-0.030234601348638535
1700516426788915000,0.3369150390625,0.00042104575550183654,0.09312621504068375,0.03429725393652916
1700516426798924800,0.3469248046875,0.03995780274271965,-0.06514891237020493,0.2217036336660385
1700516426808935000,0.356934814453125,-0.010365289635956287,-0.08071641623973846,-0.103035569190979
1700516426818945000,0.366945068359375,-0.03632684797048569,0.15579944849014282,-0.26131123304367065
1700516426828954600,0.37695458984375,0.0043982104398310184,-0.0847279354929924,0.018441591411828995
1700516426838964700,0.38696484375,0.03543761745095253,-0.0024652881547808647,0.15171629190444946
1700516426848974600,0.396974609375,-0.004535895772278309,-0.09731217473745346,-0.047329165041446686
1700516426858984700,0.406984619140625,-0.050571564584970474,0.1307484209537506,-0.1697906255722046
1700516426868994800,0.416994873046875,0.009606288745999336,-0.11576707661151886,0.0075881448574364185
1700516426879004700,0.427004638671875,0.002802444389089942,0.06989040225744247,0.05969369038939476
1700516426889014800,0.437014892578125,0.0327848456799984,-0.0225034449249506,0.2471671849489212
1700516426899024600,0.447024658203125,-0.0041465419344604015,-0.11217527091503143,-0.05929155275225639
1700516426909034800,0.45703466796875,-0.03622245416045189,0.16746729612350464,-0.2430824190378189
1700516426919044600,0.467044677734375,0.0036842171102762222,-0.08891522139310837,0.04273974150419235
1700516426929054700,0.4770546875,0.03340855613350868,0.020193951204419136,0.16008980572223663
1700516426939064800,0.48706494140625,0.006071474403142929,-0.13657861948013306,-0.03621312975883484
1700516426949074700,0.49707470703125,-0.04869483411312103,0.14965926110744476,-0.18080653250217438
1700516426959084800,0.507084716796875,0.016812535002827644,-0.1094905436038971,0.023913055658340454
1700516426969094700,0.5170947265625,-0.0007755124825052917,0.0634375587105751,0.06260719150304794
1700516426979104800,0.527104736328125,0.03273317962884903,-0.025235582143068314,0.23026782274246216
1700516426989115000,0.537114990234375,-0.010998322628438473,-0.10722978413105011,-0.0645475685596466
1700516426999124700,0.547124755859375,-0.03377500921487808,0.16414180397987366,-0.23800137639045715
1700516427009134800,0.557134765625,-0.0025350630749017,-0.08651731163263321,0.043288618326187134
1700516427019144700,0.567144775390625,0.032098814845085144,0.03086896613240242,0.1561501920223236
1700516427029154800,0.57715478515625,0.0036224317736923695,-0.11991841346025467,-0.04772757366299629
1700516427039164700,0.58716455078125,-0.05078994482755661,0.15980324149131775,-0.19484351575374603
1700516427049174800,0.5971748046875,0.019420569762587547,-0.13587766885757446,0.02478817105293274
1700516427059185000,0.607184814453125,0.011893144808709621,0.06707197427749634,0.03352280706167221
1700516427069194800,0.61719482421875,0.029279857873916626,-0.005972937680780888,0.2181248813867569
1700516427079204900,0.627204833984375,-0.006325540132820606,-0.13336391746997833,-0.02888571098446846
1700516427089214700,0.637214599609375,-0.028612470254302025,0.17051474750041962,-0.2295658141374588
1700516427099224800,0.647224853515625,-0.00475587323307991,-0.11245037615299225,0.03074885718524456
1700516427109234700,0.657234619140625,0.03573323041200638,0.04994625598192215,0.1597108393907547
1700516427119244800,0.667244873046875,0.007783886976540089,-0.0944676473736763,-0.03400670364499092
1700516427129255000,0.6772548828125,-0.04331205412745476,0.1346861720085144,-0.1725858896970749
1700516427139264800,0.6872646484375,0.030726486817002296,-0.10522069782018661,0.03251027315855026
1700516427149275000,0.69727490234375,0.017536383122205734,0.06654547154903412,0.01805703155696392
1700516427159284700,0.70728466796875,0.032098546624183655,0.01582050882279873,0.2017885148525238
1700516427169294300,0.71729443359375,-0.006393450777977705,-0.13914243876934052,-0.05344804376363754
1700516427179304400,0.727304443359375,-0.028735773637890816,0.13926707208156586,-0.25487011671066284
1700516427189314300,0.737314208984375,-0.006100769154727459,-0.0942322239279747,0.028133101761341095
1700516427199324400,0.747324462890625,0.041725609451532364,0.04488704726099968,0.14924009144306183
1700516427209334300,0.757334228515625,0.002816825406625867,-0.07515493780374527,-0.06172914430499077
1700516427219344400,0.767344482421875,-0.04515442997217178,0.10632990300655365,-0.17275765538215637
1700516427229353200,0.777353271484375,0.020562000572681427,-0.1098703071475029,0.04048830270767212
1700516427239364400,0.7873642578125,0.020073575899004936,0.06682910025119781,0.03220134600996971
1700516427249373200,0.797373291015625,0.01944347284734249,-0.012226305902004242,0.20065107941627502
1700516427259383300,0.80738330078125,-0.008852614089846611,-0.09096692502498627,-0.07118362933397293
1700516427269393200,0.81739306640625,-0.01774810440838337,0.09104681760072708,-0.1761164367198944
1700516427279403300,0.8274033203125,-0.00029294771957211196,-0.051117513328790665,0.06574705243110657
1700516427289413000,0.8374130859375,0.03203196823596954,0.04133572056889534,0.1538497507572174
1700516427299423200,0.84742333984375,0.004107393324375153,-0.1076849177479744,-0.07027389854192734
1700516427309433300,0.857433349609375,-0.03623922914266586,0.12308517843484879,-0.16068634390830994
1700516427319443200,0.867443115234375,0.020620057359337807,-0.10678023844957352,0.06684694439172745
1700516427329453300,0.877453369140625,0.015966981649398804,0.06849357485771179,0.03231745958328247
1700516427339463200,0.887463134765625,0.021571604534983635,-0.008864864706993103,0.1948363333940506
1700516427349473300,0.897473388671875,-0.0035356127191334963,-0.0833958238363266,-0.06899531185626984
1700516427359483100,0.907483154296875,-0.020305804908275604,0.08311645686626434,-0.16912031173706055
1700516427369493200,0.9174931640625,-0.0013339773286134005,-0.04545137286186218,0.0647403821349144
1700516427379503400,0.92750341796875,0.030006900429725647,0.04048830270767212,0.14407354593276978
1700516427389513200,0.93751318359375,0.008348477073013783,-0.09990662336349487,-0.08063758909702301
1700516427399523300,0.9475234375,-0.03506530821323395,0.1128019168972969,-0.16379345953464508
1700516427409533200,0.957533203125,0.01955878734588623,-0.0985255092382431,0.0603613443672657
1700516427419543300,0.967543212890625,0.011248127557337284,0.0627392828464508,0.02682788483798504
1700516427429553200,0.97755322265625,0.019291140139102936,0.0013845774810761213,0.17412306368350983
1700516427439563300,0.987563232421875,-0.002276203827932477,-0.09523091465234756,-0.05926785245537758
1700516427449573400,0.997573486328125,-0.015385347418487072,0.08896715939044952,-0.16142617166042328
1700516427459583200,1.007583251953125,-0.0004894890007562935,-0.05401955917477608,0.06274008005857468
1700516427469593300,1.01759326171875,0.025107484310865402,0.04742557182908058,0.1319226175546646
1700516427479603200,1.027603271484375,0.006491987966001034,-0.09997346997261047,-0.06818864494562149
1700516427489613300,1.03761328125,-0.034147851169109344,0.10604733973741531,-0.15295200049877167
1700516427499623400,1.04762353515625,0.014432202093303204,-0.10023738443851471,0.07245901972055435
1700516427509633300,1.05763330078125,0.01643516682088375,0.07706069946289062,0.02250264585018158
1700516427519643400,1.067643310546875,0.01967916265130043,0.003501790575683117,0.1850481480360031
1700516427529653200,1.0776533203125,0.0008247809601016343,-0.08942202478647232,-0.05167517811059952
1700516427539663400,1.087663330078125,-0.015798671171069145,0.09344552457332611,-0.16960181295871735
1700516427549673200,1.097673095703125,-0.0015725966077297926,-0.05276041477918625,0.0586039237678051
1700516427559683300,1.107683349609375,0.026756513863801956,0.04927487298846245,0.13375593721866608
1700516427569693400,1.117693359375,0.006947388406842947,-0.09516779333353043,-0.06817878782749176
1700516427579703300,1.127703369140625,-0.03564534708857536,0.1145516112446785,-0.16000618040561676
1700516427589713400,1.13771337890625,0.01483327429741621,-0.10901942849159241,0.07664018124341965
1700516427599723300,1.14772314453125,0.018001636490225792,0.07593737542629242,0.026327744126319885
1700516427609733400,1.1577333984375,0.021637119352817535,0.00965928565710783,0.1805117130279541
1700516427619743200,1.1677431640625,0.00535614974796772,-0.09810792654752731,-0.05342008173465729
1700516427629753300,1.17775341796875,-0.019812587648630142,0.10376208275556564,-0.1856958270072937
1700516427639763500,1.187763427734375,0.002252501668408513,-0.06064736843109131,0.06636224687099457
1700516427649773300,1.197773193359375,0.02479349635541439,0.047262322157621384,0.13391917943954468
1700516427659783400,1.207783447265625,0.0006673881434835494,-0.09740085154771805,-0.07531579583883286
1700516427669793300,1.217793212890625,-0.04555816203355789,0.11464855074882507,-0.17411108314990997
1700516427679803400,1.227803466796875,0.012771189212799072,-0.1230018213391304,0.08026021718978882
1700516427689813200,1.237813232421875,0.011011905036866665,0.07029812783002853,0.029206886887550354
1700516427699823400,1.2478232421875,0.014928082935512066,-0.02311144396662712,0.1709701418876648
1700516427709833500,1.25783349609375,-0.0068176924251019955,-0.08126290142536163,-0.08024343848228455
1700516427719843300,1.26784326171875,-0.017140371724963188,0.08767712116241455,-0.1813889592885971
1700516427729853400,1.277853515625,0.002665291540324688,-0.05193403735756874,0.05649656429886818
1700516427739862300,1.2878623046875,0.03130466118454933,0.04219752177596092,0.15118472278118134
1700516427749872000,1.2978720703125,0.0012327772565186024,-0.08416175097227097,-0.08303070068359375
1700516427759882200,1.30788232421875,-0.03959667682647705,0.14146338403224945,-0.19337664544582367
1700516427769892000,1.31789208984375,0.024717330932617188,-0.11950429528951645,0.08101362735033035
1700516427779902200,1.327902099609375,0.018997127190232277,0.07740744203329086,0.04836913198232651
1700516427789912300,1.337912353515625,0.02442598156630993,-0.007962319068610668,0.1858936995267868
1700516427799922200,1.347922119140625,-0.009091765619814396,-0.0761411041021347,-0.07033941149711609
1700516427809932300,1.357932373046875,-0.021345501765608788,0.1014920026063919,-0.18011197447776794
1700516427819942100,1.367942138671875,0.00381471193395555,-0.0655134990811348,0.07920507341623306
1700516427829952300,1.3779521484375,0.0305163636803627,0.04460501670837402,0.15835848450660706
1700516427839962400,1.38796240234375,0.0033475933596491814,-0.09735504537820816,-0.0643739327788353
1700516427849972200,1.39797216796875,-0.04525775834918022,0.13144004344940186,-0.19031454622745514
1700516427859982300,1.407982421875,0.019041601568460464,-0.11978019773960114,0.08471595495939255
1700516427869992200,1.4179921875,0.01630653440952301,0.07143450528383255,0.058393001556396484
1700516427880002300,1.428002197265625,0.024776186794042587,-0.0025214808993041515,0.1843021959066391
1700516427890012200,1.43801220703125,-0.008347944356501102,-0.07805245369672775,-0.07040651887655258
1700516427900022300,1.448022216796875,-0.01601252146065235,0.1086961179971695,-0.19752240180969238
1700516427910032400,1.458032470703125,0.001555552356876433,-0.06851647794246674,0.06887920200824738
1700516427920042200,1.468042236328125,0.029227660968899727,0.05751602351665497,0.15096980333328247
1700516427930052400,1.47805224609375,0.007705057505518198,-0.09658219665288925,-0.06022632122039795
1700516427940062200,1.488062255859375,-0.04494936391711235,0.1364782154560089,-0.20932206511497498
1700516427950072300,1.498072265625,0.017837053164839745,-0.1170579120516777,0.07659943401813507
1700516427960082200,1.508082275390625,0.02053004316985607,0.06593773514032364,0.05016862973570824
1700516427970092300,1.51809228515625,0.027051856741309166,0.026519225910305977,0.16633011400699615
1700516427980102400,1.528102294921875,-0.0070312777534127235,-0.11445866525173187,-0.04219672083854675
1700516427990112300,1.5381123046875,-0.018703646957874298,0.12831056118011475,-0.21671099960803986
1700516428000122400,1.548122314453125,-0.00028628981090150774,-0.09228066354990005,0.07359752058982849
1700516428010132200,1.55813232421875,0.025306688621640205,0.0617925263941288,0.1463175266981125
1700516428020142300,1.568142333984375,0.011639345437288284,-0.11422111093997955,-0.04080548509955406
1700516428030152400,1.57815234375,-0.049492716789245605,0.12043826282024384,-0.210964173078537
1700516428040162300,1.588162353515625,0.016895625740289688,-0.11183492094278336,0.07241827249526978
1700516428050172400,1.59817236328125,0.019787020981311798,0.054481085389852524,0.053215816617012024
1700516428060182300,1.608182373046875,0.026638802140951157,0.04140017181634903,0.1663985699415207
1700516428070192400,1.6181923828125,-0.0010644654976204038,-0.14727680385112762,-0.01912975311279297
1700516428080202200,1.6282021484375,-0.019663715735077858,0.13655677437782288,-0.23661786317825317
1700516428090212400,1.63821240234375,-0.002514823107048869,-0.09865919500589371,0.06867147237062454
1700516428100221200,1.64822119140625,0.02425660379230976,0.05711335316300392,0.14821024239063263
1700516428110231000,1.65823095703125,0.010123208165168762,-0.10953821241855621,-0.02912432886660099
1700516428120241200,1.6682412109375,-0.05061870068311691,0.12199515104293823,-0.20792657136917114
1700516428130251300,1.678251220703125,0.014229802414774895,-0.10520099103450775,0.05446404218673706
1700516428140261000,1.68826123046875,0.017677530646324158,0.043834298849105835,0.040222253650426865
1700516428150271200,1.698271240234375,0.024815334007143974,0.002290584845468402,0.16509601473808289
1700516428160281000,1.708281005859375,0.004730839282274246,-0.10588409006595612,-0.03675002604722977
1700516428170292000,1.7182919921875,-0.014633004553616047,0.1030864343047142,-0.19998608529567719
1700516428180301800,1.7283017578125,-0.0018130800453945994,-0.07656321674585342,0.04793583229184151
1700516428190312000,1.73831201171875,0.022966835647821426,0.05922497436404228,0.1524403989315033
1700516428200321800,1.74832177734375,0.01938408426940441,-0.08917328715324402,-0.019877834245562553
1700516428210332000,1.758331787109375,-0.04718242585659027,0.12139460444450378,-0.21981598436832428
1700516428220342000,1.768342041015625,0.017045563086867332,-0.08819963037967682,0.05609416216611862
1700516428230352000,1.778351806640625,0.019768644124269485,0.04801972210407257,0.05933309718966484
1700516428240362000,1.788362060546875,0.0315997377038002,0.06130729988217354,0.14029160141944885
1700516428250371800,1.798371826171875,0.001969673903658986,-0.14121465384960175,-0.004116980824619532
1700516428260382000,1.8083818359375,-0.02034814842045307,0.14073927700519562,-0.2303573042154312
1700516428270392000,1.81839208984375,-0.0027017768006771803,-0.09370119124650955,0.055694419890642166
1700516428280402000,1.82840185546875,0.022311696782708168,0.07239270955324173,0.13729608058929443
1700516428290412000,1.838412109375,0.01950206235051155,-0.09682614356279373,-0.011501393280923367
1700516428300422000,1.848421875,-0.04832864925265312,0.12172004580497742,-0.2238922119140625
1700516428310432000,1.858431884765625,0.022581208497285843,-0.08908913284540176,0.05801749601960182
1700516428320441900,1.86844189453125,0.018393654376268387,0.05702813342213631,0.05600574612617493
1700516428330452000,1.878451904296875,0.03181438893079758,0.06820382177829742,0.12940245866775513
1700516428340462000,1.888462158203125,0.0067575047723948956,-0.13116174936294556,-0.006074670236557722
1700516428350472000,1.898471923828125,-0.010073672980070114,0.12093786895275116,-0.20949064195156097
1700516428360482000,1.90848193359375,-0.002442118711769581,-0.07998937368392944,0.04364867880940437
1700516428370492000,1.918491943359375,0.02522173337638378,0.06916975229978561,0.12572011351585388
1700516428380502000,1.928501953125,0.02316524088382721,-0.08417613059282303,0.014479073695838451
1700516428390511900,1.938511962890625,-0.04275971278548241,0.0973326787352562,-0.21890199184417725
1700516428400522000,1.94852197265625,0.013580257073044777,-0.07494507730007172,0.0454910509288311
1700516428410532000,1.958531982421875,0.004791825544089079,0.040951695293188095,0.06581602990627289
1700516428420542000,1.9685419921875,0.023244868963956833,0.11844541877508163,0.09522611647844315
1700516428430552000,1.978552001953125,0.002148105762898922,-0.1869073063135147,0.08165384829044342
1700516428440561000,1.988560791015625,-0.016043681651353836,0.15515150129795074,-0.24269627034664154
1700516428450570800,1.99857080078125,-0.008642223663628101,-0.06983473896980286,0.024529045447707176
1700516428460580900,2.008580810546875,0.025496572256088257,0.0651923194527626,0.118791364133358
1700516428470590700,2.0185908203125,0.02726277895271778,-0.06553666293621063,0.0450577549636364
1700516428480600800,2.028600830078125,-0.04074263572692871,0.07333812862634659,-0.19923719763755798
1700516428490611000,2.03861083984375,0.01227344386279583,-0.029099028557538986,0.0046850331127643585
1700516428500620800,2.048620849609375,-0.0021174794528633356,0.0223844014108181,0.0662892758846283
1700516428510631000,2.058630859375,0.023068301379680634,0.12348944693803787,0.09679365158081055
1700516428520640800,2.068640869140625,0.0013057478936389089,-0.1662970930337906,0.08719402551651001
1700516428530651000,2.07865087890625,-0.006897320970892906,0.10972942411899567,-0.221519336104393
1700516428540660700,2.08866064453125,-0.012672651559114456,-0.062369633466005325,-0.005057342816144228
1700516428550670800,2.0986708984375,0.018026936799287796,0.04141721501946449,0.10056788474321365
1700516428560681000,2.108680908203125,0.024223314598202705,-0.05792907997965813,0.06869464367628098
1700516428570690800,2.11869091796875,-0.040760211646556854,0.05772028863430023,-0.18961787223815918
1700516428580701000,2.128700927734375,0.003026682650670409,-0.007382548879832029,-0.016993364319205284
1700516428590710800,2.138710693359375,-0.0018314558546990156,-0.01417467463761568,0.07877017557621002
1700516428600721000,2.148720947265625,0.010871290229260921,0.13118252158164978,0.07067150622606277
1700516428610731000,2.15873095703125,0.0021781993564218283,-0.13993500173091888,0.1302269846200943
1700516428620740900,2.168740966796875,-0.012529906816780567,0.10159293562173843,-0.22747071087360382
1700516428630751000,2.1787509765625,-0.02112632431089878,-0.037882667034864426,-0.034378744661808014
1700516428640760800,2.1887607421875,0.01606285572052002,0.029103023931384087,0.10804551094770432
1700516428650771000,2.19877099609375,0.02804202027618885,-0.03610500693321228,0.08265839517116547
1700516428660780800,2.20878076171875,-0.029954969882965088,0.026502180844545364,-0.1896253228187561
1700516428670791000,2.218791015625,-0.0026048377621918917,0.024469124153256416,-0.05372394993901253
1700516428680801000,2.228801025390625,-0.0006511429091915488,-0.052797432988882065,0.09224950522184372
1700516428690811000,2.238810791015625,0.004620584659278393,0.13313435018062592,0.0745013952255249
1700516428700821000,2.248821044921875,0.00344506511464715,-0.12121111154556274,0.14229989051818848
1700516428710830800,2.258830810546875,-0.024826254695653915,0.0854342058300972,-0.2130875140428543
1700516428720841000,2.268841064453125,-0.02383422665297985,-0.014977351762354374,-0.04044649377465248
1700516428730850800,2.278850830078125,0.02081606537103653,0.024648888036608696,0.11551674455404282
1700516428740861000,2.28886083984375,0.01979234628379345,-0.0184615645557642,0.09280530363321304
1700516428750871000,2.29887109375,-0.014342187903821468,0.01613422855734825,-0.16600708663463593
1700516428760881000,2.308880859375,-0.014424213208258152,0.05011376738548279,-0.07285929471254349
1700516428770891000,2.31889111328125,0.006222475785762072,-0.08131669461727142,0.09113763272762299
1700516428780900900,2.32890087890625,-0.0018540926976129413,0.1338171809911728,0.067685566842556
1700516428790911000,2.338910888671875,0.010480337776243687,-0.10469844937324524,0.15501461923122406
1700516428800921000,2.348921142578125,-0.028202876448631287,0.06102313846349716,-0.18271096050739288
1700516428810930000,2.358929931640625,-0.024656344205141068,-0.008213454857468605,-0.06964592635631561
1700516428820940000,2.36893994140625,0.006110623013228178,0.011924304068088531,0.09358347952365875
1700516428830950000,2.378949951171875,0.010194048285484314,-0.030233269557356834,0.10805749148130417
1700516428840959700,2.388959716796875,-0.011653726920485497,-0.014199974946677685,-0.15395814180374146
1700516428850969900,2.398969970703125,-0.029397835955023766,0.05883641913533211,-0.1128956601023674
1700516428860979700,2.408979736328125,0.008803078904747963,-0.10160225629806519,0.08227729797363281
1700516428870989800,2.41898974609375,-0.005357747431844473,0.1065693199634552,0.054480019956827164
1700516428880999700,2.428999755859375,0.010583136230707169,-0.07804473489522934,0.16074466705322266
1700516428891009800,2.439009765625,-0.017703363671898842,0.03521311283111572,-0.17332571744918823
1700516428901020000,2.44902001953125,-0.027127757668495178,0.021319402381777763,-0.0970783457159996
1700516428911029800,2.45902978515625,0.013500628992915154,-0.011659053154289722,0.09692548215389252
1700516428921040000,2.469039794921875,0.00845713447779417,0.006826480850577354,0.12015277147293091
1700516428931049700,2.4790498046875,0.003441869281232357,-0.027723772451281548,-0.12409931421279907
1700516428941059800,2.489059814453125,-0.034438665956258774,0.07151199877262115,-0.13395380973815918
1700516428951070000,2.499070068359375,0.01398665551096201,-0.10861089825630188,0.08624514192342758
1700516428961079800,2.509079833984375,0.01576245203614235,0.07358287274837494,0.05271008238196373
1700516428971090000,2.51908984375,0.023131152614951134,-0.059549082070589066,0.15807858109474182
1700516428981099800,2.529099853515625,-0.018990734592080116,-0.004536162130534649,-0.1289566457271576
1700516428991110000,2.53910986328125,-0.024995097890496254,0.050699662417173386,-0.1302940845489502
1700516429001119700,2.54911962890625,0.01750602386891842,-0.04355626553297043,0.08896981924772263
1700516429011129900,2.5591298828125,0.009398561902344227,0.034150514751672745,0.12085318565368652
1700516429021140000,2.569139892578125,0.010134393349289894,-0.041743986308574677,-0.0989132672548294
1700516429031149800,2.57914990234375,-0.039914391934871674,0.0729043036699295,-0.15993879735469818
1700516429041160000,2.589159912109375,0.017840515822172165,-0.10265074670314789,0.08676978200674057
1700516429051169800,2.599169677734375,0.02334367111325264,0.06703042984008789,0.039684563875198364
1700516429061180000,2.609179931640625,0.028906216844916344,-0.03195447102189064,0.14558303356170654
1700516429071189800,2.619189697265625,-0.0176991019397974,-0.04820135235786438,-0.08493805676698685
1700516429081199900,2.629199951171875,-0.020716996863484383,0.08275213837623596,-0.16463342308998108
1700516429091210000,2.6392099609375,0.013665478676557541,-0.06928213685750961,0.07287553697824478
1700516429101219800,2.6492197265625,0.010549047030508518,0.04627322405576706,0.12360822409391403
1700516429111230000,2.65922998046875,0.016884440556168556,-0.06413477659225464,-0.06962062418460846
1700516429121239800,2.66923974609375,-0.04336824640631676,0.0716070756316185,-0.18412455916404724
1700516429131250000,2.67925,0.017348363995552063,-0.08264614641666412,0.07634217292070389
1700516429141260000,2.689260009765625,0.02304699644446373,0.04529238119721413,0.050400324165821075
1700516429151270000,2.699269775390625,0.03412068635225296,0.02575170248746872,0.1374148428440094
1700516429161280000,2.709280029296875,-0.005496498197317123,-0.10981304943561554,-0.036544427275657654
1700516429171293700,2.719293701171875,-0.01625007577240467,0.1103089302778244,-0.19937781989574432
1700516429181303800,2.7293037109375,0.007407316006720066,-0.08556470274925232,0.06745573878288269
1700516429191313700,2.739313720703125,0.014494254253804684,0.05263498052954674,0.12226545810699463
1700516429201323800,2.74932373046875,0.02449016273021698,-0.06263754516839981,-0.033066075295209885
1700516429211333600,2.759333740234375,-0.04853637516498566,0.06874018162488937,-0.20126813650131226
1700516429221343700,2.76934375,0.01853986270725727,-0.06716146320104599,0.058878231793642044
1700516429231353900,2.779353759765625,0.017410682514309883,0.04845195636153221,0.06685919314622879
1700516429241363700,2.78936376953125,0.03359231352806091,0.06341812014579773,0.12393818795681
1700516429251373800,2.799373779296875,-0.0014924354618415236,-0.12426655739545822,-0.012645754031836987
1700516429261383700,2.8093837890625,-0.005246960092335939,0.12079033255577087,-0.21177643537521362
1700516429271393800,2.819393798828125,0.008928247727453709,-0.0814671590924263,0.055338356643915176
1700516429281404000,2.82940380859375,0.01661199890077114,0.04114770144224167,0.11862970888614655
1700516429291413800,2.839413818359375,0.029044434428215027,-0.05343952402472496,-0.005328452680259943
1700516429301423900,2.849423828125,-0.047444213181734085,0.06144951283931732,-0.20745998620986938
1700516429311433700,2.859433837890625,0.013552027754485607,-0.05032096058130264,0.03454120084643364
1700516429321443800,2.86944384765625,0.0044259075075387955,0.034211233258247375,0.07532085478305817
1700516429331453700,2.87945361328125,0.03136138617992401,0.10457194596529007,0.1023881584405899
1700516429341463800,2.8894638671875,-0.0019443739438429475,-0.136320561170578,0.017432520166039467
1700516429351474000,2.899473876953125,-0.009760218672454357,0.10578767955303192,-0.2113652378320694
1700516429361483500,2.9094833984375,-0.000737695605494082,-0.08015262335538864,0.02954004891216755
1700516429371493600,2.91949365234375,0.015255119651556015,0.036069586873054504,0.10493174195289612
1700516429381503500,2.92950341796875,0.03137177228927612,-0.06924618035554886,0.0246073417365551
1700516429391513600,2.939513671875,-0.048472460359334946,0.0756675973534584,-0.20115654170513153
1700516429401523700,2.949523681640625,0.013949903659522533,-0.04501328244805336,0.013909956440329552
1700516429411533600,2.959533447265625,-0.00358834327198565,0.013018863275647163,0.08552289009094238
1700516429421543700,2.969543701171875,0.019812587648630142,0.12409292161464691,0.08084078878164291
1700516429431553500,2.979553466796875,-0.006031527183949947,-0.13567101955413818,0.06855642050504684
1700516429441563600,2.989563720703125,-0.01341807097196579,0.10254528373479843,-0.2173650711774826
1700516429451573500,2.999573486328125,-0.009587380103766918,-0.06175098195672035,0.00780519237741828
1700516429461583600,3.00958349609375,0.012082229368388653,0.03307299688458443,0.10171837359666824
1700516429471593700,3.01959375,0.02659379318356514,-0.041906971484422684,0.05082882568240166
1700516429481603600,3.029603515625,-0.03002394549548626,0.04345612972974777,-0.1915995180606842
1700516429491613700,3.03961376953125,0.00039867521263659,-0.008522914722561836,-0.026687536388635635
1700516429501623600,3.04962353515625,-0.0016642092959955335,-0.025716016069054604,0.08580119162797928
1700516429511633700,3.059633544921875,0.004563060123473406,0.13107413053512573,0.06815774738788605
1700516429521643500,3.0696435546875,-0.0029379993211477995,-0.1292828917503357,0.10639621317386627
1700516429531653600,3.079653564453125,-0.020446686074137688,0.08893333375453949,-0.22243547439575195
1700516429541663700,3.089663818359375,-0.02135349251329899,-0.03574920818209648,-0.019475430250167847
1700516429551673600,3.099673583984375,0.010764230974018574,0.02046985551714897,0.10176923871040344
1700516429561683700,3.10968359375,0.021641112864017487,-0.02797597460448742,0.06674733757972717
1700516429571693600,3.119693603515625,-0.019711652770638466,0.01738644763827324,-0.18231308460235596
1700516429581703700,3.12970361328125,-0.007101318798959255,0.018972359597682953,-0.05560946464538574
1700516429591713800,3.1397138671875,0.004342284053564072,-0.07147258520126343,0.08545524626970291
1700516429601723600,3.1497236328125,-0.0010042780777439475,0.12051975727081299,0.0673217847943306
1700516429611733800,3.159733642578125,0.001311873085796833,-0.11126074194908142,0.14645308256149292
1700516429621743600,3.16974365234375,-0.017763817682862282,0.07874807715415955,-0.21286939084529877
1700516429631753700,3.179753662109375,-0.02623959258198738,-0.008827047422528267,-0.05396416410803795
1700516429641763600,3.189763671875,0.013288108631968498,0.003611779073253274,0.10281506180763245
1700516429651773700,3.199773681640625,0.015870574861764908,-0.0187196247279644,0.08083652704954147
1700516429661783800,3.20978369140625,-0.013008742593228817,-0.0012215919559821486,-0.17160078883171082
1700516429671793700,3.219793701171875,-0.021082116290926933,0.03719610348343849,-0.09013548493385315
1700516429681803800,3.2298037109375,0.007122357841581106,-0.09544529765844345,0.09046252071857452
1700516429691813600,3.239813720703125,-0.0032405343372374773,0.10915711522102356,0.06064603477716446
1700516429701823700,3.24982373046875,0.007041131611913443,-0.10472667962312698,0.14946405589580536
1700516429711833600,3.25983349609375,-0.022368421778082848,0.06394276022911072,-0.20435605943202972
1700516429721843700,3.26984375,-0.030344856902956963,0.0023997745011001825,-0.06859584152698517
1700516429731853800,3.279853759765625,0.01649056002497673,-0.004314853344112635,0.10603056102991104
1700516429741863700,3.28986376953125,0.010090184397995472,-0.02123311720788479,0.08747205883264542
1700516429751873800,3.299873779296875,-0.010569021105766296,-0.012924054637551308,-0.17662057280540466
1700516429761883600,3.309883544921875,-0.024321051314473152,0.04896621033549309,-0.10235247015953064
1700516429771893800,3.319893798828125,0.006175604183226824,-0.11341497302055359,0.09383407980203629
1700516429781903600,3.329903564453125,-0.004802478477358818,0.11621981859207153,0.05567764490842819
1700516429791913700,3.339913818359375,0.005056810099631548,-0.11153105646371841,0.13719327747821808
1700516429801923800,3.349923828125,-0.03693511337041855,0.061717692762613297,-0.19298996031284332
1700516429811933700,3.35993359375,-0.023669376969337463,-0.0070339408703148365,-0.07239164412021637
1700516429821943800,3.36994384765625,0.00950641930103302,0.0031968585681170225,0.08481768518686295
1700516429831954700,3.37995458984375,0.009534915909171104,-0.03568555787205696,0.0866861566901207
1700516429841964800,3.38996484375,-0.011943744495511055,-0.030362965539097786,-0.16817408800125122
1700516429851974700,3.399974609375,-0.033835992217063904,0.07144728302955627,-0.12949833273887634
1700516429861984800,3.40998486328125,0.010785003192722797,-0.12220979481935501,0.07940054684877396
1700516429871994600,3.41999462890625,-0.0018439727136865258,0.09885919839143753,0.04051227122545242
1700516429882004700,3.430004638671875,0.0033878071699291468,-0.09541094303131104,0.14570046961307526
1700516429892014800,3.440014892578125,-0.03327007219195366,0.026867300271987915,-0.1922064572572708
1700516429902024700,3.450024658203125,-0.02533544972538948,0.032155539840459824,-0.12718698382377625
1700516429912034800,3.460034912109375,0.005082110408693552,-0.03635480999946594,0.06132461130619049
1700516429922044700,3.470044677734375,0.012440690770745277,-0.027773307636380196,0.08006500452756882
1700516429932054800,3.4800546875,-0.019727632403373718,-0.08231697976589203,-0.16790537536144257
1700516429942064600,3.490064697265625,-0.05383553355932236,0.13147519528865814,-0.21624548733234406
1700516429952074800,3.50007470703125,0.008137554861605167,-0.16070020198822021,0.02280065417289734
1700516429962084900,3.5100849609375,-0.0065460498444736,0.07129308581352234,0.009440639987587929
1700516429972094700,3.5200947265625,0.010824950411915779,-0.08190791308879852,0.1666819304227829
1700516429982104800,3.530104736328125,-0.043899811804294586,-0.05748593062162399,-0.1505271941423416
1700516429992114700,3.54011474609375,-0.04248301312327385,0.11047165095806122,-0.22429116070270538
1700516430002124800,3.550124755859375,-0.00808961782604456,-0.0786689817905426,0.026980750262737274
1700516430012135000,3.560135009765625,0.013017531484365463,-0.020906614139676094,0.11987127363681793
1700516430022144800,3.570144775390625,-0.020710604265332222,-0.12972337007522583,-0.084254689514637
1700516430032155000,3.58015478515625,-0.05511385202407837,0.18986128270626068,-0.20832736790180206
1700516430042164700,3.590164794921875,0.014592524617910385,-0.10762526094913483,0.004290885291993618
1700516430052174800,3.6001748046875,-0.002228266792371869,0.079340361058712,0.00950988195836544
1700516430062185700,3.610185791015625,0.0205681249499321,-0.048232775181531906,0.18695177137851715
1700516430072195800,3.62019580078125,-0.029211414977908134,-0.12613609433174133,-0.07084035128355026
1700516430082205700,3.630205810546875,-0.039686158299446106,0.13768036663532257,-0.2162092626094818
1700516430092215800,3.6402158203125,-0.015632489696145058,-0.04538292810320854,0.024237163364887238
1700516430102225700,3.6502255859375,0.033432524651288986,0.047090813517570496,0.13275165855884552
1700516430112235800,3.66023583984375,0.00022264027211349458,-0.11140375584363937,-0.07483083009719849
1700516430122246000,3.670245849609375,-0.05432369187474251,0.16712507605552673,-0.2240898311138153
1700516430132255700,3.680255859375,0.016292953863739967,-0.11589358001947403,0.02929983101785183
1700516430142265900,3.690265869140625,0.018002169206738472,0.03898122161626816,0.05383953079581261
1700516430152275700,3.700275634765625,0.037328463047742844,0.02388695627450943,0.1790272742509842
1700516430162285800,3.710285888671875,-0.0035960664972662926,-0.1418207883834839,-0.018856512382626534
1700516430172296000,3.7202958984375,-0.019283415749669075,0.2051645964384079,-0.23621892929077148
1700516430182305800,3.730305908203125,0.00649678148329258,-0.05926678702235222,0.06618381291627884
1700516430192316000,3.74031591796875,0.03960173949599266,0.07302174717187881,0.19166956841945648
1700516430202325800,3.75032568359375,0.008962335996329784,-0.13564731180667877,0.010687265545129776
1700516430212335900,3.7603359375,-0.05269916355609894,0.15709854662418365,-0.21771341562271118
1700516430222346800,3.7703466796875,0.014677213504910469,-0.13196362555027008,0.014425012283027172
1700516430232356900,3.78035693359375,0.007848335430026054,0.03196512162685394,0.015853265300393105
1700516430242366700,3.79036669921875,0.02695678174495697,0.005543369799852371,0.151341050863266
1700516430252376800,3.800376953125,-0.012869459576904774,-0.17382824420928955,-0.00914156623184681
1700516430262386700,3.81038671875,-0.02461612969636917,0.15704500675201416,-0.28484851121902466
1700516430272396800,3.820396728515625,-0.007924235425889492,-0.06940624117851257,-0.008448345586657524
1700516430282407000,3.830406982421875,0.031557925045490265,0.05160992965102196,0.14575719833374023
1700516430292416800,3.840416748046875,0.019280754029750824,-0.16087277233600616,0.027226828038692474
1700516430302427000,3.850427001953125,-0.05957091972231865,0.14655481278896332,-0.22978392243385315
1700516430312436700,3.860436767578125,0.018741995096206665,-0.07477490603923798,0.0005707154050469398
1700516430322446800,3.87044677734375,0.005757487844675779,0.02328534796833992,0.04013170674443245
1700516430332456700,3.880456787109375,0.04344388097524643,0.050095126032829285,0.16668272018432617
1700516430342466800,3.890466796875,-0.00005273058923194185,-0.224863201379776,0.04259539768099785
1700516430352477000,3.900476806640625,-0.030280407518148422,0.17236138880252838,-0.27412742376327515
1700516430362487800,3.91048779296875,-0.010803379118442535,-0.08663769066333771,-0.00381417921744287
1700516430372498000,3.920497802734375,0.02418549731373787,0.048714008182287216,0.15439090132713318
1700516430382507800,3.9305078125,0.027890220284461975,-0.1643870770931244,0.049421343952417374
1700516430392518000,3.940517822265625,-0.060454290360212326,0.12046302855014801,-0.22035208344459534
1700516430402527700,3.95052783203125,0.016113989055156708,-0.0525343157351017,-0.0035859462805092335
1700516430412537900,3.960537841796875,0.0035577169619500637,0.0167374350130558,0.059058260172605515
1700516430422547700,3.970547607421875,0.040823597460985184,0.07933929562568665,0.1721198409795761
1700516430432557800,3.980557861328125,0.006589991971850395,-0.18378713726997375,0.045711029320955276
1700516430442568000,3.99056787109375,-0.012242285534739494,0.15264174342155457,-0.23896624147891998
1700516430452577800,4.000577880859375,-0.008356200531125069,-0.05904068425297737,0.0007693872321397066
1700516430462588000,4.010587890625,0.031123830005526543,0.07077936083078384,0.1523730307817459
1700516430472598800,4.020598876953125,0.03122183494269848,-0.10607104003429413,0.07013887166976929
1700516430482609000,4.03060888671875,-0.036075446754693985,0.11502139270305634,-0.21687878668308258
1700516430492618800,4.04061865234375,0.014089453965425491,-0.03418886289000511,0.0062360577285289764
1700516430502628900,4.05062890625,0.001683916780166328,0.039088014513254166,0.07380391657352448
1700516430512638700,4.060638671875,0.037279196083545685,0.13485102355480194,0.122330442070961
1700516430522648800,4.07064892578125,0.013788782991468906,-0.20950661599636078,0.11547093838453293
1700516430532658700,4.08065869140625,-0.02245337702333927,0.17257016897201538,-0.25804218649864197
1700516430542668800,4.090668701171875,-0.008558601140975952,-0.0282292403280735,-0.020000074058771133
1700516430552679000,4.100678955078125,0.026276344433426857,0.05375457555055618,0.12229342013597488
1700516430562688800,4.110688720703125,0.03522190451622009,-0.0866297036409378,0.053273074328899384
1700516430572700000,4.120699951171875,-0.04242096096277237,0.08353777229785919,-0.20454168319702148
1700516430582709800,4.130709716796875,0.011469968594610691,-0.009987919591367245,-0.01937609538435936
1700516430592720000,4.140719970703125,-0.01010776124894619,0.010526943020522594,0.047634631395339966
1700516430602729700,4.150729736328125,0.03550606220960617,0.13094709813594818,0.08609813451766968
1700516430612739800,4.16073974609375,0.012587164528667927,-0.20177918672561646,0.12923495471477509
1700516430622749700,4.170749755859375,-0.02480175346136093,0.12924906611442566,-0.2591055929660797
1700516430632759800,4.180759765625,-0.021447502076625824,0.0046599991619586945,-0.07280682772397995
1700516430642770000,4.19077001953125,0.02618260122835636,0.04079030826687813,0.10105045139789581
1700516430652779800,4.20077978515625,0.0391245000064373,-0.08764729648828506,0.057253967970609665
1700516430662790700,4.210790771484375,-0.043535493314266205,0.04592940956354141,-0.22972799837589264
1700516430672800800,4.22080078125,0.0019459717441350222,0.0414598248898983,-0.05997571721673012
1700516430682811000,4.230810791015625,0.0030104373581707478,-0.04252509027719498,0.048655953258275986
1700516430692820700,4.24082080078125,0.02093430981040001,0.12051495909690857,0.06565117835998535
1700516430702830800,4.250830810546875,0.013757890090346336,-0.17968906462192535,0.13075721263885498
1700516430712840700,4.2608408203125,-0.023492276668548584,0.06623148173093796,-0.253324419260025
1700516430722850800,4.270850830078125,-0.019348131492733955,0.014783207327127457,-0.09582027047872543
1700516430732861000,4.28086083984375,0.018193650990724564,0.013907293789088726,0.0982794314622879
1700516430742870800,4.290870849609375,0.026521887630224228,-0.08682624250650406,0.10020356625318527
1700516430752881700,4.300881591796875,-0.04033810272812843,-0.008903746493160725,-0.19773145020008087
1700516430762891800,4.310891845703125,-0.009308280423283577,0.07801703363656998,-0.08339209854602814
1700516430772902000,4.32090185546875,0.0006668555433861911,-0.08649787306785583,0.06503545492887497
1700516430782911700,4.330911865234375,0.014770423993468285,0.10621858388185501,0.09620989114046097
1700516430792921900,4.340921875,0.01489079836755991,-0.13613919913768768,0.18792089819908142
1700516430802931700,4.350931640625,-0.0349462665617466,0.06116002798080444,-0.2260134220123291
1700516430812941800,4.36094189453125,-0.026428410783410072,0.07117857038974762,-0.1326262205839157
1700516430822952700,4.37095263671875,0.01721440628170967,0.007528489921241999,0.11180882155895233
1700516430832962800,4.380962890625,0.036848828196525574,-0.06525490432977676,0.12288437783718109
1700516430842972700,4.39097265625,-0.03639502450823784,0.001091629732400179,-0.18416397273540497
1700516430852982800,4.400982666015625,-0.028269454836845398,0.11220536381006241,-0.11324453353881836
1700516430862992600,4.41099267578125,0.01034718006849289,-0.09958305209875107,0.05017076060175896
1700516430873002800,4.421002685546875,0.00926407240331173,0.10571204870939255,0.07187152653932571
1700516430883012900,4.431012939453125,0.015392005443572998,-0.12477735430002213,0.18912704288959503
1700516430893022700,4.441022705078125,-0.03587064892053604,-0.014365890063345432,-0.2038191705942154
1700516430903033900,4.451033935546875,-0.03965819627046585,0.11496706306934357,-0.17402799427509308
1700516430913043700,4.461043701171875,0.015461248345673084,-0.02881593629717827,0.09585222601890564
1700516430923053800,4.4710537109375,0.030942736193537712,-0.05542943626642227,0.13354341685771942
1700516430933063700,4.481063720703125,-0.033065807074308395,-0.03231026977300644,-0.16180914640426636
1700516430943073800,4.49107373046875,-0.03293051943182945,0.12259675562381744,-0.10737812519073486
1700516430953083600,4.501083740234375,0.009474195539951324,-0.08719402551651001,0.04556375741958618
1700516430963093800,4.51109375,0.005830192007124424,0.1105121299624443,0.08467387408018112
1700516430973104600,4.521104736328125,0.02058863267302513,-0.12009045481681824,0.22964011132717133
1700516430983114800,4.53111474609375,-0.02630803734064102,0.011385279707610607,-0.18192638456821442
1700516430993124600,4.54112451171875,-0.030465230345726013,0.08655592799186707,-0.16916745901107788
1700516431003134700,4.551134765625,0.023332485929131508,-0.002139583695679903,0.07274477928876877
1700516431013144800,4.561144775390625,0.019392073154449463,-0.06079597398638725,0.1376713067293167
1700516431023154700,4.57115478515625,-0.021280521526932716,-0.04077858850359917,-0.17502614855766296
1700516431033164800,4.581164794921875,-0.014267086051404476,0.11577879637479782,-0.1148858368396759
1700516431043175700,4.59117578125,0.01149553433060646,-0.07623191922903061,0.03123728185892105
1700516431053185800,4.601185791015625,0.008645419962704182,0.061538729816675186,0.042818304151296616
1700516431063195600,4.611195556640625,0.007223558146506548,-0.12707991898059845,0.1884402185678482
1700516431073205800,4.621205810546875,-0.02214444987475872,0.011685417965054512,-0.20288866758346558
1700516431083215600,4.631215576171875,-0.02472345530986786,0.028922727331519127,-0.13430801033973694
1700516431093225700,4.641225830078125,0.013250291347503662,-0.00686083547770977,0.07383400946855545
1700516431103236600,4.651236572265625,0.006742058787494898,-0.07868469506502151,0.1299675852060318
1700516431113246700,4.661246826171875,-0.038229942321777344,-0.021680794656276703,-0.19013558328151703
1700516431123256600,4.671256591796875,-0.005662945564836264,0.07701116055250168,-0.059366654604673386
1700516431133266700,4.6812666015625,-0.01005343347787857,-0.05067755654454231,0.07902531325817108
1700516431143276800,4.69127685546875,0.010731473565101624,0.11280377954244614,0.11076059937477112
1700516431153286700,4.70128662109375,0.0006514092092402279,-0.10605932772159576,0.17784616351127625
1700516431163297800,4.7112978515625,-0.03163968399167061,0.06458458304405212,-0.19436761736869812
1700516431173307100,4.72130712890625,-0.033422406762838364,-0.008842227049171925,-0.07985009253025055
1700516431183317200,4.731317138671875,0.015718774870038033,0.03365197032690048,0.1234966367483139
1700516431193326800,4.741326904296875,-0.009313073940575123,-0.08197928965091705,0.12180446833372116
1700516431203337000,4.7513369140625,-0.03495878353714943,0.0036738307680934668,-0.19654954969882965
1700516431213347000,4.76134716796875,-0.021626997739076614,0.09173285216093063,-0.08588481694459915
1700516431223358200,4.771358154296875,-0.008161523379385471,-0.09475606679916382,0.08124558627605438
1700516431233368000,4.7813681640625,0.005025384947657585,0.11724087595939636,0.060992248356342316
1700516431243378200,4.791378173828125,0.006209160201251507,-0.12160179764032364,0.15271657705307007
1700516431253388300,4.80138818359375,-0.032762207090854645,0.056957826018333435,-0.2339472472667694
1700516431263398100,4.811398193359375,-0.017682325094938278,0.009876333177089691,-0.11397184431552887
1700516431273408300,4.821408203125,0.023740483447909355,0.018632806837558746,0.11463870108127594
1700516431283419100,4.831419189453125,0.013433250598609447,-0.08349915593862534,0.12375043332576752
1700516431293429200,4.84142919921875,-0.028663335368037224,-0.005440305452793837,-0.17371027171611786
1700516431303439000,4.851439208984375,-0.0030216225422918797,0.08528853207826614,-0.0756838396191597
1700516431313449200,4.86144921875,-0.006375074852257967,-0.12277305871248245,0.09005532413721085
1700516431323459000,4.871458984375,0.01025556679815054,0.09133630245923996,0.07145607471466064
1700516431333469200,4.88146923828125,0.001008805469609797,-0.11636469513177872,0.18173837661743164
1700516431343480000,4.89147998046875,-0.03970719873905182,0.027399666607379913,-0.20913058519363403
1700516431353490200,4.901490234375,-0.028300346806645393,0.02528245374560356,-0.11681263893842697
1700516431363500000,4.9115,0.008952748961746693,0.0054610781371593475,0.11297715455293655
1700516431373510100,4.92151025390625,0.0011233213590458035,-0.04742290824651718,0.12699949741363525
1700516431383520000,4.93152001953125,-0.040882185101509094,0.007694138679653406,-0.18043822050094604
1700516431393531100,4.94153125,-0.008250473067164421,0.08411567658185959,-0.055621448904275894
1700516431403541000,4.951541015625,-0.002528405049815774,-0.08124292641878128,0.09324765205383301
1700516431413551000,4.961551025390625,0.006053365301340818,0.12698058784008026,0.06477925926446915
1700516431423561200,4.971561279296875,0.006988134700804949,-0.10452214628458023,0.17643095552921295
1700516431433571000,4.981571044921875,-0.040344227105379105,0.05329731106758118,-0.19405949115753174
1700516431443581200,4.991581298828125,-0.022664565593004227,0.0057249972596764565,-0.12008779495954514
1700516431453592000,5.001592041015625,0.017678329721093178,0.008746353909373283,0.09644638001918793
1700516431463602200,5.011602294921875,0.007691475562751293,-0.058401789516210556,0.11765392869710922
1700516431473612000,5.021612060546875,-0.03362613543868065,0.003376888344064355,-0.21175193786621094
1700516431483622100,5.0316220703125,-0.008096542209386826,0.06049690023064613,-0.07601620256900787
1700516431493632000,5.041632080078125,0,-0.09586793929338455,0.09647354483604431
1700516431503643100,5.05164306640625,0.005240035708993673,0.11096140742301941,0.05579695105552673
1700516431513653000,5.061653076171875,0.008233961649239063,-0.08450689166784286,0.14907070994377136
1700516431523663000,5.0716630859375,-0.03033367171883583,0.026792997494339943,-0.1681240200996399
1700516431533673000,5.0816728515625,-0.014599981717765331,0.01290647778660059,-0.09850047528743744
1700516431543683000,5.09168310546875,0.014355236664414406,0.02467259019613266,0.09625089913606644
1700516431553694000,5.10169384765625,0.01870870590209961,-0.03568289801478386,0.13601775467395782
1700516431563704000,5.1117041015625,-0.012179167941212654,-0.026149844750761986,-0.15493418276309967
1700516431573714000,5.1217138671875,-0.0055215316824615,0.073680080473423,-0.12454565614461899
1700516431583724000,5.13172412109375,0.0033071134239435196,-0.12176824361085892,0.08262430876493454
1700516431593734100,5.141734130859375,0.014221013523638248,0.05961752310395241,0.07235116511583328
1700516431603745000,5.1517451171875,0.009154349565505981,-0.04486973583698273,0.16364619135856628
1700516431613755000,5.1617548828125,-0.015251923352479935,-0.0016114787431433797,-0.15692730247974396
1700516431623765000,5.171764892578125,-0.027236681431531906,0.05638178437948227,-0.13762444257736206
1700516431633775000,5.181775146484375,0.005461877211928368,-0.011404454708099365,0.09374380111694336
1700516431643785000,5.191784912109375,0.019157448783516884,-0.00037630466977134347,0.1465228646993637
1700516431653795800,5.2017958984375,-0.009133843705058098,-0.04673954099416733,-0.13505928218364716
1700516431663806000,5.211805908203125,-0.02040966786444187,0.0881037563085556,-0.15077246725559235
1700516431673816000,5.221816162109375,0.007939682342112064,-0.09118210524320602,0.08045622706413269
1700516431683826000,5.231825927734375,0.03383173421025276,0.05043547600507736,0.07545747607946396
1700516431693837000,5.241837158203125,0.014510499313473701,-0.016327308490872383,0.15282656252384186
1700516431703847200,5.25184716796875,-0.012851083651185036,-0.018796324729919434,-0.11607068032026291
1700516431713857300,5.261857177734375,-0.01931777223944664,0.05463581532239914,-0.16997173428535461
1700516431723867100,5.2718671875,0.006967095658183098,-0.050581417977809906,0.07911452651023865
1700516431733877200,5.281877197265625,0.011238273233175278,0.022285863757133484,0.15953293442726135
1700516431743888100,5.29188818359375,0.0020793962758034468,-0.07183317840099335,-0.09142179042100906
1700516431753898200,5.301898193359375,-0.02696610428392887,0.09538111090660095,-0.18282893300056458
1700516431763908000,5.311908203125,0.011239072307944298,-0.06565810739994049,0.08039657026529312
1700516431773918200,5.321918212890625,0.04210777208209038,0.05116971209645271,0.08781533688306808
1700516431783928000,5.331927978515625,0.027234550565481186,0.023302393034100533,0.14111503958702087
1700516431793939200,5.341939208984375,-0.009828662499785423,-0.09506446123123169,-0.061344582587480545
1700516431803949000,5.351948974609375,-0.013886786997318268,0.10424678027629852,-0.2170947641134262
1700516431813959200,5.361959228515625,0.005461610853672028,-0.08023252338171005,0.05906837806105614
1700516431823969000,5.371968994140625,0.018988605588674545,0.028021248057484627,0.15436586737632751
1700516431833980200,5.381980224609375,0.006337258033454418,-0.06976283341646194,-0.06460802257061005
1700516431843990000,5.391989990234375,-0.032100945711135864,0.09628232568502426,-0.21134527027606964
1700516431854000000,5.402000244140625,0.01461835764348507,-0.054669104516506195,0.060868941247463226
1700516431864010000,5.412010009765625,0.041846781969070435,0.03814418986439705,0.07984716445207596
1700516431874020000,5.42202001953125,0.04075382277369499,0.08019177615642548,0.13128983974456787
1700516431884031000,5.432031005859375,0.006974020041525364,-0.12920218706130981,-0.0287054143846035
1700516431894041000,5.442041015625,-0.005161472596228123,0.09814813733100891,-0.22784514725208282
1700516431904051000,5.452051025390625,0.005045092198997736,-0.08453592658042908,0.05185387656092644
1700516431914061000,5.46206103515625,0.021026188507676125,0.02954537607729435,0.1550005078315735
1700516431924072000,5.472072021484375,0.011115501634776592,-0.07896272838115692,-0.03086204268038273
1700516431934082000,5.48208203125,-0.030005568638443947,0.1008421927690506,-0.22913171350955963
1700516431944092200,5.492092041015625,0.0181097611784935,-0.03756575286388397,0.05481983721256256
1700516431954102000,5.50210205078125,0.03320056200027466,0.03563202917575836,0.09683573246002197
1700516431964112100,5.512112060546875,0.048709481954574585,0.09393821656703949,0.13904577493667603
1700516431974123000,5.522123046875,0.006766825914382935,-0.11360832303762436,-0.01744690164923668
1700516431984133000,5.532133056640625,0.0012402341235429049,0.09636994451284409,-0.2143586277961731
1700516431994143000,5.54214306640625,0.0035603800788521767,-0.08135264366865158,0.05565820261836052
1700516432004153000,5.552153076171875,0.02966495044529438,0.024285631254315376,0.16045305132865906
1700516432014164000,5.5621640625,0.01913854107260704,-0.09384366869926453,0.006508499383926392
1700516432024174000,5.572174072265625,-0.03200240805745125,0.09932152926921844,-0.22358621656894684
1700516432034184000,5.582183837890625,0.02358362264931202,-0.052917808294296265,0.050993941724300385
1700516432044194000,5.592194091796875,0.014012754894793034,-0.02791871689260006,0.09080447256565094
1700516432054205200,5.602205078125,0.053410228341817856,0.07705830037593842,0.12008752673864365
1700516432064215300,5.61221533203125,0.009455553255975246,-0.11549516767263412,0.02923431806266308
1700516432074225000,5.622224853515625,-0.003341468283906579,0.10450323671102524,-0.2199198454618454
1700516432084235000,5.632235107421875,0.011065701022744179,-0.03771355748176575,0.042508311569690704
1700516432094244900,5.642244873046875,0.022653913125395775,0.023966319859027863,0.12485618144273758
1700516432104256300,5.65225634765625,0.029207685962319374,-0.07504121959209442,-0.0009432916413061321
1700516432114266000,5.66226611328125,-0.03765629976987839,0.051118578761816025,-0.21323291957378387
1700516432124276200,5.672276123046875,0.011834555305540562,0.002680737990885973,0.003308711340650916
1700516432134286000,5.6822861328125,-0.029224464669823647,-0.03810477629303932,-0.007319165393710136
1700516432144297200,5.692297119140625,0.0035358788445591927,0.21869586408138275,-0.0041436124593019485
1700516432154307000,5.70230712890625,-0.03744777292013168,-0.3845572769641876,0.39613643288612366
1700516432164317200,5.712317138671875,0.0017219999572262168,0.29082438349723816,-0.5965778827667236
1700516432174327300,5.722327392578125,-0.14091770350933075,0.015903066843748093,0.10165685415267944
1700516432184338400,5.73233837890625,0.0711657926440239,0.008220112882554531,0.10732938349246979
1700516432194348300,5.742348388671875,-0.1162688210606575,-0.2862469255924225,-0.07971639931201935
1700516432204358400,5.7523583984375,-0.045574940741062164,0.2648119628429413,-0.3428921103477478
1700516432214368300,5.7623681640625,-0.032036762684583664,-0.13012471795082092,0.020244818180799484
1700516432224379400,5.77237939453125,-0.0494714118540287,0.10508008301258087,0.3133411407470703
1700516432234389200,5.78238916015625,0.04157913476228714,-0.3031848967075348,-0.010189520195126534
1700516432244399400,5.7923994140625,-0.048947568982839584,0.25747841596603394,-0.33560648560523987
1700516432254409200,5.8024091796875,-0.09474435448646545,0.014365890063345432,0.03609595075249672
1700516432264420600,5.812420654296875,0.07661621272563934,-0.04295758530497551,0.11018615961074829
1700516432274430500,5.822430419921875,-0.03867708891630173,-0.09014613926410675,-0.027031350880861282
1700516432284440600,5.832440673828125,-0.013056146912276745,0.04661756753921509,-0.21671952307224274
1700516432294450200,5.8424501953125,-0.13329920172691345,0.30045410990715027,0.05859726667404175
1700516432304461600,5.852461669921875,0.09642773866653442,-0.5558227300643921,0.1907569020986557
1700516432314471400,5.862471435546875,-0.020803015679121017,0.4566791355609894,-0.28736838698387146
1700516432324481500,5.8724814453125,-0.12482448667287827,0.02540149725973606,0.19616417586803436
1700516432334491400,5.882491455078125,0.14829999208450317,-0.15139591693878174,-0.08473033457994461
1700516432344502500,5.89250244140625,-0.14043034613132477,0.04138152673840523,-0.0062554990872740746
1700516432354512400,5.902512451171875,0.05146585404872894,0.05692373588681221,-0.11724700033664703
1700516432364522500,5.9125224609375,-0.07879574596881866,-0.06817106157541275,0.5982932448387146
1700516432374532400,5.922532470703125,0.09421864151954651,-0.23261620104312897,-0.3006463944911957
1700516432384543500,5.93254345703125,-0.20302581787109375,0.9112884402275085,-0.1014145016670227
1700516432394553300,5.94255322265625,0.134809210896492,-0.6816056966781616,0.449198842048645
1700516432404563500,5.9525634765625,-0.014713698998093605,0.3881128430366516,-0.2073443979024887
1700516432414573300,5.9625732421875,-0.06617449223995209,-0.09094135463237762,-0.038422755897045135
1700516432424584400,5.97258447265625,0.06036507338285446,-0.29531872272491455,0.5525776743888855
1700516432434594300,5.98259423828125,-0.0054213968105614185,-0.05324697494506836,-0.1495966762304306
1700516432444604400,5.9926044921875,-0.16512291133403778,0.5381585359573364,0.0642642080783844
1700516432454614500,6.002614501953125,0.05985081568360329,-0.4886101484298706,0.0703657791018486
1700516432464625400,6.01262548828125,-0.07518183439970016,0.24147866666316986,-0.12374990433454514
1700516432474635300,6.02263525390625,0.007144462317228317,0.3638194799423218,-0.0021872541401535273
1700516432484645400,6.032645263671875,0.04682662710547447,-0.4249723255634308,-0.13879303634166718
1700516432494656300,6.04265625,-0.12163375318050385,0.44507548213005066,-0.25853994488716125
1700516432504666400,6.052666259765625,0.21769823133945465,-0.44978153705596924,-0.059539224952459335
1700516432514676200,6.06267626953125,-0.10018225759267807,0.1398628205060959,-0.03597477823495865
1700516432524686300,6.072686279296875,-0.17032167315483093,0.3343702554702759,0.34660881757736206
1700516432534697200,6.082697265625,0.24336205422878265,-0.8020479679107666,-0.04994092881679535
1700516432544707300,6.092707275390625,-0.14280535280704498,0.895932674407959,-0.328830361366272
1700516432554717200,6.10271728515625,-0.02725053019821644,-0.6954922080039978,0.2528623640537262
1700516432564727300,6.112727294921875,0.07104301452636719,-0.10034684091806412,-0.3522089123725891
1700516432574738400,6.122738525390625,-0.2480524182319641,0.9917201399803162,0.19445842504501343
1700516432584748500,6.13274853515625,0.11128924041986465,-1.6478407382965088,0.3140471577644348
1700516432594758400,6.14275830078125,-0.0065290057100355625,1.1382709741592407,-0.5100030899047852
1700516432604768500,6.1527685546875,-0.09170834720134735,-0.07886046171188354,0.21717172861099243
1700516432614779400,6.162779296875,0.062368303537368774,-0.8693529963493347,0.05728379637002945
1700516432624789500,6.17278955078125,-0.12149793654680252,1.1975140571594238,0.152836412191391
1700516432634799400,6.18279931640625,0.18224170804023743,-1.0129774808883667,0.3695599436759949
1700516432644809500,6.1928095703125,-0.003668504301458597,0.6333708167076111,-0.06314461678266525
1700516432654820400,6.2028203125,0.005927131045609713,-0.06801846623420715,0.005001150071620941
1700516432664830500,6.21283056640625,0.13733787834644318,-0.578758955001831,-0.3800716996192932
1700516432674840600,6.222840576171875,-0.10951317846775055,0.8547636270523071,0.08932934701442719
1700516432684851500,6.2328515625,0.03299097344279289,-0.9518188238143921,0.10290054976940155
1700516432694861300,6.242861328125,0.04180390387773514,0.6472567915916443,0.1092362105846405
1700516432704871400,6.252871337890625,0.02094230055809021,-0.03659982234239578,0.08776979893445969
1700516432714881500,6.262881591796875,0.12176478654146194,-0.5294236540794373,-0.43535253405570984
1700516432724892400,6.272892333984375,0.010456901974976063,0.2271450012922287,-0.2960290014743805
1700516432734902300,6.28290234375,0.02629818208515644,-0.6380382776260376,-0.4608067572116852
1700516432744912400,6.292912353515625,-0.016581906005740166,0.8336336016654968,0.4105398654937744
1700516432754923300,6.30292333984375,0.04569025710225105,-0.7682697772979736,0.805976152420044
1700516432764933400,6.312933349609375,0.010455836541950703,0.3451227843761444,0.3314724862575531
1700516432774943200,6.322943115234375,-0.0581224262714386,0.3497641384601593,0.20881447196006775
1700516432784953300,6.332953369140625,-0.05859753116965294,-0.7289322018623352,-0.4627886712551117
1700516432794964200,6.342964111328125,-0.010207896120846272,0.20761391520500183,-0.32951825857162476
1700516432804974300,6.352974365234375,-0.0874590054154396,-0.5981355905532837,-0.43495863676071167
1700516432814984400,6.362984375,-0.0785139799118042,0.5418235659599304,-0.2567191421985626
1700516432824994300,6.372994384765625,0.00606348505243659,-0.3550044298171997,0.03304477035999298
1700516432835005200,6.383005126953125,0.020621389150619507,0.11371111869812012,-0.04361219331622124
1700516432845015300,6.393015380859375,0.01973295770585537,0.0920228660106659,0.16484008729457855
1700516432855025400,6.403025390625,-0.03268364444375038,-0.11448636651039124,0.049548111855983734
1700516432865036500,6.41303662109375,-0.004560663364827633,0.3257594704627991,0.5557686686515808
1700516432875046400,6.42304638671875,-0.037628334015607834,-0.6958219408988953,0.3087061643600464
1700516432885056500,6.433056396484375,-0.032517995685338974,0.6564518809318542,0.4888477027416229
1700516432895066600,6.443066650390625,-0.03555852547287941,-0.42347589135169983,0.21421828866004944
1700516432905077500,6.453077392578125,-0.03175792843103409,0.10785003751516342,-0.36785709857940674
1700516432915087400,6.46308740234375,-0.06715533137321472,-0.1084071695804596,-0.4576767385005951
1700516432925097500,6.473097412109375,-0.09260477125644684,-0.07700663059949875,-0.8536624312400818
1700516432935108400,6.4831083984375,0.12627297639846802,0.20885440707206726,0.00914209894835949
1700516432945118500,6.493118408203125,-0.0883365198969841,-0.616335391998291,0.28734123706817627
1700516432955128300,6.50312841796875,-0.03219601884484291,0.6765862107276917,0.5635448694229126
1700516432965138400,6.513138427734375,0.030459372326731682,-0.6903640627861023,0.32477089762687683
1700516432975149300,6.5231494140625,0.009327455423772335,0.7205323576927185,0.3522608280181885
1700516432985159400,6.533159423828125,-0.03843394294381142,-0.3463294506072998,0.14307273924350739
1700516432995169300,6.543169189453125,-0.008650479838252068,0.28781554102897644,-0.08148713409900665
1700516433005180400,6.553180419921875,-0.05437722057104111,-0.24149411916732788,0.0655481144785881
1700516433015190300,6.563190185546875,-0.12987491488456726,0.17375661432743073,-0.10806521773338318
1700516433025200400,6.573200439453125,0.17651644349098206,0.05620468407869339,0.18497970700263977
1700516433035210500,6.58321044921875,0.0019121496006846428,-0.5460638403892517,-0.22561287879943848
1700516433045221400,6.593221435546875,0.04235384985804558,0.5691475868225098,-0.17756253480911255
1700516433055231200,6.603231201171875,0.004591822158545256,-0.8379052877426147,-0.3562699556350708
1700516433065241300,6.613241455078125,0.06224073842167854,0.5651760697364807,-0.058515507727861404
1700516433075252200,6.623252197265625,-0.037025660276412964,-0.3997032046318054,0.3857620656490326
1700516433085262300,6.633262451171875,-0.08184319734573364,0.3610721826553345,0.25664857029914856
1700516433095272200,6.643272216796875,0.06172062084078789,-0.18191121518611908,0.21034285426139832
1700516433105283600,6.65328369140625,-0.02130928263068199,-0.183133065700531,-0.2919655442237854
1700516433115293400,6.66329345703125,0.011331483721733093,0.21278497576713562,-0.009553025476634502
1700516433125303600,6.673303466796875,-0.10486569255590439,-0.0702909380197525,0.27239370346069336
1700516433135313400,6.6833134765625,0.12021748721599579,-0.09755159169435501,0.4527701437473297
1700516433145324500,6.693324462890625,-0.014783740043640137,-0.12639495730400085,-0.14988243579864502
1700516433155334400,6.70333447265625,0.03598543256521225,0.30010363459587097,-0.06959692388772964
1700516433165344500,6.713344482421875,-0.047694817185401917,-0.3310386538505554,0.03852235898375511
1700516433175356000,6.72335595703125,-0.0008000136003829539,0.23065078258514404,0.27696049213409424
1700516433185366000,6.733365966796875,-0.045219942927360535,-0.508220374584198,-0.08281871676445007
1700516433195375900,6.7433759765625,-0.013835654594004154,0.23946452140808105,-0.33935701847076416
1700516433205386800,6.75338671875,-0.0775911957025528,-0.2684634029865265,-0.09325404465198517
1700516433215396900,6.76339697265625,-0.04935263469815254,0.3143182396888733,-0.04139644280076027
1700516433225407000,6.773406982421875,0.06833191961050034,-0.4292392432689667,0.005055212415754795
1700516433235416800,6.783416748046875,-0.038603316992521286,0.1497783064842224,-0.5842967629432678
1700516433245428000,6.793427978515625,0.04765620082616806,-0.09057730436325073,-0.2092514932155609
1700516433255437800,6.803437744140625,-0.03695455566048622,-0.011353322304785252,-0.17429643869400024
1700516433265448000,6.813447998046875,0.050278350710868835,-0.041061948984861374,0.2321474850177765
1700516433275458800,6.823458740234375,-0.03609994798898697,0.12053573876619339,-0.16777515411376953
1700516433285469000,6.833468994140625,0.012951751239597797,0.00875061471015215,0.34427669644355774
1700516433295478800,6.843478759765625,-0.05632985010743141,0.12426415830850601,0.112850122153759
1700516433305490000,6.853489990234375,0.04946848377585411,-0.02238013967871666,0.40293946862220764
1700516433315499800,6.863499755859375,-0.02069755457341671,0.13881807029247284,-0.087223581969738
1700516433325510000,6.873510009765625,0.036497291177511215,0.07239270955324173,0.22238565981388092
1700516433335519700,6.883519775390625,-0.08213668316602707,0.13398203253746033,0.05582864582538605
1700516433345531000,6.89353076171875,0.2093859761953354,-0.17990851402282715,0.43416211009025574
1700516433355541000,6.903541015625,-0.020361997187137604,0.36590340733528137,-0.0336221419274807
1700516433365551000,6.913551025390625,0.1157713383436203,-0.07206939905881882,0.351839542388916
1700516433375562000,6.92356201171875,-0.08462327718734741,0.23920166492462158,0.06398377567529678
1700516433385571800,6.93357177734375,0.2151261568069458,-0.4621085226535797,0.00857298169285059
1700516433395582000,6.94358203125,-0.12988662719726562,0.35309839248657227,-0.2999829947948456
1700516433405592800,6.9535927734375,-0.010762366466224194,-0.2846282720565796,0.1545911729335785
1700516433415603000,6.96360302734375,-0.08486908674240112,0.09568817913532257,-0.05517883226275444
1700516433425612800,6.97361279296875,0.08757352083921432,-0.46016013622283936,-0.245912566781044
1700516433435624000,6.9836240234375,-0.1545592099428177,0.12206386029720306,-0.4201139211654663
1700516433445633800,6.9936337890625,-0.07229257375001907,-0.19980232417583466,0.22368130087852478
1700516433455644000,7.003643798828125,-0.07993131875991821,0.24406273663043976,0.09211794286966324
1700516433465654800,7.01365478515625,0.0019105518003925681,-0.5618606805801392,-0.17812952399253845
1700516433475665000,7.023664794921875,-0.09186521172523499,0.3480687737464905,-0.3390645980834961
1700516433485674800,7.0336748046875,-0.093349389731884,-0.5007563233375549,-0.2572150230407715
1700516433495684900,7.043684814453125,-0.1550428420305252,0.3656914234161377,0.0007313040550798178
1700516433505695700,7.05369580078125,-0.13296151161193848,-0.827120840549469,-0.5251767039299011
1700516433515705900,7.063705810546875,-0.01630227454006672,0.41205012798309326,-0.16959355771541595
1700516433525715700,7.0737158203125,-0.08083546161651611,-0.48413923382759094,-0.07069068402051926
1700516433535726800,7.083726806640625,-0.0754912942647934,0.20940035581588745,0.3473092317581177
1700516433545736700,7.09373681640625,-0.011187407188117504,-0.24658501148223877,-0.29830414056777954
1700516433555746800,7.103746826171875,0.08570984750986099,0.4696226119995117,0.21480205655097961
1700516433565758000,7.113758056640625,-0.0316639207303524,-0.03817188739776611,0.31676915287971497
1700516433575768000,7.12376806640625,0.15090322494506836,-0.041004423052072525,0.5433506369590759
1700516433585778000,7.13377783203125,0.04219379276037216,0.48995211720466614,0.18038016557693481
1700516433595789000,7.1437890625,0.018065819516777992,-0.39605066180229187,0.22438623011112213
1700516433605799000,7.153798828125,-0.11173451691865921,0.47293320298194885,0.26180630922317505
1700516433615809000,7.16380908203125,0.004703941289335489,-0.2690804600715637,-0.2654955983161926
1700516433625820000,7.17381982421875,0.03274090215563774,0.20711323618888855,-0.014402907341718674
1700516433635830000,7.183830078125,-0.14300322532653809,-0.2556011378765106,0.2559731900691986
1700516433645840000,7.19383984375,0.15662077069282532,-0.09839687496423721,0.3126465976238251
1700516433655851000,7.20385107421875,-0.05843028798699379,0.24987001717090607,-0.35295194387435913
1700516433665860900,7.21386083984375,-0.050513241440057755,0.011357316747307777,0.30784302949905396
1700516433675871000,7.22387109375,-0.01455923542380333,0.3153313100337982,0.2220916599035263
1700516433685881900,7.2338818359375,0.184179425239563,-0.6307215094566345,-0.04643327742815018
1700516433695892000,7.24389208984375,-0.08671411871910095,0.5748752951622009,-0.1576402336359024
1700516433705901800,7.25390185546875,-0.05277027189731598,-0.37146782875061035,0.12632624804973602
1700516433715912000,7.263911865234375,0.010381534695625305,0.12292352318763733,0.20604823529720306
1700516433725922800,7.2739228515625,-0.0994456335902214,-0.03449619188904762,-0.46286964416503906
1700516433735933000,7.283932861328125,0.06488126516342163,-0.0504317469894886,-0.19654794037342072
1700516433745942800,7.29394287109375,-0.10787267237901688,0.0896366760134697,-0.37939658761024475
1700516433755953700,7.30395361328125,0.09792123734951019,-0.7134491205215454,-0.1903928518295288
1700516433765963800,7.3139638671875,-0.06891408562660217,0.4612930417060852,-0.30376574397087097
1700516433775974000,7.323973876953125,-0.02490215376019478,-0.2652641534805298,0.06652683019638062
1700516433785985000,7.333985107421875,0.08098167181015015,0.2703537344932556,0.4217640161514282
1700516433795995000,7.343994873046875,-0.06754735112190247,0.05645448714494705,0.056420665234327316
1700516433806005000,7.3540048828125,-0.08587176352739334,0.2388242930173874,0.37680453062057495
1700516433816016000,7.364015869140625,-0.08332764357328415,0.20733614265918732,0.1319092959165573
1700516433826026000,7.37402587890625,0.13044854998588562,-0.6143944263458252,0.12123428285121918
1700516433836035800,7.384035888671875,-0.1471596211194992,0.491939902305603,-0.28240373730659485
1700516433846047000,7.394046875,-0.08469757437705994,-0.399661660194397,-0.03131025284528732
1700516433856056800,7.404056884765625,-0.06663016229867935,0.11519929021596909,0.04939764365553856
1700516433866067000,7.41406689453125,-0.08865556865930557,-0.6416907906532288,-0.5624274015426636
1700516433876077800,7.424077880859375,-0.08896422386169434,0.18832889199256897,-0.39837321639060974
1700516433886088000,7.434087890625,-0.14197951555252075,-0.09493184089660645,0.10313437134027481
1700516433896097800,7.444097900390625,-0.02829049341380596,-0.5385921001434326,0.1715637594461441
1700516433906109000,7.45410888671875,-0.03136191889643669,0.30474844574928284,0.005852829199284315
1700516433916118800,7.464118896484375,-0.01332858856767416,-0.19577457010746002,0.22854875028133392
1700516433926129000,7.47412890625,0.01949487254023552,0.3482586443424225,0.3136175870895386
1700516433936139800,7.484139892578125,0.018012821674346924,0.20780938863754272,-0.07812010496854782
1700516433946150000,7.49414990234375,0.043420977890491486,0.2873225808143616,0.4911649227142334
1700516433956159700,7.50415966796875,-0.16098782420158386,0.22687043249607086,0.5705481767654419
1700516433966171000,7.5141708984375,-0.010838532820343971,-0.49432024359703064,-0.1245480552315712
1700516433976180700,7.5241806640625,-0.05458521470427513,0.37925010919570923,-0.38852936029434204
1700516433986190800,7.53419091796875,-0.026673689484596252,-0.5713231563568115,-0.2598704695701599
1700516433996202000,7.544201904296875,-0.015266837552189827,-0.153526172041893,-0.13975949585437775
1700516434006212000,7.554212158203125,-0.0880718007683754,0.11485680937767029,-0.43054500222206116
1700516434016222000,7.564221923828125,0.0814562439918518,-0.20605969429016113,-0.016585901379585266
1700516434026232800,7.57423291015625,-0.06771726161241531,0.3282386064529419,0.09420985728502274
1700516434036243000,7.584242919921875,0.043171972036361694,-0.42292675375938416,-0.38282808661460876
1700516434046253000,7.594253173828125,0.10394850373268127,0.4006912112236023,-0.06285406649112701
1700516434056264000,7.604263916015625,-0.0142369931563735,-0.1908048391342163,-0.030537135899066925
1700516434066274000,7.614274169921875,-0.01582423597574234,0.12317465990781784,0.21857787668704987
1700516434076284000,7.624283935546875,-0.03723285719752312,0.4195155203342438,0.029508624225854874
1700516434086294800,7.634294677734375,0.20863524079322815,1.8034313917160034,-2.6382453441619873
1700516434096305000,7.644304931640625,-0.2728283405303955,-0.8565418124198914,1.8719772100448608
1700516434106315800,7.654315673828125,-0.021143900230526924,-0.22452445328235626,1.49067223072052
1700516434116326000,7.664325927734375,0.09240929037332535,-0.24456793069839478,1.2841376066207886
1700516434126335700,7.674335693359375,-0.06809010356664658,0.286393404006958,0.32633817195892334
1700516434136347000,7.684346923828125,-0.02003203146159649,-0.5276659727096558,-0.7456446290016174
1700516434146356700,7.694356689453125,-0.018990468233823776,0.6264076828956604,-0.8649824857711792
1700516434156366800,7.704366943359375,-0.026253707706928253,-0.6526284217834473,-0.12585407495498657
1700516434166377700,7.714377685546875,0.11723022162914276,-0.11187487095594406,0.05384352430701256
1700516434176384300,7.72438427734375,-0.035587821155786514,-0.19799084961414337,-0.3666648268699646
1700516434186394000,7.73439404296875,0.11673380434513092,-0.15801359713077545,-0.5868903994560242
1700516434196405200,7.7444052734375,-0.10172130167484283,0.0950615331530571,-0.5462508201599121
1700516434206415000,7.7544150390625,0.04664713144302368,-0.3049841523170471,-0.7807581424713135
1700516434216425200,7.76442529296875,-0.025239042937755585,0.5548563003540039,0.0998472347855568
1700516434226436000,7.77443603515625,-0.11689679324626923,-0.10193035751581192,0.4335077702999115
1700516434236446200,7.7844462890625,-0.01569773629307747,0.2275649756193161,0.6808294057846069
1700516434246456000,7.7944560546875,-0.011067830957472324,0.3563205599784851,0.16675250232219696
1700516434256467200,7.80446728515625,-0.06765814125537872,-0.14399951696395874,0.19440117478370667
1700516434266477000,7.81447705078125,-0.262478232383728,0.3030205965042114,0.2518135905265808
1700516434276487200,7.824487060546875,-0.07949109375476837,-0.44391006231307983,-0.20768208801746368
1700516434286498000,7.834498046875,-0.046188268810510635,0.4675184488296509,-0.35238921642303467
1700516434296508200,7.844508056640625,-0.12694595754146576,-0.27083441615104675,0.09067397564649582
1700516434306518000,7.85451806640625,0.015933692455291748,-0.7449575066566467,-0.022353775799274445
1700516434316529200,7.864529052734375,-0.015365640632808208,0.5583615303039551,-0.3820725381374359
1700516434326539000,7.8745390625,0.015272962860763073,-0.2764483690261841,0.02774587646126747
1700516434336549000,7.884549072265625,0.08581344038248062,0.09050646424293518,0.15969671308994293
1700516434346560300,7.894560302734375,0.10056042671203613,0.10044964402914047,-0.19646112620830536
1700516434356570400,7.9045703125,0.13441267609596252,0.30914053320884705,-0.00694925244897604
1700516434366581200,7.914581298828125,-0.06872446835041046,0.09880860149860382,0.06523226946592331
1700516434376591000,7.924591064453125,0.07036657631397247,-0.7291063666343689,-0.49310851097106934
1700516434386601200,7.934601318359375,0.015971776098012924,0.47203224897384644,-0.651542603969574
1700516434396612000,7.944612060546875,-0.15088830888271332,-0.4537549614906311,-0.4972550570964813
1700516434406622200,7.954622314453125,-0.13765452802181244,-0.257770836353302,-0.30249089002609253
1700516434416632000,7.964632080078125,0.007446464616805315,0.3464958965778351,-0.328305721282959
1700516434426643200,7.974643310546875,0.11938897520303726,0.03142343461513519,0.5521926283836365
1700516434436653000,7.984653076171875,-0.016095079481601715,0.3014559745788574,1.1160119771957397
1700516434446663200,7.9946630859375,0.15912307798862457,-0.06847226619720459,0.3892636001110077
1700516434456674000,8.004674072265624,0.0328676700592041,0.45040711760520935,0.3289099931716919
1700516434466684200,8.01468408203125,-0.1254063844680786,0.40876859426498413,0.5486966967582703
1700516434476695000,8.024695068359375,0.08266878128051758,-0.5065249800682068,0.32340654730796814
1700516434486705200,8.034705078125,-0.005664810072630644,0.5623552203178406,-0.07915180921554565
1700516434496715000,8.044715087890625,-0.16224856674671173,-0.4006456732749939,0.008526110090315342
1700516434506726100,8.05472607421875,0.09646128863096237,-0.3048640191555023,-0.09227320551872253
1700516434516736000,8.064736083984375,-0.045528337359428406,0.12239648401737213,-0.5683566331863403
1700516434526746000,8.07474609375,0.037457361817359924,-0.15948019921779633,-0.24601110816001892
1700516434536757200,8.08475732421875,-0.0849018394947052,0.05754078924655914,0.11254332214593887
1700516434546767400,8.094767333984375,0.13363529741764069,-0.604985237121582,-0.32550299167633057
1700516434556777200,8.104777099609375,0.05696661397814751,0.45288464426994324,-0.12417760491371155
1700516434566788000,8.1147880859375,-0.09766876697540283,0.0013763216556981206,0.1871270090341568
1700516434576798200,8.124798095703126,0.3207567036151886,-0.34640881419181824,0.10307152569293976
1700516434586808300,8.134808349609376,0.013642841950058937,0.6540393233299255,-0.15986663103103638
1700516434596819200,8.144819091796874,0.10517276078462601,-0.2827773690223694,-0.07222039997577667
1700516434606829000,8.1548291015625,-0.09331290423870087,0.3259245753288269,-0.06645838916301727
1700516434616840200,8.164840087890624,0.005378520116209984,-0.9691419005393982,-0.5402166247367859
1700516434626850000,8.17485009765625,-0.08783025294542313,0.396148681640625,-0.47861823439598083
1700516434636860200,8.184860107421875,-0.1513865888118744,-0.09735984355211258,-0.022297581657767296
1700516434646871000,8.19487109375,-0.016809340566396713,-0.6899158358573914,0.04809269309043884
1700516434656881200,8.204881103515625,0.023078154772520065,0.5736517906188965,-0.1485346108675003
1700516434666891000,8.21489111328125,0.057619620114564896,0.2506183683872223,0.5981297492980957
1700516434676902100,8.224902099609375,0.14232145249843597,0.20773641765117645,1.0628154277801514
1700516434686912000,8.234912109375,0.06155390664935112,0.18030638992786407,0.7153341174125671
1700516434696922000,8.244922119140625,0.05790191516280174,0.046430882066488266,0.8116281628608704
1700516434706933200,8.254933349609376,0.10147842019796371,0.4765404462814331,0.5215893983840942
1700516434716943400,8.264943359375,0.16166798770427704,-0.5216533541679382,-0.31758913397789
1700516434726954200,8.274954345703126,-0.05590294674038887,0.5161371231079102,-0.11588346213102341
1700516434736964400,8.28496435546875,-0.031183751299977303,-0.12632916867733002,-0.05288664996623993
1700516434746974200,8.29497412109375,0.18680423498153687,-0.8464471101760864,-0.23562504351139069
1700516434756985000,8.304985107421874,-0.0022359900176525116,0.6020855903625488,-0.24641217291355133
1700516434766995200,8.3149951171875,0.03656679764389992,-0.5338982939720154,-0.17845602333545685
1700516434777005300,8.32500537109375,0.1061815619468689,0.14349831640720367,-0.10455570369958878
1700516434787016200,8.33501611328125,0.072101891040802,-0.3452548682689667,-0.5629962682723999
1700516434797026000,8.345026123046875,0.06843125820159912,0.07203744351863861,-0.34308040142059326
1700516434807037200,8.355037109375,-0.029228990897536278,0.23575712740421295,0.041073400527238846
1700516434817047000,8.365047119140625,0.18460233509540558,-0.260536789894104,0.2828921675682068
1700516434827057200,8.37505712890625,-0.0005917543894611299,0.23798726499080658,0.5683159232139587
1700516434837068000,8.385068115234375,0.01739070750772953,-0.4078578054904938,0.3093205690383911
1700516434847078100,8.395078125,0.06583893299102783,0.06547994166612625,-0.0023696806747466326
1700516434857088000,8.405087890625,-0.049196042120456696,0.29897817969322205,-0.0798860415816307
1700516434867099100,8.41509912109375,-0.006146842148154974,-0.10304143279790878,0.317583829164505
1700516434877109000,8.42510888671875,-0.09789779782295227,0.37329474091529846,0.523611843585968
1700516434887120100,8.4351201171875,0.025199895724654198,-0.6872199177742004,0.016929714009165764
1700516434897130200,8.445130126953124,0.05077556148171425,0.2242802381515503,-0.3245658278465271
1700516434907140400,8.455140380859374,-0.03743099421262741,-0.2714213728904724,-0.4817914068698883
1700516434917151200,8.465151123046875,0.09682987630367279,-0.34139329195022583,-0.25567516684532166
1700516434927161300,8.475161376953125,0.05934721231460571,0.1853397637605667,-0.10227124392986298
1700516434937171200,8.485171142578125,0.10115857422351837,-0.3397514522075653,0.40627801418304443
1700516434947182000,8.49518212890625,0.03038400411605835,0.3221266567707062,0.633461594581604
1700516434957192200,8.505192138671875,0.1556369960308075,-0.25534921884536743,-0.22705045342445374
1700516434967203000,8.515203125,0.21677598357200623,0.2186809480190277,-0.3390808701515198
1700516434977213200,8.525213134765625,-0.012441223487257957,0.059962935745716095,-0.29808309674263
1700516434987223000,8.53522314453125,0.11383708566427231,-0.31109315156936646,-0.4886791408061981
1700516434997234200,8.545234130859376,0.025585521012544632,0.34905892610549927,-0.3656352460384369
1700516435007244000,8.555244140625,0.06592069566249847,-0.33413615822792053,0.3009856641292572
1700516435017254100,8.565254150390626,0.03479766100645065,0.2894938588142395,0.5634143352508545
1700516435027265000,8.57526513671875,0.02852378599345684,-0.18395225703716278,-0.010599114932119846
1700516435037275100,8.585275146484374,0.11980682611465454,0.21765190362930298,0.18094289302825928
1700516435047286000,8.5952861328125,-0.0443328432738781,0.29000571370124817,0.21972143650054932
1700516435057296100,8.605296142578124,0.12723945081233978,-0.32833606004714966,-0.07050159573554993
1700516435067306000,8.615305908203124,0.041961297392845154,0.6123185157775879,-0.013739780522882938
1700516435077317000,8.625317138671875,-0.018810706213116646,-0.26083850860595703,0.22975623607635498
1700516435087327200,8.6353271484375,0.08021281659603119,-0.016281235963106155,0.24758343398571014
1700516435097338000,8.645338134765625,0.05357321351766586,0.18204011023044586,-0.3870049715042114
1700516435107348200,8.65534814453125,0.010202836245298386,-0.3498714566230774,-0.3149432837963104
1700516435117358000,8.665358154296875,-0.15707723796367645,0.3733357787132263,-0.15860456228256226
1700516435127369200,8.675369140625,0.047216515988111496,-0.6366390585899353,-0.47503095865249634
1700516435137379000,8.685379150390625,0.10314928740262985,0.5023353099822998,-0.3599456548690796
1700516435147389200,8.69538916015625,-0.04759867861866951,-0.07908176630735397,-0.17649993300437927
1700516435157400000,8.705400146484376,0.1477777361869812,-0.11334333568811417,-0.06765946745872498
1700516435167410200,8.71541015625,-0.0075881448574364185,-0.008270978927612305,-0.48789697885513306
1700516435177424600,8.725424560546875,0.021811822429299355,0.2578509747982025,-0.11535189300775528
1700516435187434800,8.735434814453125,-0.09295124560594559,-0.04880961775779724,0.003176884725689888
1700516435197444600,8.745444580078125,-0.08670027554035187,-0.9728378057479858,-0.7246053814888
1700516435207455700,8.755455810546875,0.04433870315551758,1.4238295555114746,-0.4492643475532532
1700516435217465600,8.765465576171875,-0.020192086696624756,-0.7140992283821106,0.1455840915441513
1700516435227476500,8.7754765625,-0.10702978074550629,-0.46451494097709656,0.33207860589027405
1700516435237486600,8.785486572265626,0.019725235179066658,0.5739578008651733,-0.5175461769104004
1700516435247496700,8.79549658203125,0.08273082971572876,0.09960702061653137,-0.04620930552482605
1700516435257507600,8.805507568359374,-0.013495569117367268,-0.06168626621365547,0.16443714499473572
1700516435267517400,8.815517333984374,-0.03544187918305397,-0.0446431003510952,-0.10528647154569626
1700516435277527600,8.825527587890624,0.12402953952550888,0.2544732987880707,0.0030370689928531647
1700516435287538400,8.835538330078125,-0.03346315026283264,0.09777209907770157,0.0895029827952385
1700516435297548500,8.845548583984375,0.05991872772574425,-0.12420956790447235,0.1371554583311081
1700516435307559400,8.855559326171875,0.15603381395339966,0.574196457862854,0.012733638286590576
1700516435317569500,8.865569580078125,0.06506901234388351,0.03195393830537796,0.6630021929740906
1700516435327579400,8.875579345703125,0.124665766954422,0.09561120718717575,0.9742620587348938
1700516435337590500,8.885590576171875,0.11645443737506866,0.2562168538570404,0.34205693006515503
1700516435347600400,8.895600341796875,0.1596197485923767,-0.21091116964817047,0.6375455856323242
1700516435357611800,8.90561181640625,0.1183258444070816,0.6041935086250305,0.3257719874382019
1700516435367621600,8.91562158203125,0.1466594785451889,-0.3076978921890259,-0.17548979818820953
1700516435377631700,8.9256318359375,0.05251434072852135,0.41933682560920715,0.13998347520828247
1700516435387642600,8.935642578125,0.027478761970996857,-0.45063960552215576,0.032287631183862686
1700516435397652700,8.94565283203125,0.14744405448436737,-0.41514554619789124,-0.20664851367473602
1700516435407663600,8.95566357421875,-0.05453567951917648,-0.33609411120414734,-0.6918162703514099
1700516435417673500,8.965673583984374,0.045278266072273254,-0.5194175839424133,-0.8993952870368958
1700516435427683600,8.97568359375,-0.12341887503862381,0.12234215438365936,-0.6748929619789124
1700516435437694500,8.985694580078125,-0.049972884356975555,-0.6647982597351074,-0.5494405031204224
1700516435447704600,8.99570458984375,0.15998567640781403,0.5488311648368835,-0.08908619731664658
1700516435457715500,9.005715576171875,0.05161738768219948,0.3995106518268585,0.9557099938392639
1700516435467725600,9.0157255859375,-0.03741315379738808,-0.2983616590499878,1.2560943365097046
1700516435477735400,9.0257353515625,0.09503330290317535,0.5177318453788757,0.7448419332504272
1700516435487746600,9.03574658203125,-0.010968495160341263,-0.30171510577201843,0.4264802038669586
1700516435497756400,9.04575634765625,-0.04680878296494484,0.24836453795433044,-0.10088693350553513
1700516435507767600,9.055767578125,-0.0174437053501606,-0.04075542092323303,-0.6372023224830627
1700516435517777700,9.065777587890626,-0.002037318190559745,-0.008097341284155846,-0.053535398095846176
1700516435527787500,9.07578759765625,-0.06220025569200516,0.14795750379562378,0.09946853667497635
1700516435537798700,9.085798583984374,0.09086998552083969,-0.27227920293807983,0.11258753389120102
1700516435547808800,9.095808837890624,0.057076070457696915,0.4297971725463867,0.03832342103123665
1700516435557819600,9.105819580078125,0.03581871837377548,-0.0018807243322953582,0.27674371004104614
1700516435567829500,9.11582958984375,0.09470599889755249,0.2737034559249878,0.5775930285453796
1700516435577839600,9.125839599609375,0.1064705178141594,0.3806504011154175,0.04116741195321083
1700516435587850500,9.1358505859375,0.03370576724410057,-0.2339634895324707,0.5460457801818848
1700516435597860600,9.145860595703125,-0.054916512221097946,0.33823931217193604,0.008412925526499748
1700516435607871500,9.15587158203125,0.053937267512083054,-1.0379635095596313,-0.7175344228744507
1700516435617881600,9.165881591796875,-0.13080409169197083,0.362714558839798,-0.9523890018463135
1700516435627891500,9.175891357421875,-0.03405623883008957,-0.7948592901229858,-1.0161051750183105
1700516435637902600,9.185902587890626,-0.15281164646148682,-0.14582698047161102,-0.8221322298049927
1700516435647912400,9.195912353515626,-0.02624545246362686,-0.37398210167884827,-1.1258169412612915
1700516435657923600,9.205923583984376,0.10139746218919754,0.24479644000530243,-0.4012907147407532
1700516435667933400,9.215933349609376,-0.011202054098248482,0.441653847694397,0.34671640396118164
1700516435677943600,9.225943603515624,0.004692223388701677,-0.18504361808300018,0.6552305817604065
1700516435687954700,9.23595458984375,0.1232641413807869,0.7959498763084412,0.4458821415901184
1700516435697964500,9.245964599609374,-0.038184668868780136,0.369101345539093,0.47127243876457214
1700516435707975700,9.2559755859375,-0.006427273154258728,-0.013599964790046215,0.4494640827178955
1700516435717985500,9.265985595703125,0.009050486609339714,0.41335588693618774,0.18019187450408936
1700516435727995600,9.27599560546875,-0.08242110908031464,-0.10379643738269806,0.457344651222229
1700516435738006500,9.286006591796875,-0.08273908495903015,0.17442266643047333,0.39317286014556885
1700516435748016600,9.2960166015625,0.005682120565325022,-0.385579377412796,-0.010305368341505527
1700516435758027500,9.306027587890625,0.05922790244221687,-0.007131412625312805,0.04188566282391548
1700516435768037600,9.31603759765625,-0.03129134327173233,0.21885457634925842,-0.07090852409601212
1700516435778047500,9.326047607421875,0.12211179733276367,-0.778637707233429,-0.015906261280179024
1700516435788058600,9.33605859375,0.03495106101036072,0.5310348272323608,-0.4949040114879608
1700516435798068500,9.346068359375,0.06971889734268188,-0.32536211609840393,-0.31650203466415405
1700516435808079400,9.356079345703124,-0.13237908482551575,0.3495470881462097,-0.26572009921073914
1700516435818089500,9.36608935546875,0.07585801184177399,-0.7040327191352844,-1.1044549942016602
1700516435828099600,9.376099609375,0.012826848775148392,0.7538386583328247,-0.5225827693939209
1700516435838110500,9.3861103515625,0.09841019660234451,-0.8025712966918945,-0.6343830823898315
1700516435848120600,9.39612060546875,-0.024562334641814232,0.37979206442832947,-0.0138431116938591
1700516435858131700,9.406131591796875,-0.10260094702243805,-0.3608178496360779,-0.38878077268600464
1700516435868141600,9.4161416015625,-0.10874459147453308,-0.10330402106046677,-0.44849205017089844
1700516435878151700,9.426151611328125,-0.14856071770191193,0.2005283087491989,-0.17848213016986847
1700516435888162600,9.43616259765625,-0.044625792652368546,-0.12704557180404663,-0.15791933238506317
1700516435898172700,9.446172607421875,0.10496529936790466,0.2981185019016266,-0.6696664690971375
1700516435908183600,9.45618359375,0.008567921817302704,0.2393292337656021,-0.3131166398525238
1700516435918193700,9.466193603515626,0.03275661543011665,-0.1314416527748108,0.36464694142341614
1700516435928203500,9.47620361328125,0.16881884634494781,0.8540658950805664,0.45184603333473206
1700516435938214700,9.486214599609376,0.12296587228775024,-0.05820072069764137,0.8471864461898804
1700516435948224500,9.496224609375,0.0652618259191513,0.5489065051078796,1.0939624309539795
1700516435958235400,9.5062353515625,0.03309457004070282,-0.39753004908561707,0.479983389377594
1700516435968245500,9.51624560546875,0.02063923142850399,0.2798987627029419,0.3127056956291199
1700516435978256400,9.52625634765625,-0.12684476375579834,0.28859958052635193,0.45076024532318115
1700516435988266500,9.5362666015625,0.1789790689945221,-0.70010906457901,0.09864694625139236
1700516435998276400,9.5462763671875,-0.005828327964991331,0.2692762017250061,-0.11466319859027863
1700516436008287700,9.556287841796875,0.04495096206665039,-0.6315039396286011,-0.3068337142467499
1700516436018297600,9.566297607421875,-0.07984796166419983,0.2294427752494812,-0.5154913067817688
1700516436028308700,9.576308837890625,-0.0841553583741188,-0.4976148307323456,-1.0682618618011475
1700516436038318600,9.586318603515625,0.07389579713344574,0.32780078053474426,-0.9196102619171143
1700516436048328700,9.59632861328125,-0.045395977795124054,-0.06835455447435379,-0.6608402729034424
1700516436058339600,9.606339599609376,-0.13197773694992065,-0.14119067788124084,-0.15820081532001495
1700516436068349700,9.616349609375,0.06289747357368469,-0.13698261976242065,-0.4115111231803894
1700516436078360600,9.626360595703124,0.02321637235581875,0.14738225936889648,-0.15627402067184448
1700516436088370700,9.63637060546875,-0.2006119340658188,0.12539200484752655,0.5750225186347961
1700516436098381600,9.646381591796874,0.05601400136947632,-0.5070120692253113,0.40912866592407227
1700516436108391400,9.656391357421874,0.1380271166563034,0.39572736620903015,-0.18470646440982819
1700516436118401500,9.666401611328125,-0.07784765958786011,0.5748843550682068,0.8610684275627136
1700516436128412400,9.676412353515625,0.026851054280996323,-0.5842685103416443,0.6786245703697205
1700516436138422500,9.686422607421875,0.2055177390575409,0.9425246715545654,0.29594430327415466
1700516436148433400,9.696433349609375,0.014635668136179447,0.10531550645828247,0.41176676750183105
1700516436158443500,9.706443603515625,0.09927598387002945,-0.16274364292621613,0.459736168384552
1700516436168453400,9.716453369140625,0.17678622901439667,0.4247052073478699,0.010705641470849514
1700516436178461000,9.7264609375,0.02081979438662529,0.11145622283220291,0.28382691740989685
1700516436188470800,9.736470703125,-0.047744352370500565,0.1555701494216919,0.40828150510787964
1700516436198482000,9.74648193359375,0.12311474233865738,-0.12009897828102112,-0.03201572224497795
1700516436208492000,9.756491943359375,0.07824020832777023,0.4399147927761078,-0.026277942582964897
1700516436218503000,9.7665029296875,-0.18050453066825867,-0.16878129541873932,0.026551449671387672
1700516436228513000,9.776512939453125,0.06130889803171158,-0.4374023675918579,-0.14159707725048065
1700516436238523000,9.78652294921875,0.024651816114783287,0.1685517281293869,-0.3617052137851715
1700516436248534000,9.796533935546876,-0.05571040138602257,-0.22269032895565033,0.017004283145070076
1700516436258543900,9.8065439453125,-0.21352319419384003,-0.0671827644109726,-0.04151681810617447
1700516436268555000,9.816554931640624,-0.12280741333961487,-0.650111198425293,-0.7082083225250244
1700516436278564900,9.82656494140625,0.07814034074544907,0.3784237504005432,-0.7699238657951355
1700516436288576000,9.836575927734375,-0.04565563425421715,-0.5848439931869507,-0.7822907567024231
1700516436298585900,9.8465859375,-0.18303586542606354,0.09909781813621521,-0.5993244051933289
1700516436308596000,9.856595947265625,0.005380117800086737,-0.029342176392674446,-0.6376174688339233
1700516436318606800,9.86660693359375,0.12318078428506851,-0.02449469082057476,-0.43455517292022705
1700516436328617000,9.876616943359375,-0.1367911398410797,0.4287484288215637,0.5293847322463989
1700516436338628000,9.886628173828125,-0.024753816425800323,-0.37740373611450195,0.5414568781852722
1700516436348638000,9.896637939453125,0.10095643997192383,0.24121075868606567,-0.13109010457992554
1700516436358647800,9.906647705078125,-0.07370511442422867,0.7734956741333008,0.685232400894165
1700516436368659000,9.916658935546875,-0.09239118546247482,-0.24643240869045258,0.7075576782226562
1700516436378669000,9.9266689453125,0.16216546297073364,0.6289563775062561,0.24286910891532898
1700516436388680000,9.936679931640626,-0.02700844779610634,0.059792760759592056,0.6920343637466431
1700516436398690000,9.94668994140625,-0.08846408873796463,0.05084986612200737,0.5349206924438477
1700516436408701000,9.956700927734374,0.1084417849779129,0.10656372457742691,-0.17359308898448944
1700516436418711000,9.9667109375,0.1031130701303482,0.20743495225906372,-0.005149488337337971
1700516436428721000,9.976720947265624,-0.08170471340417862,0.07131466269493103,-0.16053375601768494
1700516436438732000,9.98673193359375,0.18307314813137054,-0.3585352599620819,-0.43939894437789917
1700516436448742000,9.996741943359375,0.07842716574668884,0.4425095021724701,-0.21949906647205353
1700516436458752800,10.006752685546875,-0.08756766468286514,-0.44041359424591064,0.20100581645965576
1700516436468763000,10.016762939453125,0.0952887013554573,0.44650799036026,0.3126327395439148
1700516436478773800,10.026773681640625,0.10227923095226288,0.09806131571531296,0.1876937299966812
1700516436488784000,10.036783935546875,0.021573202684521675,0.14372014999389648,0.42177173495292664
1700516436498795000,10.046794921875,-0.13261157274246216,0.2963147461414337,0.3550800681114197
1700516436508805000,10.05680517578125,0.0416872575879097,-0.7693063020706177,-0.06262955814599991
1700516436518815000,10.06681494140625,0.005200887098908424,0.5291360020637512,-0.3794570565223694
1700516436528826000,10.076826171875,-0.09527991712093353,-0.4423808753490448,-0.017480989918112755
1700516436538836000,10.0868359375,-0.10411521792411804,-0.12854279577732086,0.02966628223657608
1700516436548846800,10.096846923828124,-0.01745542325079441,-0.04893159121274948,-0.40459516644477844
1700516436558857000,10.10685693359375,0.055453404784202576,0.37895211577415466,-0.022049374878406525
1700516436568867800,10.116867919921875,-0.12979981303215027,-0.12073414027690887,0.2865169942378998
1700516436578878000,10.1268779296875,0.027301661670207977,-0.5045249462127686,-0.272871732711792
1700516436588887800,10.1368876953125,0.18853236734867096,1.1313518285751343,-0.11966301500797272
1700516436598899000,10.14689892578125,-0.08676605671644211,-0.6126663088798523,0.5858110189437866
1700516436608908800,10.15690869140625,0.14880891144275665,-0.0240763071924448,0.44463977217674255
1700516436618920000,10.166919921875,0.09398934245109558,0.5270062685012817,-0.15072080492973328
1700516436628929800,10.1769296875,-0.028175977990031242,-0.27157238125801086,0.07131972163915634
1700516436638941000,10.18694091796875,-0.12912815809249878,0.5763975381851196,0.16094307601451874
1700516436648951000,10.196950927734376,0.13586755096912384,-0.6871442794799805,-0.18961787223815918
1700516436658961200,10.206961181640626,-0.038608111441135406,0.621875524520874,-0.16999010741710663
1700516436668972000,10.216971923828124,-0.14578036963939667,-0.5517023205757141,-0.07880772650241852
1700516436678982100,10.226982177734374,0.05338146537542343,-0.06640059500932693,-0.08107780665159225
1700516436688993000,10.236992919921875,-0.009125054813921452,0.2095644176006317,-0.1865275353193283
1700516436699003000,10.2470029296875,-0.10070184618234634,-0.06703096628189087,0.22485016286373138
1700516436709014000,10.257013916015625,-0.1516510397195816,0.2236357480287552,0.34739258885383606
1700516436719023900,10.26702392578125,0.04415254667401314,-0.5812876224517822,-0.18188618123531342
1700516436729035000,10.277034912109375,0.006070409435778856,0.6774826049804688,-0.17028038203716278
1700516436739044900,10.287044921875,-0.1622709333896637,-0.6073088645935059,0.04724101349711418
1700516436749055000,10.297054931640625,0.04027871415019035,-0.18715764582157135,-0.13921327888965607
1700516436759065900,10.30706591796875,0.08516043424606323,0.2012079507112503,-0.3420974314212799
1700516436769076000,10.317075927734376,-0.059471048414707184,-0.1553131639957428,-0.06813857704401016
1700516436779086800,10.3270869140625,-0.1748517006635666,0.005331382155418396,-0.027603132650256157
1700516436789097000,10.337096923828126,-0.03292998671531677,-0.6385464072227478,-0.6954866647720337
1700516436799108000,10.347108154296874,0.025299230590462685,0.8330961465835571,-0.4422205686569214
1700516436809118000,10.357117919921874,-0.1344643384218216,-0.42550867795944214,-0.054054711014032364
1700516436819129000,10.367129150390625,-0.036909546703100204,-0.2776617109775543,0.1071951612830162
1700516436829139000,10.377138916015625,0.038187332451343536,0.4559406340122223,-0.02509283646941185
1700516436839149000,10.387149169921875,-0.11965449899435043,-0.048229046165943146,0.4459809362888336
1700516436849160000,10.397159912109375,-0.13775892555713654,0.07858588546514511,0.5458502769470215
1700516436859170000,10.407170166015625,0.02292875200510025,-0.15353789925575256,0.09975961595773697
1700516436869181000,10.417180908203125,-0.0676829069852829,0.25812476873397827,0.0904524028301239
1700516436879191000,10.42719091796875,-0.17552974820137024,-0.06442825496196747,0.10963275283575058
1700516436889202000,10.437201904296876,0.01278690155595541,-0.7724607586860657,-0.01950632408261299
1700516436899211800,10.447211669921876,-0.0017741979099810123,0.5037180185317993,-0.4292277991771698
1700516436909223000,10.457222900390626,-0.13264992833137512,-0.7827826738357544,0.030356574803590775
1700516436919232800,10.467232666015626,-0.014270548708736897,0.1495082676410675,-0.15799443423748016
1700516436929243000,10.477242919921874,0.1197194755077362,0.26498693227767944,-0.32051223516464233
1700516436939254000,10.48725390625,-0.04910469427704811,0.2202301025390625,0.373441219329834
1700516436949264100,10.49726416015625,-0.14646773040294647,0.11662568151950836,0.42305538058280945
1700516436959275000,10.50727490234375,0.15317250788211823,-0.4325951039791107,0.06542960554361343
1700516436969285000,10.51728515625,-0.04362684115767479,0.6344190239906311,-0.1783638745546341
1700516436979296000,10.5272958984375,-0.24923965334892273,-0.7313229441642761,0.09248785674571991
1700516436989305900,10.537305908203125,-0.11499236524105072,0.07676588743925095,-0.045155495405197144
1700516436999317000,10.54731689453125,-0.10910011827945709,-0.14521817862987518,-0.19084131717681885
1700516437009326800,10.557326904296875,-0.1953015923500061,0.024112526327371597,0.13002485036849976
1700516437019338000,10.567337890625,-0.3005390465259552,-0.11844328790903091,0.08456148952245712
1700516437029347800,10.577347900390626,-0.031138477846980095,-0.8012583255767822,-0.382698118686676
1700516437039358000,10.58735791015625,-0.06893698871135712,0.46926283836364746,-0.36856284737586975
1700516437049368800,10.597368896484374,-0.09066519141197205,-0.805304229259491,-0.11251989006996155
1700516437059379000,10.60737890625,-0.16077983379364014,-0.010026002302765846,0.07264251261949539
1700516437069390000,10.61739013671875,0.024327443912625313,-0.14301840960979462,-0.38851553201675415
1700516437079400000,10.62739990234375,0.0657379999756813,0.6851255893707275,-0.04613420367240906
1700516437089411000,10.6374111328125,-0.056649696081876755,-0.08164425939321518,0.4253861904144287
1700516437099421000,10.6474208984375,0.03889040648937225,0.0234102513641119,0.22745072841644287
1700516437109432000,10.65743212890625,0.010063819587230682,0.5487627387046814,0.17755082249641418
1700516437119442000,10.66744189453125,-0.12897822260856628,-0.2712136507034302,0.08435695618391037
1700516437129453000,10.677453125,-0.050164368003606796,-0.061656173318624496,0.027347467839717865
1700516437139463000,10.687462890625,-0.044316332787275314,0.0048890309408307076,-0.3696821630001068
1700516437149473000,10.69747314453125,-0.2874954342842102,-0.16448481380939484,0.1907406598329544
1700516437159484000,10.70748388671875,-0.2393215000629425,0.03008999116718769,0.30659136176109314
1700516437169494000,10.717493896484376,-0.021021928638219833,-0.7505922317504883,-0.0007627293234691024
1700516437179505400,10.72750537109375,-0.04524950310587883,0.5265336036682129,-0.14026416838169098
1700516437189515300,10.737515380859374,-0.19004450738430023,-0.3663596212863922,0.13026532530784607
1700516437199526400,10.7475263671875,0.015843944624066353,-0.4363757073879242,0.12777766585350037
1700516437209536300,10.757536376953125,-0.031182685866951942,0.19143228232860565,-0.2723851799964905
1700516437219547400,10.76754736328125,-0.07863222807645798,-0.15272749960422516,-0.29308032989501953
1700516437229557200,10.77755712890625,-0.19265466928482056,0.23501038551330566,-0.20741844177246094
1700516437239568100,10.787568115234375,-0.021290641278028488,-0.5220403075218201,-0.5307006239891052
1700516437249578200,10.797578125,-0.003180080559104681,0.6247568130493164,-0.24823004007339478
1700516437259588400,10.80758837890625,-0.1742844581604004,-0.49599191546440125,-0.10341986268758774
1700516437269599200,10.81759912109375,-0.22806060314178467,-0.25683313608169556,-0.09960195422172546
1700516437279609000,10.827609130859376,-0.04205584153532982,-0.033489517867565155,-0.7061845660209656
1700516437289620200,10.8376201171875,0.017045829445123672,0.14468581974506378,-0.386324018239975
1700516437299630000,10.847630126953124,-0.15014688670635223,0.1270333230495453,0.1974206566810608
1700516437309641500,10.857641357421874,-0.0697798803448677,-0.5249958634376526,-0.2508591115474701
1700516437319651300,10.8676513671875,0.008956743404269218,0.8241098523139954,0.09723813831806183
1700516437329662200,10.877662109375,-0.10344117134809494,-0.2071997970342636,0.42927253246307373
1700516437339672300,10.88767236328125,0.049739859998226166,-0.07196313887834549,0.3697327673435211
1700516437349683200,10.89768310546875,0.07865352928638458,0.3535492718219757,0.20554544031620026
1700516437359693300,10.907693359375,-0.014495053328573704,-0.11581049114465714,0.49205735325813293
1700516437369704200,10.9177041015625,-0.09716623276472092,0.18295064568519592,0.5186340808868408
1700516437379714300,10.92771435546875,0.04699680209159851,-0.051952145993709564,-0.12819045782089233
1700516437389725200,10.93772509765625,-0.07459168136119843,0.27237212657928467,-0.06598860025405884
1700516437399735300,10.9477353515625,-0.10617171227931976,0.16020485758781433,-0.004731904715299606
1700516437409745200,10.9577451171875,0.07558024674654007,-0.6391171216964722,-0.11489889025688171
1700516437419756300,10.96775634765625,-0.014334730803966522,0.6008285880088806,-0.3249959349632263
1700516437429766100,10.97776611328125,-0.08662810176610947,-0.6742021441459656,-0.07738640159368515
1700516437439777300,10.98777734375,-0.04374614730477333,0.2544645071029663,-0.24410401284694672
1700516437449787400,10.997787353515625,0.06070808693766594,-0.28630125522613525,-0.5117117762565613
1700516437459798300,11.00779833984375,-0.06650445610284805,0.3482847511768341,-0.13865961134433746
1700516437469808400,11.017808349609375,-0.11450101435184479,-0.19227197766304016,0.0933547168970108
1700516437479819300,11.0278193359375,-0.11683793365955353,-0.3882497251033783,-0.2367454320192337
1700516437489829400,11.037829345703125,0.005672000348567963,0.543347179889679,-0.03791062906384468
1700516437499840300,11.04784033203125,-0.1655104011297226,-0.4483546316623688,0.34910285472869873
1700516437509850400,11.057850341796875,-0.08737725019454956,0.22929710149765015,0.33168524503707886
1700516437519861200,11.067861328125,0.08039949834346771,0.10458073765039444,0.12667033076286316
1700516437529871000,11.07787109375,-0.09208385646343231,0.09140554815530777,0.652506947517395
1700516437539882200,11.08788232421875,-0.13530083000659943,0.1496526151895523,0.4678915739059448
1700516437549892000,11.09789208984375,0.12618909776210785,-0.42599284648895264,-0.11838283389806747
1700516437559903500,11.107903564453125,0.08049936592578888,0.5344759225845337,-0.26521381735801697
1700516437569913300,11.117913330078125,-0.04164837673306465,-0.14558462798595428,-0.027513649314641953
1700516437579923500,11.12792333984375,0.1246066465973854,-0.19637218117713928,0.10592137277126312
1700516437589934300,11.137934326171875,0.04689373821020126,0.45852550864219666,-0.13211463391780853
1700516437599944400,11.1479443359375,-0.041365817189216614,-0.3473302721977234,0.11013715714216232
1700516437609955300,11.157955322265625,-0.07963011413812637,0.482637494802475,0.09795212745666504
1700516437619965400,11.16796533203125,0.14999082684516907,-0.23739337921142578,-0.17193233966827393
1700516437629976300,11.177976318359375,-0.06072353571653366,0.5052951574325562,0.1909869909286499
1700516437639986200,11.187986083984375,-0.07239697128534317,-0.07269923388957977,0.38284963369369507
1700516437649997300,11.197997314453126,0.036126311868429184,-0.4143356680870056,0.14041224122047424
1700516437660007200,11.208007080078126,0.11775778979063034,0.48641490936279297,-0.20861712098121643
1700516437670018300,11.218018310546874,-0.16791017353534698,-0.45145532488822937,0.18838775157928467
1700516437680028200,11.228028076171874,-0.03674975782632828,0.07852596789598465,-0.0662892758846283
1700516437690039000,11.2380390625,0.10786228626966476,-0.3155531585216522,-0.43853500485420227
1700516437700049200,11.248049072265625,0.013349627144634724,0.29078418016433716,-0.28067028522491455
1700516437710060300,11.258060302734375,-0.09347082674503326,-0.1167154312133789,0.010309096425771713
1700516437720070400,11.2680703125,-0.1134546548128128,-0.8950205445289612,-0.5213524103164673
1700516437730081300,11.278081298828125,0.07970095425844193,0.5366426706314087,-0.6998113393783569
1700516437740091400,11.28809130859375,0.023987358435988426,-0.012831642292439938,-0.6547088623046875
1700516437750102300,11.298102294921875,-0.015743542462587357,-0.14370577037334442,0.0004886900424025953
1700516437760112400,11.3081123046875,0.06296245753765106,0.6396436095237732,0.0668216422200203
1700516437770123300,11.318123291015626,-0.048060204833745956,0.4429507851600647,0.76750248670578
1700516437780133000,11.328133056640626,-0.03423307090997696,0.3899315297603607,1.404018521308899
1700516437790144300,11.338144287109374,0.15719467401504517,-0.19684116542339325,0.8713213205337524
1700516437800154000,11.348154052734374,0.10676426440477371,0.3557218909263611,0.7401864528656006
1700516437810164200,11.358164306640624,0.0814349353313446,0.23997318744659424,0.2852991223335266
1700516437820175000,11.368175048828125,0.15348117053508759,-0.6701596975326538,0.0049156625755131245
1700516437830185200,11.378185302734375,0.08724675327539444,0.6539314985275269,-0.41676127910614014
1700516437840196400,11.3881962890625,-0.04286064952611923,-0.6440988183021545,-0.1695685237646103
1700516437850206500,11.39820654296875,0.11909390240907669,0.06813137978315353,-0.39106976985931396
1700516437860217300,11.40821728515625,-0.0032754219137132168,-0.038711175322532654,-0.6454929709434509
1700516437870227500,11.4182275390625,0.04346571862697601,0.5353848338127136,-0.6958605647087097
1700516437880238300,11.42823828125,-0.06864137947559357,-0.15124277770519257,-0.3428955674171448
1700516437890248200,11.438248291015626,-0.16854427754878998,-0.411843478679657,-0.5142694711685181
1700516437900259300,11.44825927734375,0.11545921862125397,1.0478785037994385,-0.3305709958076477
1700516437910269200,11.458269287109376,-0.11025593429803848,-0.3283099830150604,0.18100440502166748
1700516437920280300,11.4682802734375,-0.08754263073205948,-0.1922975331544876,0.3478008508682251
1700516437930290200,11.478290283203124,0.11626402288675308,0.4531323313713074,-0.03441176936030388
1700516437940301000,11.488301025390625,-0.07320284098386765,-0.1261025369167328,0.3286716341972351
1700516437950311200,11.498311279296875,-0.051955077797174454,0.02979198470711708,0.48681411147117615
1700516437960322300,11.508322265625,0.15903225541114807,0.2587023973464966,0.11319979280233383
1700516437970332400,11.51833251953125,0.14510206878185272,0.19562223553657532,0.44376519322395325
1700516437980343300,11.52834326171875,0.08031880855560303,0.4591417610645294,0.7098709344863892
1700516437990353400,11.538353515625,0.3128087818622589,-0.4331442415714264,0.15816406905651093
1700516438000364300,11.5483642578125,0.10319402813911438,0.6772186756134033,0.02262967824935913
1700516438010374400,11.55837451171875,0.06686904281377792,-0.02474289759993553,-0.017423996701836586
1700516438020385300,11.56838525390625,0.07729984819889069,-0.12543462216854095,-0.1236787959933281
1700516438030395400,11.5783955078125,-0.02400067448616028,0.4014827311038971,-0.6408154368400574
1700516438040406300,11.58840625,-0.11963798105716705,-0.14924567937850952,-0.3170197606086731
1700516438050416000,11.598416015625,-0.029324332252144814,-0.19940951466560364,-0.35015588998794556
1700516438060427300,11.60842724609375,-0.07128562778234482,-0.3935515582561493,-0.5565143823623657
1700516438070437000,11.61843701171875,0.026031067594885826,0.3470650017261505,-0.12346654385328293
1700516438080448500,11.628448486328125,-0.06311478465795517,-0.12774597108364105,0.2841512858867645
1700516438090458400,11.638458251953125,0.039558060467243195,-0.6450849771499634,0.05740337073802948
1700516438100469200,11.64846923828125,0.18178923428058624,0.6922197341918945,0.03074566274881363
1700516438110479400,11.658479248046875,0.03802993893623352,-0.24476207792758942,0.3828813433647156
1700516438120490200,11.668490234375,0.1520949900150299,-0.29966607689857483,0.24492186307907104
1700516438130500400,11.678500244140626,0.13588087260723114,0.5961536765098572,-0.18104727566242218
1700516438140511200,11.68851123046875,0.016630109399557114,0.03659795969724655,0.08147089183330536
1700516438150521300,11.698521240234374,0.1298227161169052,0.17666637897491455,0.1738961637020111
1700516438160532200,11.7085322265625,0.05625714734196663,0.020168384537100792,-0.3062075972557068
1700516438170542300,11.718542236328124,0.022229405120015144,0.6181926727294922,-0.26515311002731323
1700516438180552700,11.728552734375,-0.13205844163894653,0.011329087428748608,0.21932436525821686
1700516438190562800,11.738562744140625,0.031251661479473114,-0.4579867422580719,-0.01498321071267128
1700516438200573700,11.74857373046875,0.10345928370952606,0.5671507716178894,-0.07009892910718918
1700516438210583800,11.758583740234375,-0.08431833982467651,-0.39762964844703674,0.4517187178134918
1700516438220594700,11.7685947265625,0.005065598525106907,-0.5155328512191772,0.5086584091186523
1700516438230604500,11.7786044921875,0.1087736189365387,0.35816505551338196,-0.2929200232028961
1700516438240615700,11.78861572265625,-0.0883205384016037,-0.22774288058280945,-0.16752001643180847
1700516438250625500,11.79862548828125,0.12520399689674377,0.36919188499450684,-0.11032810807228088
1700516438260636700,11.80863671875,0.10330694913864136,-0.1351975053548813,-0.015087073668837547
1700516438270646500,11.818646484375,0.02220943197607994,0.4528055489063263,0.2881748080253601
1700516438280656600,11.82865673828125,0.054248057305812836,0.17465010285377502,0.4628411531448364
1700516438290667500,11.83866748046875,0.22857938706874847,-0.37676379084587097,0.014142717234790325
1700516438300677600,11.848677734375,0.045341648161411285,0.4438924789428711,-0.023748205974698067
1700516438310688800,11.858688720703125,-0.09770418703556061,-0.1413821578025818,0.08942762017250061
1700516438320698600,11.86869873046875,0.0034376082476228476,-0.5197353363037109,0.07040838897228241
1700516438330709800,11.878709716796875,0.01702585443854332,0.26720985770225525,-0.35869771242141724
1700516438340719600,11.8887197265625,-0.2588707208633423,-0.2494146227836609,0.1989240199327469
1700516438350730800,11.898730712890625,0.032933980226516724,-0.2551864981651306,0.09940914809703827
1700516438360740600,11.90874072265625,-0.043110717087984085,-0.02846972458064556,-0.34265294671058655
1700516438370751700,11.918751708984376,-0.07313492894172668,0.4107779562473297,-0.2998455762863159
1700516438380761600,11.92876171875,-0.1552220731973648,-0.2407340407371521,0.0078102522529661655
1700516438390772500,11.9387724609375,0.05559561774134636,-0.47315582633018494,-0.39574599266052246
1700516438400782600,11.948782470703126,0.01936730556190014,0.49122992157936096,-0.0593288354575634
1700516438410793500,11.95879345703125,-0.053033921867609024,-0.4053155481815338,0.31075015664100647
1700516438420803600,11.968803466796874,0.07585135102272034,-0.48265185952186584,0.1474778652191162
1700516438430814700,11.978814697265625,0.13073484599590302,0.5859255194664001,-0.14649489521980286
1700516438440824800,11.988824951171875,-0.09697208553552628,-0.3317113518714905,0.33060136437416077
1700516438450835700,11.998835693359375,0.14438806474208832,-0.09523410350084305,0.27614185214042664
1700516438460845800,12.008845703125,0.014392521232366562,0.4635434150695801,-0.12831269204616547
1700516438470856700,12.018856689453125,-0.12148941308259964,0.05422861874103546,0.21573522686958313
1700516438480866600,12.028866455078125,0.05166665464639664,0.040760744363069534,0.23284576833248138
1700516438490877700,12.038877685546876,-0.0016759273130446672,-0.32457035779953003,-0.4022749960422516
1700516438500887600,12.048887451171876,-0.10469445586204529,0.4706929326057434,-0.49691495299339294
1700516438510898700,12.058898681640626,-0.1631079614162445,-0.6744285225868225,-0.30212655663490295
1700516438520908500,12.068908447265626,-0.12048567086458206,-0.772581160068512,-0.6839935183525085
1700516438530919400,12.07891943359375,0.00950801745057106,0.4578322768211365,-0.7496683597564697
1700516438540929500,12.088929443359374,-0.03465384989976883,-0.35778743028640747,-0.15074317157268524
1700516438550940700,12.098940673828125,-0.053572945296764374,-0.46455463767051697,0.14227432012557983
1700516438560950800,12.10895068359375,0.140638068318367,0.6439368724822998,-0.13849928975105286
1700516438570961700,12.118961669921875,0.025379657745361328,0.10090530663728714,0.39431801438331604
1700516438580971800,12.1289716796875,0.10370934754610062,0.055392153561115265,0.5943701267242432
1700516438590982700,12.138982666015625,0.09711829572916031,0.30970299243927,-0.0747528001666069
1700516438600992800,12.14899267578125,0.00466559175401926,0.548435389995575,0.20828716456890106
1700516438611003600,12.159003662109376,-0.08943507075309753,-0.3848443627357483,0.29059934616088867
1700516438621013800,12.169013671875,-0.016621854156255722,-0.39784589409828186,-0.4159969389438629
1700516438631024600,12.179024658203126,0.057623881846666336,0.6817527413368225,-0.6065493226051331
