time,seconds_elapsed,z,y,x
1700516798692586800,0.064586669921875,0.5025234054356813,-1.991403972711414,-0.0640322175906971
1700516798702596600,0.0745966796875,-1.608614177289605,1.0481310425773263,-0.04196377630867064
1700516798712606700,0.084606689453125,0.015372925698757171,0.07032046754732728,0.06274524652007966
1700516798722616600,0.094616455078125,0.009351181191205978,-0.08950184561833739,-0.11899349570367485
1700516798732626700,0.104626708984375,0.8343634964734316,-0.14772592491954564,0.4179452799551189
1700516798742636800,0.11463671875,0.560481088885665,-0.7747103342171758,-0.3412466191453859
1700516798752646700,0.124646728515625,-1.5694669927716254,-0.07882730686888098,0.15869166516792027
1700516798762656800,0.13465673828125,0.017099603360891343,1.6527670611403882,-0.28277557934578507
1700516798772666600,0.14466650390625,1.2315782692193984,-0.39288931076228617,0.3635528512386605
1700516798782676700,0.1546767578125,0.3157470343708992,-1.6882541157156228,-0.14079360490571707
1700516798792686600,0.1646865234375,-1.4206278459131716,0.9548910333439707,-0.15775635707918553
1700516798802696700,0.17469677734375,0.06544365529119968,0.013555062621831893,0.11117102191708982
1700516798812706800,0.184706787109375,-0.10990940448343753,-0.02878565724045038,-0.17247312042415142
1700516798822716700,0.194716552734375,0.8650888896048069,0.093736122187227,0.23725484120789914
1700516798832726800,0.204726806640625,0.6207979026824235,-0.9830331319838762,-0.2636856424178928
1700516798842736600,0.214736572265625,-1.6392290957838296,-0.05396905220523476,0.152883380747959
1700516798852746800,0.224746826171875,0.40319443167746066,1.6180569822870194,-0.2720075170939788
1700516798862756600,0.234756591796875,1.4173241281926632,-0.43252902803756293,0.2731726884158328
1700516798872766700,0.2447666015625,0.1653413688480854,-1.8277064255475997,-0.18468780128769574
1700516798882776800,0.25477685546875,-1.7086732188880442,1.1368250058788805,0.12681768652331082
1700516798892786700,0.26478662109375,0.3530471297174692,-0.11373144698962569,-0.07169391132500022
1700516798902796800,0.274796875,-0.425312739983201,0.12135953071527182,-0.03584291880819946
1700516798912806700,0.284806640625,1.0711907233864069,-0.3975901088643819,0.26922318360507486
1700516798922816800,0.294816650390625,0.4238181175112724,-0.7238764382325112,-0.3344995560379699
1700516798932827000,0.304826904296875,-1.4895359624445437,-0.10955189628265798,0.24082608729079363
1700516798942836700,0.314836669921875,0.2646750187814236,1.3933616533249615,-0.3159046360854059
1700516798952846800,0.324846923828125,1.0692904427230356,-0.327271175687015,0.3180722259154543
1700516798962856700,0.334856689453125,0.17204934205412864,-1.4584537186995148,-0.21728096105232833
1700516798972867800,0.344867919921875,-1.4168085798859595,0.8156129110351205,0.0753196275414899
1700516798982877700,0.354877685546875,0.3628858021646738,-0.06393894981667399,-0.043803230162896216
1700516798992887800,0.3648876953125,-0.36853462170660495,-0.07447904853150249,0.044019795523025096
1700516799002897700,0.374897705078125,0.6056511869549751,0.6065042966529727,0.0351377296809107
1700516799012907800,0.38490771484375,0.5148164852976799,-1.1489616530701516,-0.14223098076507448
1700516799022917600,0.394917724609375,-1.6140964080929756,-0.03544153493307531,0.24173081757817416
1700516799032927700,0.404927734375,0.565218054279685,1.6774828385934233,-0.32161607253476976
1700516799042937900,0.414937744140625,1.1218804616600275,-0.2748833282586187,0.22840627577658743
1700516799052947700,0.42494775390625,0.10760346562862395,-1.7041525265932083,-0.16973518336024135
1700516799062957800,0.434957763671875,-1.5001421121329068,1.056807100985944,0.11654851370435207
1700516799072967700,0.4449677734375,0.40429508639574047,-0.1465968478243798,0.06963153543509543
1700516799082977800,0.454977783203125,-0.17218787374198435,-0.06919160964787006,-0.04290087449569255
1700516799092987600,0.464987548828125,0.9285714739561081,0.19723222556225956,0.17300751956179736
1700516799102997800,0.474997802734375,0.8927566487312316,-0.9864465936891734,-0.25693415886368604
1700516799113007900,0.4850078125,-1.7916309035599232,-0.13864274701476095,0.22969050690084694
1700516799123017700,0.495017822265625,0.041405777099728584,1.478623523285985,-0.2800783396184444
1700516799133027800,0.50502783203125,1.1762626247107981,-0.05479527389630675,0.2562618490926921
1700516799143037700,0.51503759765625,0.39783904212415216,-1.8272478681251405,-0.11122541898544877
1700516799153047800,0.5250478515625,-1.5428940431445837,0.722366325930506,0.07121149810291827
1700516799163058000,0.535057861328125,0.15133096367418766,-0.05904372512102127,0.035700368532352145
1700516799173067800,0.54506787109375,-0.15951427012979982,-0.16179902006611227,-0.07097290357407182
1700516799183078000,0.555077880859375,0.5095014277547597,0.30355609970912334,0.1327718091547489
1700516799193087700,0.565087646484375,1.0958768363535403,-0.9670753921344876,-0.18597345718406139
1700516799203097900,0.575097900390625,-1.7464912006288766,-0.32951537441723044,0.15463895571101455
1700516799213107700,0.585107666015625,0.0315536606490612,1.447207225281,-0.27950945368930696
1700516799223117800,0.595117919921875,1.220266017088294,0.14620273394025862,0.24264979558661579
1700516799233127700,0.605127685546875,0.5921031385958194,-1.860283584025502,-0.13047186164930463
1700516799243137500,0.615137451171875,-1.6725047579199075,0.7914832629069686,0.007641235468164086
1700516799253147600,0.625147705078125,0.2285615028709173,0.018581804742664097,0.03781294023953378
1700516799263157500,0.635157470703125,0.030582185268402097,-0.17827756891921162,-0.0979458853693679
1700516799273167600,0.645167724609375,0.31889000857174393,0.38353864102773366,0.17593433026131242
1700516799283177700,0.655177734375,1.1973784779757262,-0.824085044369474,-0.22243395990133283
1700516799293187600,0.6651875,-1.6175018326222896,-0.29584121448285877,0.10778207359854132
1700516799303197700,0.67519775390625,-0.06537818883955478,1.3031358773462474,-0.22816223788764325
1700516799313207600,0.68520751953125,1.046826097458601,0.44409547412544487,0.18856153744850307
1700516799323217700,0.6952177734375,0.785545981812477,-1.8282202202886342,-0.06359386270605027
1700516799333227500,0.7052275390625,-1.5407681370317936,0.6485729215756059,-0.03497048335522413
1700516799343237600,0.715237548828125,-0.1008002153545618,0.14217895831689237,0.11954141191001981
1700516799353248500,0.72524853515625,0.04849544309973716,-0.16112587004490195,-0.06646550915222614
1700516799363258600,0.735258544921875,0.04220306495726108,0.5829721760265529,0.13064356495440005
1700516799373268500,0.7452685546875,1.4564824186265468,-0.8409887598320841,-0.13522417074292897
1700516799383278600,0.755278564453125,-1.7175573670893907,-0.5280304063316434,0.08215257883407175
1700516799393288700,0.765288818359375,-0.2464683309614658,1.2737085612013934,-0.16348339295648037
1700516799403298600,0.775298583984375,1.1900725388765334,0.6203098269045353,0.15336363854557275
1700516799413308700,0.78530859375,0.8350894726604223,-2.0504759010136127,-0.038641719213873146
1700516799423318500,0.795318603515625,-1.5662404319405554,0.4809267829164862,-0.14754194665476678
1700516799433328600,0.80532861328125,-0.2848626512855291,0.20183248589932917,0.13794333004113285
1700516799443338800,0.8153388671875,0.17305939587950706,-0.21210253550112246,-0.1765363512750715
1700516799453348600,0.8253486328125,0.08217617890536785,0.3761093678098172,0.13329575996361673
1700516799463358700,0.835358642578125,1.5600672962635755,-0.8373848170559853,-0.15055848146434872
1700516799473368600,0.84536865234375,-1.5696043554157018,-0.5188626919485628,0.029835093228146432
1700516799483378700,0.855378662109375,-0.41190673044323917,1.0830690119024367,-0.09321436333544551
1700516799493388500,0.865388427734375,1.1571253780424595,0.8164437358360737,0.04082205892764031
1700516799503398700,0.875398681640625,1.1163368560582398,-1.9931059543237089,0.059575420844927424
1700516799513408800,0.88540869140625,-1.6206605889141559,0.4537706996392458,-0.18644567780569193
1700516799523418600,0.895418701171875,-0.5104331556469202,0.3419001511506736,0.23527890149243175
1700516799533428700,0.9054287109375,0.3968190514266491,-0.23185513758882878,-0.15141743638124316
1700516799543438600,0.9154384765625,0.0774333682924509,0.48142662219740445,0.11248973983284086
1700516799553448700,0.92544873046875,1.6413760446846484,-0.6674651074416935,-0.13861213268078862
1700516799563458600,0.93545849609375,-1.661785795506835,-0.536393380203098,0.0751151179453358
1700516799573468400,0.945468505859375,-0.3894938231050968,1.1163835447441786,-0.13737148496992885
1700516799583478500,0.955478515625,1.2326444371461867,0.8935571514591574,0.036183695069886744
1700516799593488100,0.965488037109375,0.9781056124538182,-1.9987018746346235,0.05452763593606651
1700516799603498200,0.975498291015625,-1.5783488028854131,0.4831429976612329,-0.17054003346972166
1700516799613508400,0.98550830078125,-0.4918623106896877,0.34988822729513047,0.23260781911965459
1700516799623518200,0.995518310546875,0.3233534177213907,-0.1674402408234775,-0.19522512352354823
1700516799633528300,1.0055283203125,-0.23589199188947677,0.4583523283410817,0.2233315663281828
1700516799643538200,1.0155380859375,1.6955314132422208,-0.7379007988665253,-0.12758158356789498
1700516799653548300,1.02554833984375,-1.436699859791994,-0.6077483053646981,0.0880807998392731
1700516799663558100,1.03555810546875,-0.5553904877483844,1.110683652602136,-0.11658961289972067
1700516799673568300,1.045568359375,1.053103862553835,0.9490377772711217,0.10930935623105614
1700516799683578400,1.055578369140625,1.051447327518463,-2.056394769668579,0.08164473890978842
1700516799693588200,1.065588134765625,-1.5426087964624167,0.39919790938720107,-0.16282091045975683
1700516799703598300,1.075598388671875,-0.5145774158447981,0.30871969301737845,0.18506401418894527
1700516799713608200,1.085608154296875,0.35229192743599413,-0.32023411665707824,-0.129785779081285
1700516799723618300,1.095618408203125,-0.2359218025058508,0.6877528393194079,0.13614764226339757
1700516799733628200,1.105628173828125,1.8387153108179568,-0.9069302085775881,-0.16185915275551377
1700516799743638300,1.11563818359375,-1.726956479075551,-0.6109111533097923,0.08595204418227076
1700516799753649200,1.125649169921875,-0.42308921871483324,1.2789978997811675,-0.21727836723644284
1700516799763659300,1.1356591796875,1.3583102136880159,0.7513353769138454,0.14575466137919574
1700516799773669000,1.145669189453125,1.0181155512809752,-2.217198348956555,0.07206997809577732
1700516799783679200,1.15567919921875,-1.6341273887306451,0.5385800035271793,-0.1101583012105897
1700516799793689300,1.165689453125,-0.30049919635653494,0.43020073122046887,-0.015144377639889716
1700516799803699200,1.17569921875,0.33302433238625523,-0.39246129460856316,-0.09016885815970599
1700516799813709300,1.185709228515625,0.06994856549501419,0.41348559713251887,0.14024462925344705
1700516799823719200,1.19571923828125,1.6209171940237284,-0.8753477602254599,-0.28802440325208006
1700516799833729300,1.205729248046875,-1.8012743456959723,-0.27135427734963596,0.11604461930282413
1700516799843739400,1.215739501953125,-0.33227497532367706,1.3271356154844165,-0.26079251479227095
1700516799853749200,1.225749267578125,1.4362491934150456,0.4754387068942189,0.09616418958436697
1700516799863759400,1.23575927734375,0.9827987387061119,-2.1318091993540524,-0.087217461008206
1700516799873769200,1.245769287109375,-1.912291419160366,0.840643526590988,-0.11801876892000436
1700516799883779300,1.255779296875,-0.12228256384432315,0.33184812821373344,0.08497315268013626
1700516799893789200,1.2657890625,0.20144085623323915,-0.276930981503427,-0.16961426039431243
1700516799903799300,1.27579931640625,0.32847616756260395,0.23612960003763436,0.22476959977466612
1700516799913809400,1.285809326171875,1.2291297070235012,-0.8566182906404137,-0.3004549553560093
1700516799923819300,1.2958193359375,-1.9140297872602938,-0.14263532378226518,0.22384612825419753
1700516799933829400,1.305829345703125,-0.10925064831376075,1.5075088415086269,-0.2310890851197764
1700516799943839200,1.315839111328125,1.5035861151069403,0.006262713656574487,0.18653478086125105
1700516799953849300,1.325849365234375,0.7157154897391795,-1.9806646981626748,-0.12482863159794359
1700516799963859200,1.335859130859375,-2.0104934347152708,0.9950113006778061,0.2282941206390038
1700516799973869300,1.345869384765625,0.20677578752040862,0.19219678867831824,0.07552315075695515
1700516799983879400,1.35587939453125,0.0050958618342876435,-0.2136729266230017,-0.09712320734225213
1700516799993889300,1.36588916015625,0.6599965251266956,-0.022661036880314348,0.3919496552919969
1700516800003899400,1.3758994140625,0.871431536629796,-0.8115781756263226,-0.3267516818575561
1700516800013909200,1.3859091796875,-1.7929110064983367,-0.0749173668835312,0.3693011856323108
1700516800023919400,1.39591943359375,0.14748890129327774,1.5744189160905777,-0.3364271265670657
1700516800033929500,1.405929443359375,1.4493161802589893,-0.38807672284878786,0.3333230961371213
1700516800043939300,1.415939208984375,0.47588382031321524,-1.661261771632731,-0.15753763629458845
1700516800053949400,1.425949462890625,-1.8983833053171633,0.9403389955740421,0.16257811467982827
1700516800063959300,1.435959228515625,0.3793208041369915,0.11553250506222247,-0.08410089989025145
1700516800073969400,1.445969482421875,-0.1113268700659275,-0.22974033739194272,0.022278869162313638
1700516800083980300,1.455980224609375,0.8023872264981269,0.17377791941240428,0.19542835447806864
1700516800093990400,1.465990478515625,0.6602618980646133,-1.0292404641464352,-0.3327297333538532
1700516800104000300,1.476000244140625,-1.7785867130696773,0.011460866821557282,0.22759638416580855
1700516800114010400,1.48601025390625,0.4557295055568218,1.7218018727913498,-0.41873091390747574
1700516800124020200,1.496020263671875,1.3771288959264754,-0.7110920677222311,0.2877410197334364
1700516800134030300,1.5060302734375,0.03704758189022541,-1.5304996948651968,-0.30565018591154364
1700516800144040400,1.51604052734375,-1.6632950310260057,0.9471776094224303,0.17153017701823264
1700516800154050300,1.52605029296875,0.6093792675673961,0.047241132189705964,-0.2663027295811102
1700516800164060400,1.536060302734375,-0.4452566268593073,-0.1557924000624567,0.0502509084649384
1700516800174070300,1.5460703125,1.1145488035976887,0.16010317593365908,0.1169375495545566
1700516800184080400,1.556080322265625,0.39068390967249866,-1.131839034159854,-0.3738187726546079
1700516800194090200,1.56609033203125,-1.8093442549049854,0.36564518387541173,0.2998501578632742
1700516800204100400,1.576100341796875,0.6473959867507219,1.7844624732352792,-0.401258604776673
1700516800214110500,1.5861103515625,1.473966637390852,-1.1358663899797945,0.3495259698539972
1700516800224120300,1.596120361328125,-0.3645540276378393,-1.178174595811963,-0.39844058821387585
1700516800234130400,1.60613037109375,-1.5753367615878582,1.1080061770211904,0.4005232031742111
1700516800244140300,1.616140380859375,0.7239595864713192,-0.026231661908701062,-0.3018759280698374
1700516800254150400,1.626150390625,-0.5285393057018518,0.03734371529258788,0.17864731554705648
1700516800264160500,1.636160400390625,1.4259323820620775,-0.3092266926914453,0.05497399146407842
1700516800274170400,1.64617041015625,-0.21856384046971797,-0.7009208023197948,-0.16783950580675153
1700516800284180500,1.656180419921875,-1.4079986659646033,0.3208375624429434,0.29223420296683905
1700516800294190300,1.6661904296875,0.6709264999419451,1.679381950213015,-0.3400170773504302
1700516800304200400,1.676200439453125,1.3697539832442998,-1.4220140395745635,0.40126214844062924
1700516800314210300,1.686210205078125,-0.6305465587586164,-0.7167157528229058,-0.3753048464938998
1700516800324220400,1.696220458984375,-1.3762012596875428,0.7885599228061735,0.40145226418524976
1700516800334230500,1.70623046875,0.703998748460412,-0.013391834884136915,-0.27030064011085775
1700516800344240400,1.716240478515625,-0.5918868654966354,0.13403656839355826,0.2040117296345532
1700516800354250500,1.72625048828125,1.5030542001873255,-0.33237405178397894,-0.031599947476200756
1700516800364260400,1.73626025390625,-0.48573827485144133,-0.7796925796091556,-0.13731796468440444
1700516800374270500,1.7462705078125,-1.157486028048396,0.4589684874780476,0.17335370265096425
1700516800384281300,1.75628125,0.7500958982467651,1.636992130511999,-0.2778288801912218
1700516800394291500,1.76629150390625,1.3637199637770652,-1.6696024606071411,0.2974312601532787
1700516800404301300,1.77630126953125,-0.8222533719629049,-0.42933388525806365,-0.3671687036482617
1700516800414311400,1.7863115234375,-1.1899170560538768,0.6929748117513954,0.295726940453425
1700516800424321500,1.796321533203125,0.8171119174212217,-0.06958696564100682,-0.30682332134414464
1700516800434331400,1.806331298828125,-0.6004676468372344,0.2101449716925621,0.19391078952196986
1700516800444341500,1.816341552734375,1.5911831500172615,-0.30897439843080937,-0.09574998276028782
1700516800454351400,1.826351318359375,-0.7842430825203657,-0.8794034653570503,-0.113938806129992
1700516800464361500,1.836361572265625,-0.9813409411132336,0.6947858066961169,0.03265698224846274
1700516800474371300,1.846371337890625,0.8456319094628095,1.4592726338669657,-0.17671375366859138
1700516800484381400,1.85638134765625,1.2329337754815817,-1.795512128907442,0.18505305440351366
1700516800494391600,1.8663916015625,-1.0341039785295725,-0.18761947082541883,-0.3403837917709723
1700516800504401400,1.8764013671875,-0.9982347927689552,0.6357502648815512,0.26805720856562254
1700516800514411500,1.88641162109375,0.6744575966775417,-0.08630816414356231,-0.2688642871648073
1700516800524421000,1.896421142578125,-0.49189095226228235,0.23507409963533282,0.22589937098957596
1700516800534431200,1.90643115234375,1.5766864226311443,-0.4238551615860313,-0.22207882632073014
1700516800544441300,1.91644140625,-1.0210615416049957,-0.5700156638197601,0.05179989147260785
1700516800554451200,1.926451171875,-0.7024877593755722,0.5584021637197584,-0.030620836778357623
1700516800564461600,1.936461669921875,0.8120224853277206,1.4078461057513951,-0.10891874947827308
1700516800574471400,1.946471435546875,1.2612749038249254,-1.7627639977768061,0.25173085459955036
1700516800584481500,1.9564814453125,-1.1084726985543967,-0.1112498593069613,-0.3198018261870369
1700516800594491400,1.966491455078125,-0.8988426906466483,0.5091757029317319,0.2929534936847165
1700516800604502500,1.97650244140625,0.6937760451316833,-0.04963599143698811,-0.26966599546913056
1700516800614512400,1.986512451171875,-0.6014180794298648,0.2752380599804222,0.24015432550907134
1700516800624522500,1.9965224609375,1.6370248637378215,-0.3394627679359168,-0.13134144755806773
1700516800634532400,2.006532470703125,-1.0239940879255534,-0.7910817694339901,-0.042014154789038
1700516800644542500,2.01654248046875,-0.8076993614315986,0.7080041847094893,0.04313789812196046
1700516800654552600,2.026552490234375,0.8726613706856966,1.3625722550466657,-0.12206187029834836
1700516800664562400,2.0365625,1.103645132267475,-1.735365703241527,0.22302315796613692
1700516800674572500,2.046572509765625,-1.060560023778677,-0.1564524714063853,-0.28883118959031995
1700516800684582400,2.05658251953125,-0.8245330073326825,0.45958121254891154,0.26919476122818886
1700516800694592500,2.066592529296875,0.6324696357756853,-0.022588848426938056,-0.2576275479553267
1700516800704602400,2.076602294921875,-0.654831689709425,0.29921441724300385,0.21562555852811782
1700516800714612500,2.086612548828125,1.62505443995893,-0.3107788905695081,-0.07448105782549828
1700516800724622600,2.09662255859375,-0.9333306511819363,-0.8103932766906916,-0.11005860369578004
1700516800734632400,2.106632568359375,-0.8614531634509562,0.7276379827231169,0.022894845636188984
1700516800744642600,2.116642578125,0.853297914046049,1.4513672675698994,-0.08384593874849379
1700516800754652400,2.12665234375,1.1624690771579742,-1.7367358225509524,0.17460012251548468
1700516800764662500,2.13666259765625,-0.9302893837898969,-0.23340930822826922,-0.3389816698880866
1700516800774672400,2.14667236328125,-0.9803969382613896,0.5687472513191402,0.3090481577867642
1700516800784682500,2.1566826171875,0.5063444250285625,-0.02918422810398042,-0.3228255944550037
1700516800794693400,2.166693359375,-0.4894494043290615,0.302242459827289,0.19709855271261184
1700516800804703500,2.176703369140625,1.7280501195311546,-0.45697797124795614,-0.13124160391278564
1700516800814713600,2.186713623046875,-0.8431623044788837,-0.7070891887564211,-0.07548789678048343
1700516800824723500,2.196723388671875,-0.9319687151789665,0.5494250034727156,0.008534823307022451
1700516800834733600,2.206733642578125,0.7227788522541523,1.4479744102612138,-0.09209463859051466
1700516800844743400,2.216743408203125,1.3173270459145308,-1.5861432561539113,0.19617497159428893
1700516800854753500,2.22675341796875,-0.7507868031203746,-0.3578758650481701,-0.375882646381855
1700516800864763400,2.236763427734375,-1.2184107446104286,0.4995571029759943,0.33115181651264425
1700516800874773500,2.2467734375,0.5562023886531591,0.08011500859186053,-0.2902246167100966
1700516800884783600,2.25678369140625,-0.36992753736972805,0.15435089601725338,0.18579020957164466
1700516800894793500,2.26679345703125,1.5276397753894329,-0.22510953578613696,-0.09929876128304749
1700516800904803600,2.276803466796875,-0.6744844846844673,-0.8249589045945555,-0.08613331903330981
1700516800914813400,2.2868134765625,-0.9793138191998004,0.3394306922972202,0.015562566519342362
1700516800924823600,2.296823486328125,0.6539969924509524,1.569697294396162,-0.0949579555997625
1700516800934833400,2.30683349609375,1.1665841112613677,-1.2928814637050032,0.24878811567854134
1700516800944843500,2.316843505859375,-0.5415490094006061,-0.6871198021128774,-0.3316831103777513
1700516800954854400,2.3268544921875,-1.36438222707808,0.633969811205566,0.32582466667313126
1700516800964864500,2.336864501953125,0.5301935026496648,0.04506941417381167,-0.2685788578195497
1700516800974874600,2.34687451171875,-0.5099415727376938,0.047929260584339495,0.24186591519992798
1700516800984884500,2.356884521484375,1.406964062219858,0.1917271253399551,-0.029934279286302625
1700516800994894600,2.36689453125,-0.10424947902560233,-1.1741874258719385,-0.12751030842997133
1700516801004904400,2.376904541015625,-1.3154080605506897,0.4132907321475446,0.13690043339207766
1700516801014914600,2.38691455078125,0.6164303551226854,1.6745388940960169,-0.21042609018888322
1700516801024924400,2.39692431640625,1.166798046272993,-1.0177890958055853,0.26642862098310144
1700516801034934500,2.4069345703125,-0.10452888048887252,-1.0477718538761138,-0.2573242176271975
1700516801044944600,2.416944580078125,-1.4416016603589057,0.7466128784365952,0.19032672049012034
1700516801054954500,2.42695458984375,0.5474982731938361,0.04768273847736418,-0.2696331161128357
1700516801064964600,2.436964599609375,-0.34296237355470655,-0.09375833401903509,0.20079316944684833
1700516801074974500,2.446974365234375,1.3272288467258213,0.19957433170899747,-0.05923135664761066
1700516801084984600,2.456984619140625,0.14223521854877472,-0.9989258437730372,-0.1720483191408217
1700516801094995500,2.466995361328125,-1.4772417135387659,0.11106456586793065,0.11727080009691417
1700516801105005600,2.477005615234375,0.5421469752937556,1.5818325533479451,-0.3100466673048213
1700516801115015400,2.487015380859375,1.1542138745099306,-0.6253039088647813,0.3363600526802242
1700516801125025500,2.497025634765625,0.10429390268921851,-1.3283967214614152,-0.3470875271933153
1700516801135035400,2.507035400390625,-1.7018658769607542,0.7502325302384794,0.24643059276696294
1700516801145045500,2.51704541015625,0.5160889894515276,0.01650558299049735,-0.19755111878570167
1700516801155055600,2.5270556640625,-0.2760924848526716,-0.2187638930864632,0.19072240527682005
1700516801165065500,2.5370654296875,0.9311591523617505,0.4272304101727903,0.004412446147389709
1700516801175075600,2.54707568359375,0.6516793631583452,-1.0440152778215706,-0.19243191260844467
1700516801185085400,2.55708544921875,-1.7174012997448442,-0.0762182203490287,0.23154574284609405
1700516801195095600,2.567095458984375,0.4113929357022047,1.6080670648008584,-0.3586793634507805
1700516801205105700,2.577105712890625,1.1683476138025521,-0.3433132328189909,0.3777674737477675
1700516801215116500,2.587116455078125,0.296744812259078,-1.5506735911048948,-0.2500347912713885
1700516801225126400,2.59712646484375,-1.7203706709444522,0.7375948016572743,0.207957033194229
1700516801235136500,2.607136474609375,0.4732739300757646,0.06142214469015598,-0.09635591276418418
1700516801245146600,2.617146728515625,-0.20682547188103198,-0.2674683027617633,0.16205558864306657
1700516801255156500,2.627156494140625,0.6202683258503675,0.5381399316094816,0.06212660316508263
1700516801265166600,2.63716650390625,0.9629103814095258,-1.0055256073642522,-0.15131331841964274
1700516801275176400,2.647176513671875,-1.75334822691679,-0.18238091258481143,0.2393635039249435
1700516801285186600,2.6571865234375,0.32105098599791526,1.592192911581695,-0.37163551033139225
1700516801295196400,2.667196533203125,1.1902911500632762,-0.09026062809638678,0.4055318981816992
1700516801305206500,2.67720654296875,0.36156186008453367,-1.7072034385964274,-0.23281134233511983
1700516801315216600,2.687216552734375,-1.697996926572919,0.7607092083282768,0.13637323118019848
1700516801325226500,2.6972265625,0.32656653454899787,0.1787169832497835,-0.08237177454270422
1700516801335237400,2.7072373046875,-0.08469722181558609,-0.23204444961585102,0.08650288299806415
1700516801345247500,2.71724755859375,0.5014747731655835,0.3258538562349975,0.07571483740415423
1700516801355257600,2.727257568359375,0.9196323806971312,-0.6938697147645055,-0.18304723100643605
1700516801365267500,2.737267333984375,-1.590779245391488,-0.2547751176662743,0.17915354803614317
1700516801375277600,2.747277587890625,0.131952893987298,1.3458216112539172,-0.40357597834095355
1700516801385287400,2.757287353515625,1.1513193221122027,0.23212094891816376,0.3247183493990451
1700516801395297500,2.767297607421875,0.5526935037493705,-1.6720026536166668,-0.13165957359652966
1700516801405307600,2.7773076171875,-1.6095359683096409,0.5294589047648013,0.03525437833052129
1700516801415317500,2.7873173828125,0.08723813847005367,0.1841492374315858,-0.19150255933646113
1700516801425327600,2.79732763671875,0.1540472368955612,-0.2590006264068186,0.13302326316516846
1700516801435338500,2.80733837890625,0.22235914109945296,0.5097982187442481,0.025093268995918332
1700516801445348600,2.8173486328125,1.2789812409073114,-0.7401567610997706,-0.18565419863443822
1700516801455358500,2.8273583984375,-1.6526994027316568,-0.5668381297621876,0.13167119096908717
1700516801465368600,2.83736865234375,0.08762216935157775,1.4194003499448298,-0.35419319448005404
1700516801475378400,2.84737841796875,1.1587228763669728,0.35855149928741153,0.30812428440749645
1700516801485388500,2.857388427734375,0.743266344487667,-1.834151363903284,-0.1891847839133814
1700516801495398400,2.8673984375,-1.7150626276642083,0.5415636224478483,0.03394340532980859
1700516801505408500,2.877408447265625,0.017792261800169944,0.19802388739660381,-0.08472184480018913
1700516801515418600,2.887418701171875,0.3049842328161001,-0.26469270056858657,0.017721096260100603
1700516801525429500,2.897429443359375,0.003799392282962799,0.4888642979174852,0.08511095371562986
1700516801535439600,2.907439697265625,1.3155664659827946,-0.6320842897199094,-0.22417634658925234
1700516801545449500,2.917449462890625,-1.5674357792049645,-0.4486018456339836,0.13345372700430452
1700516801555459600,2.92745947265625,-0.05634557207822799,1.1927801904000341,-0.2739882060497999
1700516801565469400,2.937469482421875,1.0595318497747181,0.6428880078069865,0.2089304813362658
1700516801575479600,2.9474794921875,0.7774310644179582,-1.7878017006605862,-0.040891580499894914
1700516801585489400,2.957489501953125,-1.6186504181355237,0.4828858080297708,-0.058890251592360436
1700516801595499500,2.96749951171875,-0.113513566455245,0.21970731141641733,0.08853406003210693
1700516801605509600,2.977509521484375,0.34717677637934685,-0.21465894198566673,-0.054512840225733813
1700516801615520500,2.9875205078125,-0.21738895147144793,0.547390428905189,0.149798201148957
1700516801625530400,2.9975302734375,1.5299468832880259,-0.6087936496991664,-0.19424977568536997
1700516801635540500,3.00754052734375,-1.63029526322186,-0.5456497227177024,0.16545849242173136
1700516801645550600,3.017550537109375,-0.21253975787460802,1.2024878568787127,-0.24624738168716429
1700516801655560400,3.027560546875,1.1556588126212357,0.7290794137030839,0.24611677757743744
1700516801665570600,3.037570556640625,0.8381944529384374,-1.8765720171339808,0.009304455972649157
1700516801675580400,3.047580322265625,-1.6084581099450588,0.4490969356745481,-0.09963171956446021
1700516801685590500,3.057590576171875,-0.19277064304351804,0.2569867293011397,0.11600140121560543
1700516801695601400,3.067601318359375,0.42627369396984577,-0.2740652168087661,-0.07098207326121628
1700516801705611500,3.077611572265625,-0.2548182261556387,0.6028516193643212,0.16397216285411267
1700516801715621400,3.087621337890625,1.5941519366949797,-0.7134279633238911,-0.22366419581603258
1700516801725631500,3.097631591796875,-1.6282167033821344,-0.5172101024359465,0.18804982506670057
1700516801735641600,3.1076416015625,-0.17741291491389274,1.1801285063587128,-0.30322544298265125
1700516801745651500,3.1176513671875,1.2673562695652245,0.7207947657648474,0.22878259827569125
1700516801755661600,3.12766162109375,0.8000456318080424,-1.9937489284023642,-0.00111099344920367
1700516801765672400,3.13767236328125,-1.6082260547548533,0.5168438994720578,-0.1212325068021193
1700516801775682600,3.1476826171875,-0.21636545364260673,0.29354104778170587,-0.012016199149377644
1700516801785692400,3.1576923828125,0.37451135802865027,-0.16251944329515097,-0.1287625004481524
1700516801795702500,3.16770263671875,-0.061734863901138304,0.23738106140345333,0.21732374074812977
1700516801805712400,3.17771240234375,1.2431862894266843,-0.5149923533212393,-0.3471266901599243
1700516801815722500,3.187722412109375,-1.4942624064445496,-0.3119972533833235,0.17930588905364275
1700516801825732400,3.197732421875,-0.1484013399630785,0.8872362778745592,-0.30803244140557945
1700516801835742500,3.207742431640625,1.0271721334397792,0.8260373474810272,0.1395462351931259
1700516801845753300,3.21775341796875,0.9673597620338201,-1.707451860399544,0.00272222803812474
1700516801855763500,3.227763427734375,-1.598800639283657,0.37956096956841645,-0.13418017811533062
1700516801865773300,3.237773193359375,-0.25799510262608527,0.17550335496552288,0.08321801610849797
1700516801875783400,3.247783447265625,0.5448527271211147,0.09057999624386429,-0.12977266387138514
1700516801885793500,3.25779345703125,-0.21992694551646708,0.18374591732770204,0.23009777252748606
1700516801895803400,3.267803466796875,1.1935112811535595,-0.2521625240150839,-0.3068871438279748
1700516801905814500,3.277814453125,-1.1960691489428281,-0.5771430314816535,0.15559706015344707
1700516801915824400,3.287824462890625,-0.19779168607592582,0.7419003168314695,-0.21296974678970873
1700516801925834500,3.29783447265625,0.7670142998218535,1.0575883144915104,0.09696151397451758
1700516801935844400,3.30784423828125,1.00173198723495,-1.5329136241391301,0.08295457939933985
1700516801945854500,3.3178544921875,-1.2640642422825097,0.00586523877158761,-0.1965690124131739
1700516801955864300,3.3278642578125,-0.5872831710934638,0.22647242163717746,0.16547737978529184
1700516801965874400,3.33787451171875,0.6165460904568434,0.09932298240885137,-0.19590561660099773
1700516801975885300,3.34788525390625,-0.5629460176944733,0.2407948153696954,0.20533315096404403
1700516801985895400,3.3578955078125,1.4016718010306357,0.0005192015685141087,-0.13973514536134898
1700516801995905300,3.3679052734375,-0.8267693880826235,-1.067087745046988,-0.0274382977521047
1700516802005915400,3.377915283203125,-0.6750596542239189,0.7669950105994939,-0.07196129355691373
1700516802015925500,3.387925537109375,0.7665946131050586,1.3119281094804405,0.0377415189711377
1700516802025935400,3.397935302734375,0.9449883557498454,-1.375481859371811,0.12267861395720392
1700516802035946500,3.407946533203125,-0.7694453263610601,-0.3939825128264725,-0.2686293458977714
1700516802045956400,3.417956298828125,-1.0079057074338198,0.4940699037365615,0.24756898567974567
1700516802055966500,3.427966552734375,0.7371943310976028,-0.024359584426507354,-0.26305793897360563
1700516802065976300,3.437976318359375,-0.5116454540461302,0.19534129724912344,0.2141624637056142
1700516802075986400,3.447986328125,1.3652140017271042,0.02184628643132746,-0.0975880849076435
1700516802085996300,3.457996337890625,-0.4263625412970781,-0.9566147883966565,-0.029751177804358302
1700516802096007400,3.46800732421875,-0.8268225795745849,0.2765804875653237,-0.02507799836155027
1700516802106017300,3.478017333984375,0.5711509514600038,1.6082826072476804,-0.16866843091156333
1700516802116027400,3.48802734375,0.763917502850294,-0.9410827266134321,0.32686679613720626
1700516802126037200,3.498037353515625,-0.0008592471778392792,-0.8560428288400173,-0.3693522582324221
1700516802136047400,3.50804736328125,-1.3434288708984852,0.5214769661001861,0.2749393327621743
1700516802146057500,3.518057373046875,0.5549930128633975,0.03272000101469457,-0.23655878523513674
1700516802156068400,3.528068359375,-0.33365678507089613,-0.1237877077102661,0.2323048541177064
1700516802166078200,3.538078125,1.0328986943930387,0.49620209345966576,-0.03481785007677972
1700516802176088300,3.54808837890625,0.36333939115107056,-0.998537648173049,-0.16322861447781323
1700516802186098400,3.558098388671875,-1.5807020880132914,-0.022446078955382108,0.14577902863547204
1700516802196108300,3.5681083984375,0.6620382600873709,1.5682058867946267,-0.2832740303872153
1700516802206119400,3.578119384765625,0.9410247128158807,-0.4122491141401231,0.3386616441534832
1700516802216129300,3.58812939453125,0.12961539095044136,-1.29314859020859,-0.30121673350874334
1700516802226139400,3.598139404296875,-1.5878724180340766,0.5978814297363162,0.18268669059835374
1700516802236149200,3.608149169921875,0.645178310701251,-0.02671009307540953,-0.1599913130570203
1700516802246159400,3.618159423828125,-0.19227087682783603,-0.1800157908886671,0.16373137636817992
1700516802256169200,3.628169189453125,0.3897118497699499,0.6477929501790552,0.004554302303493023
1700516802266180600,3.6381806640625,0.9986357747852802,-0.8570930685453116,-0.1703390675375238
1700516802276190500,3.6481904296875,-1.5756676009774206,-0.34061975595131516,0.1573490914525464
1700516802286200600,3.65820068359375,0.30109014798700806,1.4719973831444977,-0.31440935602635145
1700516802296210400,3.66821044921875,0.9392471817493439,0.13629238449633121,0.35199575750101353
1700516802306220500,3.678220458984375,0.548511249628663,-1.6329799722611904,-0.17808968166429548
1700516802316231400,3.6882314453125,-1.6038631833702326,0.5173752298697829,0.07552271236553788
1700516802326241500,3.698241455078125,0.2483873163253069,0.09199614665210247,-0.06425689319204539
1700516802336251400,3.70825146484375,0.10512392377257347,-0.16525763608738778,0.05870926900226622
1700516802346261500,3.718261474609375,0.09431377594470977,0.5806506742764264,0.04313205290306359
1700516802356271600,3.728271728515625,1.3069932834267615,-0.6642259063247591,-0.16697536325808612
1700516802366282500,3.738282470703125,-1.6010732603907585,-0.47281303456574675,0.1288899262201041
1700516802376292400,3.748292236328125,0.014617723417282104,1.2568316606804728,-0.32008352920524774
1700516802386302500,3.758302490234375,1.0053583610385657,0.5910163662724196,0.3128760089792311
1700516802396312600,3.7683125,0.7357324418514967,-1.7949341828890144,-0.1155596487974748
1700516802406322400,3.778322509765625,-1.598089860665798,0.42958895599767566,-0.054335912756249306
1700516802416333300,3.788333251953125,-0.08174947792589664,0.17255794916339218,0.03344656172357499
1700516802426343400,3.798343505859375,0.36857729180455207,-0.08602671685367821,-0.08390658289454878
1700516802436353500,3.808353515625,-0.1428103880882263,0.37463206179887054,0.1450536004377529
1700516802446363400,3.81836328125,1.3149386894732713,-0.4219349341131747,-0.2514152127791196
1700516802456373500,3.82837353515625,-1.3400304606318474,-0.4704603339597583,0.13395729261226952
1700516802466384400,3.83838427734375,-0.18454992718696595,0.824310669818893,-0.2372377804752439
1700516802476394500,3.84839453125,0.78425360391438,1.0047318266380578,0.1145942743640393
1700516802486404400,3.858404296875,0.9769184484958648,-1.5853201032027602,0.044860411065630615
1700516802496414500,3.86841455078125,-1.3176385960817336,0.12312164501696825,-0.18789646113589406
1700516802506425300,3.87842529296875,-0.491548422434926,0.18781053641811013,0.1265678034154698
1700516802516435500,3.888435546875,0.5949976909935474,0.0632039135403931,-0.17252941718865186
1700516802526445300,3.8984453125,-0.47378421768546103,0.3514303421705961,0.15661646632906048
1700516802536455400,3.908455322265625,1.4719967986226081,-0.0690649145282805,-0.14880129906609654
1700516802546465300,3.91846533203125,-0.9821130945295095,-0.984646704660356,-0.016797369011305272
1700516802556476400,3.928476318359375,-0.6050426996678113,0.8593685391966253,-0.07461272138115019
1700516802566486800,3.93848681640625,0.8093073811501265,1.274383537853509,0.031152605567499995
1700516802576497000,3.948496826171875,0.9001438363730907,-1.5116023944325745,0.13091010693609714
1700516802586506800,3.9585068359375,-0.9219500099897384,-0.2640760299749672,-0.24944566627182066
1700516802596518000,3.968517822265625,-0.8640519477725028,0.4411487531490624,0.19164178514406083
1700516802606527700,3.97852783203125,0.6934405295670032,-0.03777713827379048,-0.22028660914171486
1700516802616537900,3.988537841796875,-0.6530681871682406,0.2202544969704002,0.19278401398174463
1700516802626547700,3.998547607421875,1.5489140340864658,0.09683891050815582,-0.08934672812186181
1700516802636557800,4.008557861328125,-0.5348468814134597,-1.0348847536437213,-0.08608272135723381
1700516802646568700,4.018568603515625,-1.0553852514892816,0.5817964102454484,0.028488902783580124
1700516802656578800,4.028578857421875,0.8704781814277172,1.5813533915288744,-0.12652962682954966
1700516802666588700,4.038588623046875,1.019749874484539,-1.3711688184782862,0.2365801568167284
1700516802676598800,4.048598876953125,-0.6175181503593922,-0.625417525307089,-0.33016382838860153
1700516802686609700,4.058609619140625,-1.2099135499000548,0.6419991692084819,0.3149123736450448
1700516802696619800,4.068619873046875,0.7646592611283063,-0.017682371684908865,-0.3127383540742099
1700516802706629600,4.078629638671875,-0.5650076263993978,0.15193199830725787,0.22039715684410183
1700516802716639700,4.0886396484375,1.3885188894689082,-0.10842793375402689,-0.06548084549643099
1700516802726650600,4.098650634765625,-0.30129063899517056,-0.6292736892785876,-0.06540036413874477
1700516802736660700,4.10866064453125,-1.0755483340740204,0.1274601126126945,0.018112543263100085
1700516802746670800,4.1186708984375,0.594106879633665,1.5680197165727614,-0.2035756397722289
1700516802756680700,4.1286806640625,1.0636696802318095,-0.8804951330512761,0.3492679034397006
1700516802766691600,4.138691650390625,-0.25894553521871566,-0.889668473457545,-0.3631307533690706
1700516802776701700,4.14870166015625,-1.461454361820221,0.5650089415736496,0.27772162042446435
1700516802786711800,4.1587119140625,0.775626060822606,0.03882328632585704,-0.24180928964186457
1700516802796721700,4.1687216796875,-0.3507973049640655,-0.06092245153971016,0.22553528691753744
1700516802806732800,4.17873291015625,0.8698468977868556,0.33401495085880156,-0.0706953287417069
1700516802816743000,4.188742919921875,0.3637053018540144,-0.8877652701847255,-0.10743570784628391
1700516802826753000,4.1987529296875,-1.375984402066469,-0.048743280380964274,0.08025986042264849
1700516802836763000,4.208762939453125,0.5264022936731576,1.503574278538674,-0.2567822927702218
1700516802846773800,4.218773681640625,0.9198141670048237,-0.35070845763683317,0.3361221157385036
1700516802856784000,4.228783935546875,0.22333996883034704,-1.2477365000769496,-0.3094344536906108
1700516802866794000,4.2387939453125,-1.5799275965094566,0.5083867445111274,0.23124095121324062
1700516802876803800,4.248803955078125,0.6666402009248733,-0.0018890286169946193,-0.2094030672840774
1700516802886814700,4.258814697265625,-0.18422376397252083,-0.07159209491834044,0.17460856155026702
1700516802896824800,4.268824951171875,0.385694430822134,0.43769152536727485,-0.00337517552152276
1700516802906835000,4.2788349609375,0.8620178115963936,-0.6981590825214982,-0.14385101971495895
1700516802916844800,4.2888447265625,-1.3595488155722617,-0.3383120635308325,0.10947061120737343
1700516802926855700,4.298855712890625,0.2204185284256935,1.2116056677054614,-0.27073979871310294
1700516802936865800,4.30886572265625,0.6749357355833053,0.4072279249772429,0.2673243277138099
1700516802946876000,4.3188759765625,0.715796738281846,-1.5132823103435336,-0.12133530958946794
1700516802956886800,4.32888671875,-1.467865982428193,0.30666765585839745,0.01879117317702621
1700516802966897000,4.33889697265625,0.05517009855806827,0.08530161744952201,-0.02734521264117211
1700516802976906800,4.34890673828125,0.14073124372661114,-0.04106638907752931,0.003381824458017945
1700516802986916900,4.358916748046875,-0.26195640747249127,0.678342767547816,0.029134178417176006
1700516802996927700,4.368927734375,1.4862988802194594,-0.39312538454048335,-0.09813954477794468
1700516803006937900,4.378937744140625,-1.293178108564019,-0.8277148522391915,0.016032558651268482
1700516803016947700,4.38894775390625,-0.19741408493518828,1.1241025946889072,-0.18917831763997672
1700516803026957800,4.398957763671875,0.8532727796047925,0.9427206300135701,0.16297832951117305
1700516803036968700,4.40896875,0.740920073622465,-1.561043447819352,0.02336133063677698
1700516803046978800,4.418978759765625,-1.1622259160518646,-0.008629808114096521,-0.20156250985153018
1700516803056988700,4.42898876953125,-0.4783212765932083,0.33220556334927676,0.15982753733005373
1700516803066999600,4.43899951171875,0.48198330623209473,-0.030178280642628667,-0.18175514536928383
1700516803077009700,4.449009765625,-0.5812707789361476,0.3871054666638374,0.13207023675665258
1700516803087019800,4.459019775390625,1.623101552325487,-0.03899265154339373,-0.07898425099626183
1700516803097029600,4.469029541015625,-0.8042752322018146,-0.986129709759727,-0.07319890906047076
1700516803107040800,4.479040771484375,-0.7548457231223583,0.68797050065808,-0.04690521476622671
1700516803117051000,4.48905078125,0.8976257160723209,1.4192707322157918,-0.046867038180306554
1700516803127061000,4.49906103515625,0.8902227463394403,-1.4132377356618642,0.15683376234155147
1700516803137071900,4.50907177734375,-0.8390320728063583,-0.45988582151867446,-0.3258692364672199
1700516803147081700,4.519081787109375,-1.0073276152849198,0.5359831919670105,0.3037414296807721
1700516803157091800,4.529091796875,0.7643634930521249,-0.0465885865651071,-0.28487963895294816
1700516803167102000,4.53910205078125,-0.7024263845771551,0.05413491029143333,0.21500961858686057
1700516803177112800,4.54911279296875,1.5153057789951563,0.36706754482872783,-0.0723836471548304
1700516803187123000,4.559123046875,-0.36566754183769223,-1.2000911710005253,-0.1310596714746207
1700516803197132800,4.5691328125,-1.2722469642162322,0.5762217519182712,0.081268562541157
1700516803207143700,4.579143798828125,0.9844622880041599,1.6477352044530211,-0.22049046115074306
1700516803217153800,4.58915380859375,1.0669348195075987,-1.2889394480809568,0.32069808090701696
1700516803227164000,4.599163818359375,-0.7078373037099838,-0.7465326528072357,-0.39205961847249415
1700516803237174800,4.6091748046875,-1.263142451262474,0.7490605638496577,0.3358652914332226
1700516803247184600,4.6191845703125,0.8106839302003384,-0.07892053811028599,-0.29124511886425314
1700516803257194800,4.62919482421875,-0.6636503714591264,-0.02878185784816742,0.22871103087682276
1700516803267204900,4.639204833984375,1.450551275011897,0.339112127867341,-0.0458088343642652
1700516803277215700,4.6492158203125,-0.1732452738404274,-1.159400775628537,-0.18031239921506492
1700516803287225600,4.6592255859375,-1.4628700738370417,0.5568003545463085,0.17732527316305785
1700516803297235700,4.669235595703125,1.0158534515678883,1.7413216890364884,-0.347303690694645
1700516803307246600,4.67924658203125,1.23131406532526,-1.4030091871142387,0.3976704440915957
1700516803317256700,4.689256591796875,-0.763054164019227,-0.7647635252203792,-0.42254455391149964
1700516803327266800,4.699266845703125,-1.3394400935232638,0.8644063141681253,0.34029527323730285
1700516803337278000,4.70927783203125,0.8797527902513742,-0.04533230289369821,-0.3050348670247942
1700516803347287800,4.719287841796875,-0.5788678094476462,0.10380042008385061,0.2016187335507944
1700516803357298000,4.7292978515625,1.4216840769678354,-0.20752346408255398,-0.15021971449665725
1700516803367308800,4.739308837890625,-0.500233833193779,-0.5509039899840951,-0.016237141312658784
1700516803377319000,4.74931884765625,-1.0573773020893336,0.3069549483671784,0.00848802502322942
1700516803387328800,4.759328857421875,0.7447159587740898,1.5933857746280728,-0.24619484778232872
1700516803397340000,4.76933984375,1.2326929524630308,-1.290149700653553,0.38244160303864627
1700516803407349800,4.779349853515625,-0.7378390587419271,-0.5776557302441447,-0.4299809509899467
1700516803417360000,4.78935986328125,-1.3216215282380581,0.6526589487802237,0.3326630247931927
1700516803427370800,4.799370849609375,0.9059270959496497,0.03075103902928531,-0.308423924941197
1700516803437380900,4.809380859375,-0.5957452944904565,0.08998948300480843,0.2851451580213383
1700516803447390700,4.819390625,1.4090128114432097,0.05414002485796809,-0.11312204638700932
1700516803457401900,4.82940185546875,-0.47279696021378037,-1.0153775046192108,-0.10236118106096982
1700516803467411700,4.83941162109375,-1.1894266421884299,0.6266276317492127,0.10443462633416056
1700516803477421800,4.849421875,0.9948942501693964,1.5829709097281097,-0.22942440331056713
1700516803487432700,4.8594326171875,1.1275421406835318,-1.5484765194520353,0.36825916576609014
1700516803497442800,4.86944287109375,-0.8778577702850103,-0.4242090165250003,-0.447916822511889
1700516803507452700,4.87945263671875,-1.201145721554756,0.6653953154303133,0.37235016140677035
1700516803517463800,4.8894638671875,0.9632365446239709,-0.09915624753981828,-0.35542182295955715
1700516803527473700,4.8994736328125,-0.6251210265785455,0.20223799796029923,0.2682058597886935
1700516803537483800,4.90948388671875,1.375434366968274,-0.10602759461402893,-0.09761837044805288
1700516803547495000,4.919494873046875,-0.59698857254982,-0.7637172310378402,-0.1023440837956965
1700516803557504800,4.9295048828125,-0.9755477446645497,0.5248565255358815,0.04535827758517116
1700516803567515400,4.939515380859375,0.884510798433423,1.6167387392953037,-0.24055833973269908
1700516803577526300,4.9495263671875,1.1511772832930087,-1.6032164098992943,0.35822350944206116
1700516803587536400,4.959536376953125,-0.8864064029216766,-0.34136867462247605,-0.4108052354747429
1700516803597546200,4.969546142578125,-1.124697272646427,0.6516312862329184,0.2961196295654401
1700516803607557400,4.979557373046875,0.8616647603750228,-0.022252309948951006,-0.3143227006562054
1700516803617567200,4.989567138671875,-0.6214280172795057,0.12538732492662966,0.2503263580964878
1700516803627577300,4.999577392578125,1.4584259539097546,-0.11004501356184482,-0.13902878719028083
1700516803637588200,5.009588134765625,-0.7374374922037125,-0.7063725649196654,-0.03647884209156036
1700516803647598300,5.019598388671875,-0.9896201091587543,0.5880145541079342,-0.0365797086501494
1700516803657608200,5.029608154296875,0.9161568135410547,1.500981923957914,-0.16104622893743217
1700516803667619300,5.039619384765625,1.2527321164071559,-1.6040604595080017,0.3449751016166061
1700516803677629200,5.049629150390625,-1.1439046619415283,-0.20253464281931519,-0.3851807091463357
1700516803687639300,5.059639404296875,-1.0810568683624266,0.5800339306175708,0.2753004576921463
1700516803697650200,5.069650146484375,0.9571399813145398,-0.014220175467059015,-0.31854210844952613
1700516803707660300,5.079660400390625,-0.5506324795663357,0.24508988221511244,0.264389589436166
1700516803717670100,5.089670166015625,1.4045669379502534,-0.21432971003130077,-0.13123637974839658
1700516803727681300,5.099681396484375,-0.8695762641519308,-0.6776362997788935,-0.02662983091343194
1700516803737691400,5.10969140625,-0.6979197208076715,0.613749153214693,-0.055540429707802826
1700516803747702300,5.119702392578125,0.8925064733624458,1.4345339139297604,-0.11402535190228372
1700516803757712400,5.12971240234375,1.1664929258465766,-1.7029318987570703,0.3000317980404943
1700516803767722500,5.139722412109375,-1.1448778908878565,-0.0952084597621113,-0.37683158113714305
1700516803777733400,5.1497333984375,-0.9693483055025338,0.5489646924845873,0.26665143342092634
1700516803787743200,5.1597431640625,0.8502975631862878,-0.0579017154790461,-0.31397542158849534
1700516803797753300,5.16975341796875,-0.5327215598225593,0.19753106237836182,0.29042434053327887
1700516803807764200,5.17976416015625,1.4419097033947705,-0.1644860671930015,-0.18130451552495358
1700516803817774300,5.1897744140625,-0.9536644141584634,-0.7106538955006748,-0.044689767206460236
1700516803827784200,5.1997841796875,-0.7748457240998744,0.72050316240713,-0.023219912872090933
1700516803837795300,5.20979541015625,0.9940683207392692,1.371444566679746,-0.13798753450904042
1700516803847805200,5.21980517578125,1.1568342861413956,-1.7775573700219391,0.26986495210733263
1700516803857816300,5.22981640625,-1.3194956221252678,0.03911021350845694,-0.3891487359944731
1700516803867826200,5.239826171875,-0.8503267892807722,0.5170012819908559,0.2590154221171513
1700516803877836300,5.249836181640625,0.8528916713327169,-0.11369184563159943,-0.2727100028075278
1700516803887847200,5.25984716796875,-0.5415314737439155,0.3152612966805696,0.271583373397775
1700516803897857300,5.269857177734375,1.474371126538515,-0.28826135381311174,-0.19136662146449088
1700516803907867100,5.2798671875,-1.0654676695644856,-0.6538113336857407,-0.009161211577057838
1700516803917878300,5.289878173828125,-0.635974429026246,0.8318716796576976,-0.06779599057100713
1700516803927888400,5.299888427734375,1.011825511226058,1.2810250216946004,-0.05687412599697709
1700516803937899300,5.309899169921875,1.107474335166812,-1.8691246237374841,0.2226044941626489
1700516803947909400,5.319909423828125,-1.3903718238592147,0.18534648439213633,-0.3264542698135599
1700516803957919200,5.329919189453125,-0.7245441083610057,0.47699784596972167,0.24906678648944944
1700516803967930400,5.339930419921875,0.7591109793514013,-0.12028569093868136,-0.2643659162996337
1700516803977940200,5.349940185546875,-0.45197161432802674,0.31596951801516115,0.26650972339529544
1700516803987951400,5.359951416015625,1.4950959346592425,-0.38651524568572637,-0.227938950525783
1700516803997961200,5.369961181640625,-1.267780632457137,-0.5514142775937915,0.040826442841812964
1700516804007971300,5.379971435546875,-0.5204314025700092,0.9284924173705279,-0.10574139808379113
1700516804017982200,5.389982177734375,1.1176602136164904,1.1216371544234454,-0.0016086407730355858
1700516804027992300,5.399992431640625,1.055544825965166,-1.9747524053789673,0.1761562293836847
1700516804038003200,5.410003173828125,-1.5979326242774723,0.39292847372889517,-0.2724427667060867
1700516804048013300,5.420013427734375,-0.5157160644859076,0.40407895942702887,0.18379852429777382
1700516804058023200,5.430023193359375,0.7597714890867471,-0.19254969376921652,-0.24192663241121917
1700516804068034300,5.440034423828125,-0.3731862469047308,0.38308585575893517,0.28395353708397597
1700516804078044200,5.450044189453125,1.4309908344954252,-0.4936727211125195,-0.3095290731715038
1700516804088054300,5.46005419921875,-1.4147826270163057,-0.4085867922402918,0.11536591632366179
1700516804098065400,5.4700654296875,-0.3334820130258798,1.0156732726953923,-0.15809395500309764
1700516804108075300,5.4800751953125,1.1702268516778944,0.9053780106995254,0.0516760458972305
1700516804118086400,5.49008642578125,0.9346633610904216,-1.9888640789702534,0.12316040612477809
1700516804128096300,5.50009619140625,-1.6913988434821365,0.5842573935315013,-0.24943167427908627
1700516804138106400,5.5101064453125,-0.2730325127601623,0.2808778194330632,0.16455931509230284
1700516804148117200,5.5201171875,0.5991273381441832,-0.20906506750136614,-0.17565916658174247
1700516804158127400,5.53012744140625,-0.22833763098716733,0.48943902906551956,0.25868644589111206
1700516804168138200,5.54013818359375,1.4004378753215074,-0.690510540529713,-0.3450313983811065
1700516804178148400,5.5501484375,-1.6269032826960086,-0.30171470962613817,0.18983608742896466
1700516804188158200,5.560158203125,-0.14237316571474073,1.2547861263275146,-0.24730960409119723
1700516804198169300,5.57016943359375,1.2882067498922347,0.5318145279802382,0.18181056535094975
1700516804208179200,5.58017919921875,0.7563947061300277,-2.0280016188770533,0.01656385251637548
1700516804218190000,5.590190185546875,-1.8396078757435081,0.8399014029867946,-0.1268499448250979
1700516804228200200,5.6002001953125,0.044674423506855965,0.20016557560041545,0.08671279942169785
1700516804238211300,5.61021142578125,0.44861587415933607,-0.17249299416840075,-0.11084197262581437
1700516804248221400,5.620221435546875,0.12836977480351924,0.16917612470537424,0.2942562103137374
1700516804258231300,5.630231201171875,0.9924673152834177,-0.5544894472554326,-0.37377537190429866
1700516804268242400,5.640242431640625,-1.6276169839233159,-0.13182926760762928,0.20033753463383763
1700516804278252300,5.650252197265625,0.08619885855019092,1.2998803826816379,-0.27049309394303706
1700516804288263400,5.660263427734375,1.2672802817195654,0.1862481094069779,0.2459908861754462
1700516804298273300,5.670273193359375,0.5979711538463831,-1.8020445994161067,-0.11597725315503775
1700516804308283400,5.680283447265625,-1.908859691146016,0.8725871364057064,0.021964907842315733
1700516804318294300,5.690294189453125,0.3188800716996193,0.1124658109679818,-0.04802687573991716
1700516804328304400,5.700304443359375,0.2751087345123291,-0.2594249892987311,-0.0007914791712537408
1700516804338315300,5.710315185546875,0.24065818337798117,0.4033408544108271,0.21603980188481509
1700516804348325400,5.720325439453125,0.9667898531913757,-0.7891691407456993,-0.4361303769977763
1700516804358336300,5.730336181640625,-1.8003531391978262,-0.0748302000567317,0.3466367512185126
1700516804368346000,5.74034619140625,0.332498847207427,1.5858300985515117,-0.41689514984767884
1700516804378356200,5.750356201171875,1.4105010041743515,-0.27195903830975293,0.3750787095878273
1700516804388367000,5.7603671875,0.2717097397238016,-1.6630682365328073,-0.21755689191687852
1700516804398377200,5.770377197265625,-1.9595733948171137,1.0211864831589161,0.14115736018419264
1700516804408388400,5.780388427734375,0.5710556743919849,0.06998758233115077,-0.12467329490575939
1700516804418398500,5.7903984375,0.07623159128725528,-0.20246493858397005,0.0956702685875818
1700516804428409300,5.800409423828125,0.5982663374006748,0.2101604615226388,0.1485850990321487
1700516804438419500,5.81041943359375,0.5213163687109947,-0.7488838921084999,-0.34718094109781084
1700516804448429300,5.82042919921875,-1.5966431689888239,0.06216580266430974,0.2900039596967399
1700516804458440200,5.830440185546875,0.458964834216237,1.703326597163081,-0.44199937862902877
1700516804468450300,5.8404501953125,1.3571131128579377,-0.6812871504366398,0.42928957119230177
1700516804478461200,5.850461181640625,-0.0013543372184038162,-1.3765198241174221,-0.31026162522975353
1700516804488471300,5.86047119140625,-1.8637597357034683,1.0298512895211578,0.19920348910260943
1700516804498482200,5.870482177734375,0.7528004810303449,0.08447846449837088,-0.19236838238555937
1700516804508492300,5.8804921875,-0.15568506723046302,-0.1360107910759747,0.13756065086647867
1700516804518502100,5.890502197265625,0.9384142380565405,-0.057876434907317156,0.06861812060885131
1700516804528513300,5.90051318359375,0.088421795296669,-0.556691341213882,-0.25264018799681215
1700516804538523100,5.910523193359375,-1.440200561389327,0.08847425613626837,0.23029895765539257
1700516804548534300,5.9205341796875,0.5794353802025318,1.6890283149585126,-0.3794673730008304
1700516804558544400,5.93054443359375,1.3605506860911845,-0.9872825330566615,0.4181431771473959
1700516804568554800,5.9405546875,-0.31642917141616345,-0.9643824997887015,-0.3550345772076398
1700516804578564600,5.950564697265625,-1.7405986354589462,0.8687456585466862,0.24483430001884698
1700516804588575500,5.960575439453125,0.9749316585928202,0.0376274276047945,-0.2527762354666367
1700516804598585600,5.970585693359375,-0.3227209650367498,-0.08637012346386909,0.21493311928454786
1700516804608595700,5.980595703125,1.0380746357262134,0.16233020433336495,0.0403203930158168
1700516804618606600,5.990606689453125,-0.11122750134468078,-0.8921195198714733,-0.3053556234117597
1700516804628616400,6.000616455078125,-1.403722888341546,0.3910783158175647,0.2731874475935474
1700516804638627800,6.0106279296875,0.862052298387885,1.748323969013989,-0.3771438984893262
1700516804648637700,6.0206376953125,1.2328870137304067,-1.349007255552709,0.41091830392777917
1700516804658648800,6.03064892578125,-0.7007675114542246,-0.6493227170296013,-0.42209754079636186
1700516804668658700,6.04065869140625,-1.5081997463822363,0.8398778759807348,0.2900593066131696
1700516804678669600,6.050669677734375,0.8849404220223426,0.06678235654905439,-0.33421869326997544
1700516804688679700,6.0606796875,-0.5127577992022038,0.011895312716066836,0.291682450835593
1700516804698690600,6.070690673828125,1.384600839242339,-0.14731266794353723,-0.02477631200123578
1700516804708700700,6.08070068359375,-0.409738154232502,-0.4361263949424028,-0.25618626310583203
1700516804718710800,6.090710693359375,-1.3557745577305556,0.12722162768170237,0.22989041338711977
1700516804728721700,6.1007216796875,1.0940092889159918,1.7459844201505184,-0.3108608332319185
1700516804738731500,6.1107314453125,1.0839531743258237,-1.146665724152699,0.4207665479209274
1700516804748742700,6.12074267578125,-0.8397773382157087,-0.8161920991625636,-0.38171252157911656
1700516804758752500,6.13075244140625,-1.0608984619528055,0.6436546082653105,0.4098240789502859
1700516804768764000,6.140763916015625,0.3262725200384855,0.5597083509474993,-0.33310682303793726
1700516804778773800,6.150773681640625,-0.9234078075826168,-0.06817439542934298,0.3282107580920681
1700516804788784600,6.16078466796875,1.843955549558997,-0.6361331997845322,-0.043078751813247794
1700516804798794800,6.170794677734375,0.28603461767435073,-0.5590205878790467,-0.36522067485302684
1700516804808805600,6.1808056640625,-1.5781956581503152,0.08225582001283764,0.13651932512000203
1700516804818815700,6.190815673828125,0.13717150541841983,2.106179668056965,-0.4076415838120505
1700516804828826600,6.20082666015625,1.7417799541980028,-1.6025205365896225,0.4373854185601696
1700516804838836700,6.210836669921875,-0.2518845107913017,-0.6729867934726178,-0.48532034170031546
1700516804848847600,6.22084765625,-1.433766144427657,0.6368887673921882,0.02011515178978443
1700516804858857700,6.230857666015625,0.3798234929621219,0.3116505588375032,-0.20701617214754223
1700516804868867600,6.24086767578125,0.2139788507670164,0.04272555446140468,0.12117314129769802
1700516804878878700,6.250878662109375,1.8586930999636648,-0.4026819521106779,0.2283041671089828
1700516804888888600,6.260888671875,-0.5921551610440016,-1.0117737810388208,-0.3271158024622127
1700516804898899500,6.2708994140625,-1.4228694873601198,0.3858593390602618,0.102182755754143
1700516804908909600,6.28090966796875,0.8178980993628502,1.80162359752506,-0.33200784882009027
1700516804918920700,6.290920654296875,1.1919932778060436,-2.2027461913645268,0.6744689948543906
1700516804928930800,6.300930908203125,-0.09262684577107429,-0.8985182809978723,-0.16641761977747083
1700516804938941700,6.310941650390625,-1.5091893419414757,0.3410926341600716,0.32169838052336125
1700516804948951800,6.320951904296875,-0.32780046025812626,-0.24047493576556442,-0.013650047428905963
1700516804958962700,6.330962646484375,-1.3097779457092285,0.10037862894162534,0.010834515084140002
1700516804968972800,6.340972900390625,2.504104634898901,0.17619747470952568,0.6382821214467287
1700516804978983700,6.350983642578125,0.6679618049174547,-2.370596035902202,-1.0948857064243405
1700516804988993500,6.36099365234375,-3.9440485911786554,2.0209017237439753,0.336960941182822
1700516804999004700,6.371004638671875,0.5522440064162015,0.8582560479100793,-0.2964949656838551
1700516805009014500,6.3810146484375,2.1546832944631573,-1.6199018795013427,0.5014547167582437
1700516805019025700,6.391025634765625,0.6826853267967701,-1.3947145292386411,-0.16795374330356716
1700516805029035500,6.401035400390625,-1.5979565896749495,1.3484030060492456,0.01869151219483465
1700516805039046700,6.411046630859375,0.06484510487616062,-0.08447364219278097,0.40367647957336156
1700516805049056800,6.421056884765625,-1.3645453086853025,-1.5951942853547632,0.05377776741683483
1700516805059067600,6.431067626953125,0.6800473795086145,4.508573402497172,-0.16613958828737957
1700516805069077800,6.441077880859375,5.504270201221108,-1.7516567666985094,-0.4008631391856819
1700516805079088600,6.451088623046875,-6.917077144250273,-3.5893437573820353,-0.10593805316705256
1700516805089098800,6.4610986328125,0.06892799027562141,6.363299936917424,0.5097357479672878
1700516805099109600,6.471109619140625,5.363689179620146,-1.8858011793807148,-0.4512914135115221
1700516805109119700,6.48111962890625,-0.6919587665766477,-5.008095288029312,-0.4776484188329428
1700516805119130600,6.491130615234375,-2.548263510099053,2.3755340768262743,0.04852512585194781
1700516805129140700,6.501140625,-0.5781447558701038,-0.1184727232325822,0.17680687531214206
1700516805139151600,6.511151611328125,1.3558914621084928,3.2428064479500054,-0.13092139551509172
1700516805149161500,6.521161376953125,3.355699836680293,-3.8736718633994456,0.06961904127970338
1700516805159172900,6.5311728515625,-4.306290250220894,-2.471832012325525,-1.0184811697229743
1700516805169182700,6.5411826171875,-0.9766320327699184,5.760952467682957,1.78426519709751
1700516805179193900,6.55119384765625,2.691553790658712,-5.659817905807495,-0.5150475906398148
1700516805189203700,6.56120361328125,-3.4837785195827484,-5.819461939796805,-1.3778294454112647
1700516805199214600,6.571214599609375,-1.517040639963746,2.5584344832405446,0.9416894603349268
1700516805209224700,6.581224609375,5.187792514488101,4.213501199625433,0.4230043169103563
1700516805219235600,6.591235595703125,3.16556714092493,-7.7037641127914185,-0.9773094936400651
1700516805229245700,6.60124560546875,-6.891020327451825,-0.901255743137747,-1.0503300139263272
1700516805239256600,6.611256591796875,4.3983243907958265,2.0857526738390324,2.57683172519654
1700516805249266700,6.6212666015625,0.8455114979535341,-5.841411905798315,-2.3490727708801624
1700516805259277600,6.631277587890625,-10.734701249474286,-1.872937167762965,-0.16518248849194495
1700516805269287700,6.64128759765625,8.522527889072894,2.001817376306653,1.6864971890456975
1700516805279298800,6.651298828125,3.664938219809532,-5.1159822467744345,-0.883943812200427
1700516805289308700,6.66130859375,-9.77255542269647,-2.4412556722760197,-0.8874880606785416
1700516805299319800,6.67131982421875,6.008728958633542,-3.356307154923677,1.8921689608469605
1700516805309329700,6.68132958984375,1.0598527522921561,-2.9236811693176628,-0.7424340583819895
1700516805319340800,6.6913408203125,-6.052776774674654,-0.7526713016927242,0.08664700417649
1700516805329350700,6.7013505859375,7.644289010515808,-5.176754403123259,0.6151547822289168
1700516805339361800,6.71136181640625,-0.8489853115439414,-2.8150878158688544,-1.5284776875182986
1700516805349371600,6.72137158203125,-5.841849128171801,-6.8772080751985305,1.4808119732409715
1700516805359382500,6.731382568359375,2.775540818378329,-8.880705367416143,-1.0578716614775359
1700516805369392600,6.741392578125,-3.0384996808916327,-2.8031553860127922,-1.0177943565025924
1700516805379403500,6.751403564453125,4.803050269824266,-1.51917765199244,1.038883760152012
1700516805389413600,6.76141357421875,6.382198114132881,-0.4741270397737622,-2.643668588411808
1700516805399424500,6.771424560546875,0.23961188919544218,-1.1120987070318311,1.914165396338701
1700516805409434600,6.7814345703125,-0.736556033194065,-6.69277855952084,-0.575902164575085
1700516805419445800,6.79144580078125,-6.35847587776184,2.105470058482885,-1.3571709805250167
1700516805429456000,6.801455810546875,-0.719405576428771,-4.2085190272986885,2.4088272746190427
1700516805439466800,6.811466796875,1.0066747043341397,-8.908064498984814,-1.9447718392655253
1700516805449476600,6.8214765625,-0.7368857035398483,-3.8545956992685793,0.5604859111912548
1700516805459487700,6.83148779296875,2.2801316288620233,-3.9070278972953556,-0.014910093959979711
1700516805469497600,6.84149755859375,1.885161420172453,1.6298521956294774,-0.22473993528876451
1700516805479508700,6.8515087890625,5.346121374225616,-3.8434029818639157,1.9052467613458632
1700516805489518600,6.8615185546875,0.06478139199018478,-5.692991861134767,-1.9048836271218954
1700516805499529700,6.87152978515625,-8.363365501120686,-3.551611115837097,2.669189398637414
1700516805509539600,6.88153955078125,2.3282395339488984,-6.347954483747482,-0.8208752885427325
1700516805519550500,6.891550537109375,-0.48306350268423554,-1.7635678615055976,-0.6784535344459116
1700516805529560600,6.901560546875,4.2755917450964445,-4.4365334176808595,2.228591557369381
1700516805539571700,6.91157177734375,4.4700259374380105,-4.580789328402281,-4.836596857856214
1700516805549581800,6.921581787109375,-3.654154375466704,-5.225204838037491,1.5916953373230993
1700516805559592700,6.9315927734375,0.03172726365029812,-2.6877520602881906,-1.7051977978624402
1700516805569603000,6.94160302734375,0.18799626824855803,-1.4638503170460462,0.024780257523991166
1700516805579614000,6.951614013671875,0.4550421078145504,-7.5322414249598975,0.5437181701332331
1700516805589624800,6.961624755859375,-1.2548586070418357,-6.051655077168345,-2.025569715555012
1700516805599635000,6.971635009765625,-1.0584469771474598,-7.0865323781579725,2.078248581819236
1700516805609645800,6.981645751953125,-0.42713761732280253,-4.940134681481123,-2.321945402240753
1700516805619656000,6.991656005859375,3.0177357098042963,-2.4262628319360315,2.3851767883099613
1700516805629666800,7.001666748046875,7.619390131580829,-3.1443884515568614,-1.1992974633395672
1700516805639677000,7.011677001953125,-0.3097293815165758,-5.331316019281744,-0.12354250077754259
1700516805649688000,7.02168798828125,-0.8648620951116085,-4.443061065883934,1.338617086702585
1700516805659698000,7.031697998046875,-1.4091209479928015,-0.19679229977503418,-1.7606838305018842
1700516805669709000,7.041708984375,-0.2365437337964773,-7.571082904529571,1.9105426757968962
1700516805679719000,7.051718994140625,-0.7387199332296848,-5.550284348899126,-2.63858178666681
1700516805689730000,7.06172998046875,0.9545271684676409,-3.0832553529411553,1.8532348345577716
1700516805699740000,7.071739990234375,4.630588839837908,-4.242058308807015,-0.593264364394918
1700516805709750800,7.081750732421875,-0.8919698822677135,-2.5797166329830885,-0.2908768335411325
1700516805719761000,7.091760986328125,3.8590620310276744,-3.940793681035936,0.7358033151306211
1700516805729771800,7.101771728515625,-4.759347321698069,-4.427047796455025,-1.381171157054603
1700516805739782000,7.111781982421875,-1.1302379556387663,-7.561296839052439,2.4876225789144635
1700516805749792800,7.121792724609375,-0.124733464127779,-5.125425197902321,-2.2833795247420667
1700516805759803000,7.131802978515625,1.3336650172531603,-4.135084373253584,1.6256521135911344
1700516805769814000,7.14181396484375,5.3754094280302525,-6.471623533514141,-2.638787830632925
1700516805779824000,7.15182421875,0.5090706351220607,-4.245286915464699,0.7469116421874612
1700516805789835000,7.1618349609375,5.593766347751021,-1.6764157938838005,0.9146054924458265
1700516805799844900,7.171844970703125,-1.199948620724678,0.155085493902117,-1.6386134481035173
1700516805809856000,7.18185595703125,-1.9358651869714258,-4.712787815096974,1.6803943421259522
1700516805819865900,7.191865966796875,-1.0776157879978419,-4.381567025001347,-2.9846912260755896
1700516805829877000,7.201876953125,-3.7778392073243854,-7.89358175124824,2.066076644118875
1700516805839886800,7.211886962890625,1.0249486121714115,-2.94366977211833,-1.1431638535115867
1700516805849898000,7.22189794921875,2.9591823985487222,-2.884584253682196,1.2081282739184795
1700516805859908900,7.231908935546875,4.051944317752123,-8.768495869296789,-1.6767742519326507
1700516805869918700,7.241918701171875,-2.7097014417678116,-4.416079827716946,-0.3816516582373529
1700516805879930000,7.25193017578125,2.3289339459538456,-0.7056088140055536,3.0816271672174333
1700516805889940000,7.26193994140625,1.007203696644306,-3.3127085439547894,-1.1427812108695505
1700516805899951000,7.271951171875,-0.283762581089139,-6.626756227558851,1.0753526653714478
1700516805909961000,7.2819609375,0.9629331777632236,-2.202943467502296,-1.9589327588260173
1700516805919971800,7.291971923828125,-1.0342729053556918,-5.391201455923914,1.380572606639564
1700516805929982000,7.30198193359375,3.4975755742669103,-3.808363232664764,-1.187566035948321
1700516805939992800,7.311992919921875,0.2219084747225046,-4.945966456374526,0.9557622632205486
1700516805950003000,7.3220029296875,3.70645680963397,-2.859283515948057,0.6158773974150419
1700516805960013800,7.332013916015625,-4.8654281078040595,-2.924756397333741,0.5136697629479691
1700516805970024000,7.34202392578125,0.16075111844837664,-3.266113673779368,2.567160226009786
1700516805980034800,7.352034912109375,-0.4858148472189903,-1.7909058041557668,-1.4590548994630574
1700516805990045000,7.362044921875,1.1393734482526778,-5.708477015036344,0.5342623960563913
1700516806000056000,7.37205615234375,-2.9166128383666274,-4.082791875958442,-2.7990727928742767
1700516806010066000,7.38206591796875,-0.7785697130590676,-3.713780576650798,1.8227417888775468
1700516806020077000,7.3920771484375,4.096332325533032,-0.6622578941874205,-1.1730795376952736
1700516806030087000,7.4020869140625,1.6091174506366253,-4.578773312404752,-0.45860794706996527
1700516806040098000,7.41209814453125,-2.777525270193815,-3.249966841098666,-2.0049239640198646
1700516806050108000,7.42210791015625,-2.7970360263496636,-1.7716493150219321,1.8159147193364797
1700516806060119000,7.432119140625,4.46605411119759,-1.7940490706175565,0.15573438626490532
1700516806070129000,7.44212890625,1.4124094681441783,-4.4968996235772964,-0.10087792023327201
1700516806080139800,7.452139892578125,2.4729449420034886,-4.565055752697587,-0.9078216044593602
1700516806090151000,7.46215087890625,-1.5405752448081969,-3.492451363120973,0.7215608547665179
1700516806100160800,7.472160888671875,2.470489365544915,-1.509034151379764,0.8121136707425117
1700516806110172200,7.482172119140625,1.589630659878254,-0.386137352284044,-0.3457919709574431
1700516806120181800,7.492181640625,2.5567840856850146,-5.6286032678544515,0.04439330501053482
1700516806130193000,7.50219287109375,-2.969693855690956,-4.421366535948216,-1.6119705019801853
1700516806140203000,7.512203125,-1.746869386291504,0.38931130614504217,1.9326018012613058
1700516806150214000,7.5222138671875,2.1176848124116656,1.1905709899179637,-0.024253164909966287
1700516806160224000,7.53222412109375,-2.0295622923225163,-7.719220040598511,-1.3246753628507255
1700516806170235000,7.54223486328125,-1.4933926378726958,-2.130234789644182,-0.44162210628185417
1700516806180245000,7.552244873046875,-1.6870751350641249,-2.2787170858889816,0.6960093571417033
1700516806190255900,7.562255859375,0.33302433238625523,-1.981091691403091,-0.03569185643233359
1700516806200266000,7.572265869140625,1.391356158721447,-4.6809936236903065,-0.6377263141948729
1700516806210276900,7.58227685546875,-4.151315377086401,-3.305551950198412,0.5147023573987186
1700516806220286700,7.59228662109375,1.36913789717257,-0.42841435926035043,0.9989972285088151
1700516806230297900,7.6022978515625,1.2829711873263119,-2.4891610405281184,0.9309559579398482
1700516806240307700,7.6123076171875,2.93361658013761,-4.637863214755058,-1.0350051651529968
1700516806250319000,7.622319091796875,-3.3155081115454434,-3.6201167890474197,1.0487051892034709
1700516806260329000,7.632328857421875,4.2226591963320965,0.8307286471024156,1.026673317072168
1700516806270339800,7.64233984375,-0.4104366578906774,-2.0065335911735893,-0.10872501700446009
1700516806280350000,7.652349853515625,2.5941940711468456,-5.005573076075315,-0.5896390500372275
1700516806290360800,7.66236083984375,-1.992201406699419,-3.938943084733188,0.6557270311139524
1700516806300371000,7.672370849609375,3.590896832042932,0.9220615075401961,0.06370147866583428
1700516806310381800,7.6823818359375,3.792718796548247,-1.285622432487458,-0.1739237941564992
1700516806320392000,7.692391845703125,-1.585696827560663,-6.723723148360848,-0.2825401996873319
1700516806330402800,7.70240283203125,-1.4230617950618267,-5.1329339660972355,0.5744743967942894
1700516806340413000,7.712412841796875,2.698147197574377,2.9961347033709287,0.14803414148534647
1700516806350423800,7.722423828125,2.581294842085242,-3.395215269988775,1.3702651476368308
1700516806360435000,7.73243505859375,-2.0470015029013156,-6.327340734785794,-0.9528663956485688
1700516806370445000,7.742445068359375,-2.3082634983688592,-2.840150360932946,0.691081691481173
1700516806380456000,7.7524560546875,4.719191252398491,2.6138071186333893,0.9747209384515881
1700516806390466000,7.762466064453125,0.37359775031507014,-5.406645108771324,0.22214341598954052
1700516806400477000,7.772476806640625,-2.676669525259733,-3.9960426900491117,-0.887915857636556
1700516806410487000,7.782487060546875,0.2176519863218069,-1.8328779829666018,1.5873019246697424
1700516806420498000,7.792497802734375,2.1783909177869556,-1.7802764197222887,0.22570046915030106
1700516806430507800,7.8025078125,1.0046423217236995,-2.578148945274949,-1.7042250073075293
1700516806440519000,7.812518798828125,-2.4470547139436003,-5.571405462861061,1.1316677692461758
1700516806450528800,7.82252880859375,2.722160525846481,0.7534855406850576,0.07630809058956801
1700516806460540000,7.832539794921875,1.9963000741899013,-3.620618016567826,1.3347162798717618
1700516806470549800,7.8425498046875,-2.9824118829667565,-3.757351130568981,-1.4528225809447466
1700516806480561000,7.852560791015625,-3.4418004955530166,-3.2730729913979766,1.6060995641201734
1700516806490571000,7.862571044921875,2.3283342264950275,0.9177281545110046,0.6382922044493258
1700516806500582000,7.872581787109375,3.524775131359696,-4.321521137100458,-0.41525742911063135
1700516806510592000,7.882592041015625,-4.855742580091953,-4.2298400477468965,0.18061434130370616
1700516806520603000,7.892602783203125,1.9019564876288175,1.317466454385221,1.019209630127996
1700516806530613000,7.902613037109375,0.8989946663379669,-1.7499403181694446,0.6906906463369726
1700516806540624000,7.912623779296875,0.6918225729763507,-3.673998309099674,-1.7602023305952548
1700516806550634000,7.922634033203125,-3.3711072491705414,-3.7796605775326486,0.7989248110845685
1700516806560644900,7.932644775390625,2.452833297345042,0.6509880198933183,-0.7186463555593043
1700516806570655200,7.9426552734375,4.410359696504473,-3.62903980795443,-0.8488029407143592
1700516806580666400,7.952666259765625,-3.028063042551279,-4.850138184213638,-0.49124132924713193
1700516806590676200,7.96267626953125,1.2130939335018396,-1.2306956411659717,0.45759493410252033
1700516806600687400,7.972687255859375,2.661210090321302,-1.4162037458606063,1.3065534307047724
1700516806610697200,7.982697265625,0.6152659875184298,-4.739100652483105,-0.26046266178339716
1700516806620708400,7.992708251953125,-8.121991862949729,-4.144038079559802,2.157585737906396
1700516806630718200,8.00271826171875,0.8633487679392099,1.9731686433188615,1.6473489816144107
1700516806640729000,8.01272900390625,4.413600285860896,-4.353775639495253,0.07882909696716815
1700516806650739200,8.0227392578125,-5.400393647161126,-4.732486787301301,-0.07826910673053934
1700516806660750300,8.032750244140624,-0.8877572330087423,0.7744590628698468,0.8659232946023344
1700516806670761500,8.042761474609375,3.844625509396195,-2.2985097277261315,0.6331218891393393
1700516806680771300,8.052771240234375,2.34768833078444,-3.983624814763665,-3.0424259144246575
1700516806690782200,8.0627822265625,-4.476401902210712,-2.036995072671771,1.0565723423819988
1700516806700792300,8.072792236328125,2.1264175694435834,1.2239201556816697,1.0516505219403653
1700516806710803200,8.08280322265625,5.022855050265789,-4.9013648058429355,-0.01696728221811354
1700516806720813300,8.092813232421875,-2.9711271033644673,-3.698662502495944,-1.146763777699694
1700516806730824200,8.10282421875,2.148568610975146,0.5604867879740894,1.2178067873679101
1700516806740834300,8.112834228515625,2.292135370388627,-3.7227860131442543,0.9940948434200138
1700516806750845200,8.12284521484375,0.4810398879021406,-4.104770775793493,-0.6020062545813619
1700516806760855300,8.132855224609376,-1.480055601915717,-2.708435659615695,1.5617179860800503
1700516806770866400,8.142866455078124,4.271924454760551,0.86985259687528,1.0427623551510274
1700516806780876300,8.152876220703124,0.7680816367924213,-4.609696273934841,-0.2965215979624539
1700516806790887400,8.162887451171875,-7.7647431898891925,-4.205122662858665,0.09699497785270214
1700516806800897300,8.172897216796875,1.0830249535650014,1.200296557379514,0.39987237458266317
1700516806810908400,8.182908447265625,5.844596965575218,-4.7670700249046085,-0.510992104703933
1700516806820918300,8.192918212890625,-3.7742812225818634,-2.651269711065292,-2.220381947428733
1700516806830929200,8.20292919921875,-0.8213403487712144,-1.5862667364031076,1.0583495081223546
1700516806840939300,8.212939208984375,1.9250123690456151,-2.1396283486723897,0.7131500231653451
1700516806850950100,8.2229501953125,1.270660571807623,-1.6236530487284064,-0.1036079662516713
1700516806860960300,8.232960205078125,-2.1287954044908286,-4.497635244375467,1.5903247796222566
1700516806870971100,8.24297119140625,1.8053432025700806,2.433358781546354,-0.09181686282875016
1700516806880981200,8.252981201171876,4.014783923137188,-3.475443821957707,1.8133881234683096
1700516806890992400,8.262992431640624,-4.038474595326185,-5.272699579662084,-0.588357595391944
1700516806901002500,8.27300244140625,1.10057697686851,0.8256450602278113,1.4150158512502908
1700516806911013400,8.283013427734375,2.9130975237220524,-2.1170110048033295,1.3233721712976694
1700516806921023500,8.2930234375,1.2572972323656082,-3.5064831033438444,-1.986910314553976
1700516806931034400,8.303034423828125,-4.958505035430193,-4.292716482898593,0.7248580696810036
1700516806941044200,8.313044189453125,2.2304215492755173,1.5047763478048144,0.5160869436249137
1700516806951055400,8.323055419921875,2.9895927343815565,-4.583477544572949,-0.45400494678653774
1700516806961065200,8.333065185546875,-8.887990263727307,-4.174476764704287,0.536693824454397
1700516806971076400,8.343076416015625,1.5158207427799701,2.0710490257039664,0.6554058363355696
1700516806981086200,8.353086181640625,4.843789691969752,-5.552995945945382,0.25515067298039795
1700516806991097000,8.36309716796875,-5.280207763335109,-2.767749141588807,-1.6700873215146361
1700516807001107200,8.373107177734376,1.4627198517113924,0.37359979614168404,1.9533511593014001
1700516807011118000,8.3831181640625,4.2179678236454725,-5.210960624107718,0.26418694300353524
1700516807021128200,8.393128173828124,2.7113819422006604,-1.6097496110603213,-1.0976441382870077
1700516807031139300,8.403139404296875,-0.5288420880407094,-3.1446243061393497,1.6458898688472807
1700516807041149400,8.4131494140625,3.9500481238543985,2.7940780533269045,0.23347926819194106
1700516807051160300,8.423160400390625,1.5982891826301813,-5.01731261370778,1.8313551573134959
1700516807061170400,8.43317041015625,-2.5292104345828292,-3.6343753237634897,0.30615166916027664
1700516807071181300,8.443181396484375,-0.5364695141792297,1.8303513870984314,1.9151291268043218
1700516807081191400,8.45319140625,-0.5184451971888542,-1.6404551304474473,1.1116601694840937
1700516807091202300,8.463202392578125,0.9478566046625375,-6.740517631295323,-2.561337511205673
1700516807101212200,8.473212158203125,-3.8006460824161765,-1.518021759955585,0.5841715053463354
1700516807111223300,8.483223388671876,1.9404186124920844,0.9912496100567281,0.43383916078805923
1700516807121233200,8.493233154296876,3.342518283545971,-4.5603409991353745,-1.153620073335245
1700516807131244300,8.503244384765624,-5.1959711447685955,-3.806505329838395,-0.4952276954695582
1700516807141254100,8.513254150390624,1.188127834549546,1.679313707282394,0.61818903535828
1700516807151265300,8.523265380859375,5.122157720538974,-3.633005496715009,1.412570503924787
1700516807161275400,8.533275390625,-1.6020377215087414,-3.9854771646320817,-0.5354393308812752
1700516807171286300,8.543286376953125,1.351582951259613,0.19183102410584688,2.3230315900422633
1700516807181296400,8.55329638671875,2.1153058083206413,-1.9255097971737383,2.0919841155745087
1700516807191307300,8.563307373046875,1.2109271108567714,-1.642084631345421,-0.4062826069511473
1700516807201317400,8.5733173828125,-3.13184899571836,-4.724299389192462,1.5615065352864563
1700516807211328300,8.583328369140625,2.770703315219283,1.932092098173499,0.3633546983180567
1700516807221338400,8.59333837890625,6.989483624291419,-2.531523095439374,-0.759181560369581
1700516807231349200,8.603349365234376,-1.4169389282673597,-5.757216203764081,-2.020128547414392
1700516807241359400,8.613359375,0.1529243703454733,1.485535202370584,-0.2685833878641948
1700516807251370200,8.623370361328124,2.7998820634305477,-3.060353200781345,0.6936715618439019
1700516807261380000,8.633380126953124,-1.133341766873002,-3.725804484182596,-1.3408940917238592
1700516807271391500,8.6433916015625,-3.707591366621852,-1.968683460728824,1.7220574549876153
1700516807281401300,8.6534013671875,1.5481909805089233,-1.2516145105540752,2.237366399977356
1700516807291412500,8.66341259765625,0.3392360465079546,-2.1365907345421613,0.08357749707065522
1700516807301422300,8.67342236328125,-2.868377507507801,-4.0040234596699475,2.068397926673293
1700516807311433200,8.68343310546875,-2.1403508177280424,0.5848068441078067,0.4703325063290074
1700516807321443300,8.693443359375,-0.1517073957711458,-2.686919701117277,0.018140198455005883
1700516807331454200,8.7034541015625,-1.7445909199655054,-4.25177510844022,-0.9466644722685217
1700516807341464300,8.71346435546875,3.778489195665717,0.9091118634656071,-1.195236351380497
1700516807351475200,8.72347509765625,3.1886288675606247,-3.5861838320463892,-0.008521598499268293
1700516807361485300,8.7334853515625,-4.318866238677502,-2.4119904148250817,-2.31127890066728
1700516807371496200,8.74349609375,0.6204425133734941,-0.9323106604844331,1.9446011588737366
1700516807381506300,8.75350634765625,3.2334044133543967,-1.602269192177057,1.236577392680943
1700516807391517400,8.763517333984375,0.5471101506590843,-2.139473450371623,-1.0806365240585059
1700516807401527300,8.77352734375,-6.2118064761579035,-2.9869577097028492,2.4528382657811045
1700516807411538400,8.783538330078125,0.24514964957833288,1.391673261846602,0.7721507859274744
1700516807421548300,8.79354833984375,5.067784325316548,-3.4298981685742733,0.6269225230425596
1700516807431559400,8.803559326171875,-1.2910042716562746,-4.36149278974384,-0.6763078276541084
1700516807441569300,8.8135693359375,0.28064766393899915,0.013464315598458051,0.18829663943462072
1700516807451580200,8.823580078125,1.7565397164344787,-2.7698703715264794,0.5778146471329033
1700516807461590300,8.83359033203125,1.8723200587779283,-2.777941449779272,-1.6955159234121442
1700516807471601200,8.84360107421875,-1.6463263605684042,-3.729844407223165,-0.038402138304337856
1700516807481611300,8.853611328125,2.8809447281360625,2.295942215325683,-0.016903916392009704
1700516807491622100,8.8636220703125,2.3758786524802447,-4.077172282510996,0.30887444518767293
1700516807501632300,8.87363232421875,-3.7709383418947455,-3.7367344589978453,0.044955943861976266
1700516807511643400,8.883643310546875,1.342994571134448,2.288187947937101,1.5457640456229447
1700516807521653200,8.8936533203125,0.5481096830904484,-2.5962688315942883,2.153958779580891
1700516807531664400,8.903664306640625,-3.8024680371463297,-3.577761456137895,-0.6552296029858291
1700516807541674500,8.913674560546875,-3.1102339607596394,-0.4794008885234594,0.879281738673523
1700516807551685400,8.923685302734375,3.0759272020101545,-1.7511365422166882,1.0106788254089654
1700516807561695200,8.9336953125,4.527157106935977,-3.422653312012553,-2.5049054298877715
1700516807571705000,8.943705078125,-3.5575668093711137,-2.972058538995683,0.9168811822928488
1700516807581715200,8.953715087890625,-1.7631436447441577,1.6032570341706276,0.3719071668796241
1700516807591726000,8.96372607421875,6.27384353787601,-3.9006121850341557,0.6240258517529815
1700516807601736200,8.973736083984376,-0.8169073347598313,-3.497536995822191,0.35525216548107563
1700516807611747300,8.983747314453124,-0.4655401209533214,2.72795343003422,0.6203991856884211
1700516807621757200,8.993757080078124,2.277218956285715,-2.6131056923657656,2.3937962942257522
1700516807631768300,9.003768310546874,0.006700374421477318,-3.935430984959006,-2.3817557278200985
1700516807641778200,9.013778076171874,-4.448358880031108,-0.22284181004986164,1.2543613250441847
1700516807651789300,9.023789306640625,2.05296128808856,1.3354079153977334,0.8760973364837468
1700516807661799200,9.033799072265625,3.7672903407812117,-5.012817640376091,-2.2886185944393276
1700516807671810000,9.04381005859375,-7.67822868951857,-3.8802129556059834,0.7738437805157155
1700516807681820200,9.053820068359375,0.046053310644626616,3.7990833631440997,0.9719763159185647
1700516807691831000,9.0638310546875,6.805228296136856,-5.049015911960601,0.1371145145341754
1700516807701841200,9.073841064453125,-1.9009025946617126,-4.77001309261918,-0.9108726625930518
1700516807711852000,9.08385205078125,-5.631861392867565,1.2779052822388708,2.1251627470768986
1700516807721862100,9.093862060546876,-0.1271943012833595,-1.841924335992336,0.8935733719415963
1700516807731873300,9.103873291015624,1.4788941569209098,-4.920451491367817,-3.1793273707300425
1700516807741883400,9.11388330078125,-3.4557957031577824,-0.529246723318845,1.097702809671685
1700516807751894300,9.123894287109374,3.7096336861044166,1.1679090762548148,1.0252809128656983
1700516807761904000,9.133904052734374,2.818458169084787,-5.442061290067434,-2.0414377312943337
1700516807771914200,9.143914306640625,-7.209717443799972,-1.4371274375542997,0.18475334080457687
1700516807781925000,9.153925048828125,0.7241290978193282,2.357366990364343,0.6417805580217391
1700516807791935200,9.163935302734375,5.009049227753281,-5.174121132010221,0.4097362545363605
1700516807801946000,9.173946044921875,-1.4909651184648274,-2.2388060773916543,-1.2721418964065612
1700516807811956200,9.183956298828125,1.9374772983431814,-0.031564620434492825,0.3741631291128695
1700516807821967000,9.193967041015625,3.7296044609874484,-0.9749152919799089,-0.32571327872052785
1700516807831977200,9.203977294921875,3.639219841185212,-2.934136804619431,-2.529835873004794
1700516807841988000,9.213988037109376,-1.679874409905076,-2.1462347612001,-0.07308913767621852
1700516807851998200,9.223998291015626,2.438144262257218,2.065866654630005,0.16402919027097523
1700516807862009000,9.234009033203124,-2.600612706017494,-2.5815534930214286,-0.28580745785497125
1700516807872019000,9.24401904296875,-0.4923679221242666,-2.4252074776642023,-0.7296097211875021
1700516807882030300,9.2540302734375,-2.3878227727741,-3.020035803440213,-0.47462271433621644
1700516807892040200,9.264040283203125,1.259636488968134,2.409798749999702,-0.5450190966639668
1700516807902051300,9.27405126953125,2.4703350517660376,-3.8809883238926526,-1.3057879992902277
1700516807912061200,9.284061279296875,-1.7673668153971434,-4.79302864202559,-0.8211415382634848
1700516807922072000,9.294072021484375,0.5382131429761647,4.505633257392049,-0.48213389368392523
1700516807932082200,9.304082275390625,3.021805735722184,-3.0125188519388435,-0.3744758483238518
1700516807942093000,9.314093017578125,-7.323371880030631,-5.432910599884391,-2.9166204371511935
1700516807952103200,9.324103271484375,2.184268869909644,3.2600960209250447,-1.4748159476965665
1700516807962114000,9.334114013671876,7.702896682307124,-3.314296397668123,-0.4674757651910186
1700516807972124200,9.344124267578126,-2.7957956708997487,-3.9039243783220647,-4.827788989761472
1700516807982135000,9.354135009765624,-3.9836762526899574,0.32145605966746804,1.3952195561513303
1700516807992145200,9.364145263671874,2.0331834054291247,-0.00949964975118637,0.24272863297648725
1700516808002156300,9.37415625,1.256432139968872,-3.573498830257356,-1.8810107302337884
1700516808012166100,9.384166259765625,-1.7402859162479638,-2.5382918589219448,0.8023631149701773
1700516808022177300,9.39417724609375,2.573976628026366,2.7992887737125156,-0.8310755608439445
1700516808032187100,9.404187255859375,0.9987813207358122,-4.898918289473652,0.5728130394533276
1700516808042197200,9.414197265625,-0.7294517541468143,-1.5779131879471242,-2.4888831003695726
1700516808052208000,9.4242080078125,5.091777779844403,-0.6951862041905522,1.0541801134832203
1700516808062218200,9.43421826171875,-0.31323066763579843,0.6315013752654195,-0.2568393567197025
1700516808072229000,9.44422900390625,-2.620675250837207,-1.273961659179628,-1.457558231164515
1700516808082239200,9.4542392578125,-3.0167437761574982,-5.439235126730799,-1.4252612048022448
1700516808092250000,9.46425,4.421541015732288,4.78712467867881,-2.23893978677392
1700516808102260200,9.47426025390625,4.635642031574249,-3.2177070780068635,0.3850456845898181
1700516808112271000,9.48427099609375,-7.683473019912839,-5.766100936487317,-2.7311329368531703
1700516808122281000,9.494281005859374,-2.9929321079373357,1.7295085016459226,0.06056675170352682
1700516808132292400,9.504292236328125,7.239666007339954,-0.45701399240940804,-0.04676445458866656
1700516808142302200,9.51430224609375,3.6472996872663495,-3.9455701016575095,-3.9006326433002947
1700516808152313300,9.524313232421875,-6.875548617553711,-2.1586969140186905,0.6267832607023418
1700516808162323200,9.5343232421875,1.4814233831375836,2.2857243343025444,-0.3548435116149485
1700516808172334000,9.544333984375,2.283268757843971,-4.857674717198312,-1.5663780868455768
1700516808182344200,9.55434423828125,-5.188065486210585,-1.5180403185255824,0.22238617523685097
1700516808192355000,9.56435498046875,1.2122849552065134,0.2643834884889424,-0.6572217997163534
1700516808202365200,9.574365234375,-2.0831343080341815,-3.0634894529804586,-0.015986089161038396
1700516808212376000,9.5843759765625,-2.753651058131456,-0.8199187915354966,-1.3575472664915025
1700516808222386200,9.59438623046875,-0.4692307921648025,-3.016992197960615,-1.741158315168321
1700516808232397000,9.60439697265625,0.679505527716875,2.1184777163550255,-0.2053532804366201
1700516808242407200,9.6144072265625,3.1694325841814277,-2.5820728407204148,-1.5106478701867163
1700516808252418300,9.624418212890625,-3.0641742203742264,-3.950589975646138,-0.9559464606810361
1700516808262428200,9.63442822265625,4.677821131134033,4.251034519205987,-1.1443074705887586
1700516808272438000,9.64443798828125,7.197329086869955,-3.8779748212903735,0.9825266437664627
1700516808282449200,9.65444921875,-3.8479344878137107,-3.2664100263774394,-2.2006477577805517
1700516808292459300,9.664459228515625,-1.0049000958770513,1.7487272891178727,0.42687399795055386
1700516808302470100,9.67447021484375,2.6850626750737425,1.3607543919697402,1.2618166094861925
1700516808312480300,9.684480224609375,-0.19096213231682777,-3.7834079473674294,-0.45300709485560653
1700516808322491100,9.6944912109375,-6.678636052399873,-2.738623000347614,0.07111781020378694
1700516808332501200,9.704501220703126,1.845835371956229,2.355574553989619,-0.8076203779112547
1700516808342512000,9.71451220703125,5.230847812360524,-2.3398691814661023,-1.0236894789557904
1700516808352522200,9.724522216796874,-5.526221920788288,-3.8777211387902497,-2.4647554980680346
1700516808362533000,9.734533203125,-3.7821635002642866,-0.14827625227868557,-1.3689461739927529
1700516808372543000,9.74454296875,2.716955358418822,-1.2028184770725667,-0.7999102419253439
1700516808382554000,9.75455419921875,-0.6232669231444596,-3.7819314450740813,-3.1753768795385957
1700516808392564000,9.76456396484375,-5.616306096339225,-1.8528233311474323,1.7789163834154604
1700516808402575400,9.774575439453125,-1.3925304631978273,2.9911364566922187,1.118297853932902
1700516808412585200,9.784585205078125,-1.0970131469070912,-6.30836481615901,0.5165311071958393
1700516808422596000,9.79459619140625,-4.267137220484018,-0.8601490951150655,0.6747097448077053
1700516808432606200,9.804606201171875,2.0723335125565527,0.9548613688580692,0.046886309136357156
1700516808442616300,9.8146162109375,1.972581344950199,-3.255716198405623,-0.16087606000229715
1700516808452627200,9.824627197265626,3.431967083802819,-0.7758473023578524,-2.7539284137681124
1700516808462637300,9.83463720703125,3.207459240236878,-3.0702561706364153,0.38910738107077775
1700516808472648200,9.844648193359374,1.1338888793617485,3.7672172755450006,-1.4654343713670968
1700516808482658000,9.854657958984374,6.491559237083792,-2.914333495257795,0.694646179029718
1700516808492669200,9.864669189453124,-1.366924312776327,-2.4990678097754717,-1.2470426725938915
1700516808502679000,9.874678955078124,0.6076975980907678,3.1151559273317453,1.4903911179691551
1700516808512690200,9.884690185546875,-0.10018763641417026,-0.24889146645516155,2.2274688369497655
1700516808522700000,9.894699951171875,0.5644470699071884,-4.701183302021026,0.020907617341727018
1700516808532711200,9.904711181640625,-2.8305589412450787,-0.950701764960587,0.20684337286390364
1700516808542721300,9.91472119140625,1.246064475211501,3.4345442408144473,0.05600048496760428
1700516808552732200,9.924732177734375,1.8741829300403594,-3.9737376269996165,-1.0492355697531253
1700516808562742300,9.9347421875,-4.315750737005472,-3.5772236959993835,-1.4699877968877553
1700516808572754200,9.944754150390626,-0.6463742424875497,1.4997988516531884,-2.0351545593716205
1700516808582764000,9.954763916015626,2.179603800708055,-2.1641966804787516,-0.1869550886325538
1700516808592775200,9.964775146484374,-5.930134145346283,-4.345662475666404,-2.273568617084622
1700516808602785000,9.974784912109374,-2.748931043872237,0.8063198897719382,1.925289578551799
1700516808612795100,9.984795166015624,1.982532830122113,-0.7784355652853846,1.1957730886057019
1700516808622806000,9.994805908203125,2.459441317307949,-3.6845769862592217,-0.5564513219129293
1700516808632816000,10.004816162109375,0.6326251185983419,-0.8306851002216339,1.7121657371789216
1700516808642827000,10.014826904296875,4.3487791463822125,1.457009657371044,-0.2726017201274633
1700516808652837000,10.024837158203125,3.242503081089258,-3.2011046105131507,0.8145908745110034
1700516808662848000,10.034847900390625,1.8215484874397516,-0.3095321053788066,-1.6812258245140312
1700516808672858000,10.044858154296875,1.3909469933986662,-3.0091932146474716,0.29864699261859057
1700516808682869000,10.054868896484376,2.2910791393339633,4.6058226473718875,-0.2223968610276468
1700516808692878800,10.06487890625,3.4895115102767944,-3.7121214112669225,0.22798194941729305
1700516808702890200,10.07489013671875,1.7360925562113523,-4.550473100593686,-2.251996106093377
1700516808712900000,10.084900146484374,1.0358680655926464,4.343943981310725,-0.22161449674461037
1700516808722911200,10.0949111328125,1.8506196836233137,-1.3464406199350953,0.7412846691511571
1700516808732921000,10.104921142578124,-0.31289515207111834,-2.8867203889280555,-0.9512722583249211
1700516808742932000,10.114931884765625,3.321111338379979,-1.2857093801185489,0.08619549754932522
1700516808752942000,10.124942138671875,4.461214854472876,2.1976805785380304,-0.8225467288862913
1700516808762952200,10.1349521484375,-2.867740963169932,-2.8647204463049767,0.6505310699060559
1700516808772963000,10.144963134765625,-6.0554655753672115,-3.7266003107354044,-0.6949792834416031
1700516808782973000,10.154972900390625,-1.1253957763046025,3.0496491436764597,0.8345460134334862
1700516808792984000,10.164984130859375,5.221960157027841,-3.6973882447764277,1.5308701356127856
1700516808802994000,10.174993896484375,-8.092493381264806,-3.715713298279047,-2.5947905757352707
1700516808813005000,10.185005126953126,-1.6416519390165805,0.923259192892164,1.821885172048211
1700516808823015000,10.195014892578126,0.21059680711328982,-2.625579974013567,0.7687564673140644
1700516808833026000,10.205026123046874,0.5674170256286859,-0.6991226668566465,-0.5866944844853133
1700516808843036000,10.215035888671874,0.265686826172471,-3.7224870301976796,1.4705297948099672
1700516808853047000,10.225047119140624,-0.4972299752026796,3.5475855135828254,-1.6531111984029412
1700516808863057200,10.23505712890625,7.237749944585562,-3.3775732303142547,2.3518637167729435
1700516808873067300,10.2450673828125,-4.549319838905334,-4.230487113478779,-2.5584239618465303
1700516808883078100,10.255078125,2.377401916524768,2.6021073284894225,0.9202630067508667
1700516808893088000,10.265087890625,3.8740497568011283,-1.942569653046131,1.2841694572001694
1700516808903099100,10.27509912109375,-0.719095779827237,-3.179312465421855,-1.1410782063439489
1700516808913109000,10.28510888671875,-5.140331090611219,-0.9361604677803814,1.4547595403566955
1700516808923120000,10.2951201171875,2.799956297710538,2.5365526140391825,-0.3079787384569645
1700516808933130000,10.3051298828125,4.237513066592812,-2.722152050279081,-0.5537658456886186
1700516808943140900,10.315140869140626,-6.7258958162248135,-4.242704790017009,-1.2466107109174132
1700516808953151000,10.32515087890625,-2.832816949304938,2.5393729321569203,0.5455963485626504
1700516808963161900,10.335161865234374,4.257724664494395,-1.5182744195424018,1.3730167844325303
1700516808973172000,10.345171875,-1.1151754110634327,-3.338450011193752,-1.8756392663285135
1700516808983182000,10.35518212890625,-1.4210931253373622,0.22678747893571852,2.095962956077605
1700516808993193200,10.365193115234375,1.1248194377213716,0.6108915718264878,0.17263718841206283
1700516809003203000,10.375203125,2.2817004856139422,-2.038004249714315,-0.020912074321135878
1700516809013214200,10.385214111328125,-3.58500777400434,-3.545117662164569,1.141438783284649
1700516809023224000,10.39522412109375,1.2171294726282358,3.0029239251196382,0.2696387056034058
1700516809033235200,10.405235107421875,9.046739979225396,-3.0228301103338597,2.1885589683189988
1700516809043245000,10.4152451171875,-8.389917992481589,-4.670170908641815,-4.029994059489667
1700516809053256000,10.425255859375,-15.188375771570204,3.8782077532634136,2.7385049269258976
1700516809063266000,10.43526611328125,2.915492894425988,2.295003765431791,0.2976653611700982
1700516809073277000,10.44527685546875,10.859524729973078,-4.88399398432523,-1.9176529461935161
1700516809083287000,10.455287109375,-3.974833605542779,-3.875286605119705,0.5757282327802852
1700516809093297000,10.465296875,-2.394309796705842,3.0554712739586827,-0.050863304742239414
1700516809103308000,10.47530810546875,0.6539601675719022,-1.987010852319002,1.7471815209805965
1700516809113318000,10.48531787109375,-0.9792734871894121,-3.195565973347425,-1.2849755128860474
1700516809123329000,10.4953291015625,1.6648679794311523,0.10682079081833362,1.1833289829004556
1700516809133339000,10.5053388671875,3.290388283336162,-0.6969391853377223,0.5922787508910522
1700516809143350000,10.51535009765625,3.285239230009913,-2.399602057895064,-0.17494283500593155
1700516809153360100,10.525360107421875,-0.3543237255245447,-2.7688576873525976,0.5215899614879861
1700516809163371000,10.53537109375,1.9154963526815174,3.230800368335843,-0.15624620824456215
1700516809173381000,10.545381103515625,1.5729010588735342,-1.843812780087441,1.7067811215311288
1700516809183392000,10.55539208984375,-1.0332511610925197,-3.424034829498827,-1.7221818120196462
1700516809193402000,10.565402099609376,-2.2664438797712325,0.16689532029181717,0.8828693148367106
1700516809203412000,10.575411865234376,1.8436065899908542,2.727569106891751,0.1702816382618621
1700516809213423000,10.585423095703124,2.045049199789762,-3.3556524904072282,-1.366851539801061
1700516809223433000,10.595432861328124,-2.0992145052194595,-2.798924616575241,-0.7935868110574782
1700516809233444000,10.605444091796874,1.3542986399590968,3.074508567383885,-0.3768557291977107
1700516809243454000,10.615453857421874,2.9211206711798905,-1.3572247565388678,0.05567870566733181
1700516809253464800,10.62546484375,-3.7402556188613176,-4.093196657855809,-1.7611220757886767
1700516809263475000,10.635474853515625,-1.6894687522023915,1.144369649104774,0.45912630838826296
1700516809273486000,10.645486083984375,2.1153052237987517,-0.8327806111961603,1.6594279803343117
1700516809283496200,10.65549609375,0.9630138417840003,-1.9168736323840916,-0.5241322298493236
1700516809293507000,10.665507080078125,-3.4641754089683294,-3.3336583930030463,1.3889017513066528
1700516809303517200,10.67551708984375,-0.26754794386923314,2.78318578017354,-0.45360754496678707
1700516809313527000,10.685527099609375,2.3983295537412164,-3.4584318968802688,1.8046888303145765
1700516809323538200,10.6955380859375,-2.2379519447803498,-2.994486936163902,-1.237622663950175
1700516809333548000,10.705548095703126,-0.23079905266463754,1.0076970331192017,0.23368688306063412
1700516809343559000,10.715558837890624,1.1010574538618325,-1.2415868914060293,1.3283796241961419
1700516809353569000,10.725569091796874,-1.054894253101945,-1.135836360167712,-2.5627073382541536
1700516809363580000,10.735579833984374,-2.638366390350461,-2.3912460252210495,0.9300459304228424
1700516809373590000,10.745590087890625,2.207970648014545,3.8819355416148897,-2.015448865165561
1700516809383601000,10.755600830078125,3.298980755114555,-2.7293852164030072,1.06034689248465
1700516809393611000,10.765611083984375,-4.121273290044069,-4.303350689637661,-0.9957995284460485
1700516809403620900,10.775620849609375,1.5818109260380266,3.9258269980505105,0.3074360098823905
1700516809413632300,10.78563232421875,3.393109822142124,-2.2541572296500205,1.1426774582341312
1700516809423642000,10.79564208984375,-0.7496879019677638,-1.3377004102490841,-1.6827976038753985
1700516809433653000,10.805653076171875,-4.06638493103683,-2.621746971721947,1.9601324900045989
1700516809443663000,10.8156630859375,-1.7974509880155325,4.461290257796645,-0.8295346880774944
1700516809453674000,10.825674072265626,3.3596769236177204,-4.046300466646254,1.153885811599344
1700516809463684000,10.83568408203125,-2.585959911286831,-3.316235841298103,-0.5834165587931871
1700516809473695000,10.845695068359374,0.34540333696603776,3.056677434878051,0.09883008432537317
1700516809483705000,10.855705078125,0.4975397718042135,-3.7139027417257426,1.8719693456441162
1700516809493715000,10.86571484375,-3.2748838402122256,-0.8670506911970675,-0.9621491877786814
1700516809503726000,10.87572607421875,-1.4887731613785027,-2.20779353788197,1.0126640809420495
1700516809513736000,10.88573583984375,1.6425696383833883,2.893047546122968,-0.249832912023738
1700516809523747000,10.8957470703125,1.656164448493719,-2.477895257887244,1.4693538828983903
1700516809533757000,10.9057568359375,-6.106047177091241,-3.9935181400075552,-1.3320214878298342
1700516809543767800,10.915767822265625,0.6150315942406654,4.068004056671262,0.39037849698513744
1700516809553778000,10.92577783203125,3.6297856578856704,-3.9001480746537447,1.413696877606213
1700516809563789000,10.9357890625,-1.0205132600724696,-0.27166429314687845,-2.236770333780348
1700516809573799000,10.945798828125,-1.5680682318896055,-3.228245130895078,1.81176008387506
1700516809583809000,10.95580908203125,1.6513947498738766,5.055038825511932,0.4215452041432261
1700516809593820000,10.96581982421875,3.285051598483324,-3.891944894453883,0.06134769121445715
1700516809603829800,10.975829833984376,-1.6777438276171683,-1.8033229487888514,-0.9215778887417166
1700516809613841000,10.9858408203125,1.0497370164692401,2.9470734430819747,1.3188842122286557
1700516809623850800,10.995850830078124,3.3330127885758873,-2.61095172920227,0.9155404352083801
1700516809633862000,11.00586181640625,-1.7163281175553797,-2.0270745671600103,-2.210193438630551
1700516809643871700,11.015871826171875,0.3414174822002649,-0.5154042220577597,2.233536758686602
1700516809653882600,11.025882568359375,2.092823927399516,2.2970756032697857,-0.7254186992384493
1700516809663892700,11.035892822265625,1.9268425070822237,-3.2354397185742854,-0.37842612031958994
1700516809673902800,11.04590283203125,-3.032458647161722,-2.5228841541707516,-0.25328086052052673
1700516809683914000,11.0559140625,2.7101936091989276,3.465760632333159,0.2893107898008078
1700516809693923800,11.065923828125,3.0236417189776894,-2.3838084225662053,-0.03993066304586827
1700516809703935000,11.07593505859375,-5.607919960787892,-3.0923820777267217,-0.44309879123829304
1700516809713944800,11.08594482421875,-2.4381547836512327,-0.4707018876306712,0.9720112411014735
1700516809723956000,11.0959560546875,3.5062808587700127,2.8086799946531653,0.06857113966196775
1700516809733965800,11.1059658203125,1.6839093645095824,-3.112273065371811,-0.9901398952491581
1700516809743976000,11.115975830078124,-4.358653474664687,-2.828535910984874,0.5263938911709934
1700516809753986800,11.12598681640625,0.44717911935448645,4.072591968983412,1.0228571197848766
1700516809763997000,11.135996826171874,4.243326136785745,-2.591224115425348,1.4596046423003077
1700516809774007800,11.1460078125,-3.2374721011847254,-3.5820541848957537,-1.420670223750174
1700516809784018000,11.156017822265625,-2.1297353156894445,1.4962703852660952,1.6087494941070675
1700516809794028800,11.16602880859375,-0.24405893173217771,-1.4092352220222353,1.2303580797746776
1700516809804038700,11.17603857421875,0.4240642012268305,-0.677238605698198,-0.8343827856957912
1700516809814049800,11.1860498046875,-1.5350357308596372,-3.8163472171559927,0.7006421315088868
1700516809824059600,11.1960595703125,2.391808627539873,3.8185613860741254,-0.6295138547100126
1700516809834069800,11.20606982421875,2.7531284955620765,-3.2149083871990443,-0.26705051574110983
1700516809844081000,11.216080810546876,-4.709107665279507,-2.71408710950613,-2.735706236118078
1700516809854091000,11.226091064453126,-0.9618927287995814,0.6723106477767229,0.967079337657243
1700516809864102000,11.236101806640624,3.58124053042531,0.1621475412428379,1.363253076917678
1700516809874112000,11.246112060546874,1.7593261322826146,-1.5368514019794761,-0.9251935219556092
1700516809884123000,11.256122802734374,-1.7239754174381494,-2.7442694818019864,1.1926430469516665
1700516809894132700,11.2661328125,1.67147424582839,5.81148964574337,-0.31290793848745524
1700516809904142800,11.276142822265625,4.465748990771174,-4.61960041283369,2.3594096021078528
1700516809914153700,11.28615380859375,-1.0210469285577535,-0.7719143468230962,-1.28186497965008
1700516809924163800,11.296163818359375,1.514769187900424,2.1108922296620904,1.618729913112521
1700516809934174700,11.3061748046875,0.6986141328126192,-1.102045003594458,0.6240311124499887
1700516809944184800,11.316184814453125,-2.6533763279557228,-1.953529584608227,-2.1238447963461278
1700516809954195700,11.32619580078125,-4.089533166912198,-1.0428776520937681,1.5393804820656776
1700516809964205800,11.336205810546875,2.531346862089634,2.9337521892160177,-0.28764745969846844
1700516809974215700,11.346215576171875,2.910522704797983,-3.539818678973615,0.23000907133072612
1700516809984226800,11.356226806640626,-5.060270880946517,-2.7962419533625242,-0.9151891375526785
1700516809994237000,11.36623681640625,-2.2980109844237564,2.552619074960053,0.813903476768732
1700516810004247800,11.376247802734374,0.273031343716383,-2.635240367284417,1.562512205197662
1700516810014258000,11.3862578125,-1.387743228921294,-2.1852852073453364,-1.438747439971566
1700516810024268000,11.39626806640625,0.3208341283768415,-0.6913901729084551,1.8780892898291348
1700516810034279000,11.40627880859375,0.6845850229382514,1.5843806303955614,0.48310047369375825
1700516810044288800,11.416288818359375,2.4245371771872044,-2.4549703093737363,0.5618314805813134
1700516810054300000,11.4262998046875,-1.0168564911305904,-3.155483553805947,-0.8105933293074369
1700516810064309800,11.436309814453125,2.9388848759293555,3.8803175850242373,0.017269005111046135
1700516810074321000,11.44632080078125,4.264400488996506,-1.8684575381308792,0.5785523502903058
1700516810084330800,11.456330810546875,0.13114040856063366,-1.8118918935611843,-2.4823762026935814
1700516810094340900,11.4663408203125,-3.3175241275429723,-0.6972567268542945,1.1315097291402518
1700516810104351700,11.476351806640626,1.892024291679263,4.1444402306199075,0.4749006544947624
1700516810114361900,11.48636181640625,4.83189408699274,-2.489702600058913,-0.26302787262890487
1700516810124372700,11.496372802734374,-0.15393734678030013,-2.917645104023814,0.20883973431289196
1700516810134382800,11.5063828125,3.4447447323113676,3.992204427060485,0.44285047903303054
1700516810144392700,11.516392822265624,1.1932499998688697,-2.4395151122190057,0.9975918186902999
1700516810154403800,11.52640380859375,-0.00158814597427845,-1.6167467764712868,-1.812853578200191
1700516810164414000,11.5364140625,-4.007335360696912,-2.137560748618096,-0.04902553138844669
1700516810174424800,11.5464248046875,0.31645079872608184,3.2983810356557366,-0.8040251298982649
1700516810184435000,11.55643505859375,3.3217648338526486,-3.0403616753712295,-0.8252517500612885
1700516810194445800,11.56644580078125,-4.4619624579697845,-2.7283815923184154,-0.19343097011577337
1700516810204456000,11.5764560546875,-1.5793027426093815,3.64317763890028,0.8339750816777348
1700516810214465800,11.5864658203125,1.9537135628730058,-2.667794144886732,1.504524565000832
1700516810224477000,11.596476806640625,-0.2479337273389101,-1.8075854285389183,-1.4102473216742277
1700516810234486800,11.60648681640625,1.3391566004067659,-0.06845145880505442,1.1789482105329632
1700516810244497700,11.61649755859375,1.3237000880777836,0.12038783613890408,0.13159757774360478
1700516810254507800,11.6265078125,0.26962533466517924,-1.2769924051776527,-0.4353936236884445
1700516810264518000,11.636517822265626,-2.664033915570378,-2.809269777239859,1.1967544277932494
1700516810274528800,11.64652880859375,2.1622557755440472,4.601059378492832,-0.07594404305014758
1700516810284538600,11.65653857421875,4.015351493892074,-3.196526635073125,1.4166554351508616
1700516810294550000,11.666550048828125,-4.308217418891191,-2.9813173657283185,-1.6038535387590527
1700516810304559900,11.676559814453125,-0.0204302090883255,1.6431445156618951,0.20834314643498508
1700516810314570000,11.686570068359375,2.9750363857626914,-0.07894114250689745,0.1509721037665382
1700516810324580900,11.696580810546875,-1.1509370447963476,-1.9639106933690607,-2.488527126538753
1700516810334591000,11.706591064453125,-3.777656836494803,-3.5814848605751988,0.24536248861141502
1700516810344601900,11.716601806640625,3.6388469162195918,5.2515802192658185,-0.9459767822653055
1700516810354612000,11.726612060546875,4.699471237406135,-2.691353007389605,0.3649735682241618
1700516810364621800,11.736621826171875,-5.831798274278641,-3.4778029523044824,-1.260844695714116
1700516810374633000,11.746633056640626,-1.9286311440646646,2.089129749056697,1.107841049587354
1700516810384642800,11.756642822265626,4.044840038704872,0.8711752237811684,0.8635241245061158
1700516810394653700,11.76665380859375,-0.11000935772657394,-2.3791119353130457,-1.600034418862313
1700516810404663800,11.776663818359374,-0.39128655174076554,-0.9582231003761291,1.443956699052453
1700516810414674000,11.786673828125,1.4539368257969616,2.542747377026081,0.37767490009348836
1700516810424684800,11.796684814453124,2.5910838301718235,-1.1334617399908602,0.8588377933207899
1700516810434694700,11.806694580078124,-5.869989765506983,-3.30801629448533,1.0029784801647066
1700516810444705800,11.816705810546875,-0.15747545777857302,4.164108223164082,0.3449076989362016
1700516810454715600,11.826715576171875,2.550993811845779,-3.3302748880445954,0.2718773879082873
1700516810464725800,11.836725830078125,-3.6242853069037197,-2.376880815260112,-2.657954887917638
1700516810474737000,11.84673681640625,-3.4198405926793813,-0.35502734374925493,0.8358551963359117
1700516810484747000,11.8567470703125,-0.6245972949653864,0.7402475811883806,-0.5817164768770337
1700516810494758000,11.8667578125,1.3309165953278541,-2.561035313388705,-0.986759751291573
1700516810504768000,11.87676806640625,-2.6821967642486095,-2.0624099383048713,0.4926785589760169
1700516810514777900,11.88677783203125,-0.46052959931492804,4.0256922706425184,-0.8092842925354838
1700516810524788700,11.896788818359376,3.4356384657919405,-2.2435604323118925,1.5836191445037722
1700516810534798800,11.906798828125,-1.7663818960130213,-3.3410008647203444,-1.1241096089515834
1700516810544809700,11.916809814453124,1.6081009670704602,2.44877087021172,1.281051909701526
1700516810554819800,11.92681982421875,3.800568341004848,-0.35610710180997845,-0.017543109344691037
1700516810564830000,11.936829833984374,4.137093374988437,-0.9242186855740845,-0.24368253616783767
1700516810574840800,11.9468408203125,0.8206500284194945,-1.8878835386127233,0.5512345005800947
1700516810584850400,11.956850341796875,3.0669436850875615,5.347707766634225,-1.1418437108237296
1700516810594861800,11.96686181640625,1.989491563218832,-2.400715864355862,0.6071272873895243
1700516810604871700,11.97687158203125,-4.677278694820404,-3.2009611103892324,-1.4930848870977758
1700516810614881800,11.9868818359375,-7.265576693665981,4.073822679822147,-1.055448452918604
1700516810624892700,11.996892578125,-2.5785563570320607,-2.0448811497464776,0.804803201598674
1700516810634902800,12.00690283203125,-4.189448416125774,-3.5147461970373985,-1.4703909708611667
1700516810644913700,12.01691357421875,-2.8646500114172695,-0.47455476366654037,0.6426648665755986
1700516810654923800,12.026923828125,0.9329624023914337,0.8120913127802312,-0.42999202037323264
1700516810664933600,12.03693359375,2.7375498181581497,-2.3094620605036615,0.9722219612427055
1700516810674944500,12.046944580078126,-0.1610445484369993,-2.5792420012086628,1.883892715410888
1700516810684954600,12.05695458984375,3.6590415629863737,4.662954401391745,-1.1676891498938202
1700516810694964700,12.06696484375,5.171031349301338,-3.7853023828119037,1.5910757441200316
1700516810704975600,12.0769755859375,-2.87093420625329,-3.195940944139659,-1.4099512613371015
1700516810714985700,12.08698583984375,4.731798220515251,3.0815128931879996,0.1585966438282281
1700516810724996600,12.09699658203125,3.2872739507079123,0.843400497148931,0.2921017356935888
1700516810735006500,12.10700634765625,-3.1963077316254376,-0.5495142891913652,-1.675871896265447
1700516810745016600,12.1170166015625,-3.990297132134437,-2.255408983276784,-0.31178583912234753
1700516810755027700,12.12702783203125,-0.3472480880498886,6.129868197661638,-0.8302114913605153
1700516810765037800,12.137037841796875,2.935073793208599,-2.128513518809527,0.15662454003766177
1700516810775048700,12.147048583984375,-2.4568588995993137,-2.793558413366973,-2.0561457633435727
1700516810785058800,12.157058837890625,-0.04943243168890476,3.2508371941924095,0.36373394342660903
1700516810795068700,12.167068603515625,1.689063094010949,-2.172581208594888,1.4992752661705016
1700516810805079800,12.177079833984376,-5.437409664869308,-3.653171794170141,-1.4832649193510412
1700516810815089700,12.187089599609376,-2.17347801130414,1.8230688288748262,1.0565659857064484
1700516810825099800,12.197099853515626,0.966957026451826,-2.2102217879422006,2.367337180236727
1700516810835110700,12.207110595703124,-0.04621697677373886,-2.177406144533306,-0.9243113322935997
1700516810845120800,12.217120849609374,-0.3839817816853523,-0.7689832618072628,1.679566659130156
1700516810855131600,12.227131591796875,1.3675409833699463,1.8340698230996726,0.09673990711309015
1700516810865141500,12.2371416015625,4.468523716181516,-1.2675257809132336,-0.05115943814460188
1700516810875151600,12.247151611328125,-0.975271265810728,-2.536627725102007,-0.13437259541489183
1700516810885162500,12.25716259765625,0.4638654657393694,2.9355495940268037,-0.9636949559159577
1700516810895172600,12.267172607421875,2.877880664390325,-0.844714356226474,-1.1080565920341758
1700516810905182700,12.2771826171875,-3.620187808457017,-2.7532097441047427,-2.1364206386722624
1700516810915193600,12.287193603515625,-2.483538816732168,0.7514074192367494,0.030214667130261656
1700516810925203500,12.297203369140625,2.637823954036832,1.4129171254053712,-1.1567146052844821
1700516810935214800,12.30721484375,1.8274375454783438,-1.4820214951612054,-0.2593635779676959
1700516810945224700,12.317224609375,-3.1247341952770946,-3.297397285315394,0.5782655327055602
1700516810955234800,12.32723486328125,1.1040203953206538,5.522361738228797,-0.46638139408305285
1700516810965245700,12.33724560546875,3.601287293154001,-2.240549998449534,2.0757624640919268
1700516810975255800,12.347255859375,-1.1399369273543358,-2.8497914649814367,1.228428865277767
1700516810985265700,12.357265625,1.6184253772079944,3.2730455188691616,0.11262823498807847
1700516810995276800,12.36727685546875,4.474903188085555,-0.45849984705299135,1.3712874764218925
1700516811005286700,12.37728662109375,-1.9708663577258585,-3.1089895136564967,-0.1099477271998301
1700516811015297500,12.387297607421875,-0.30049393565952776,1.9861115653917192,-1.9423545489907263
1700516811025307600,12.3973076171875,0.40844811442196366,0.19854747287929056,-0.655870750433579
1700516811035317800,12.40731787109375,-3.0375118388980624,-0.836205324947834,-1.880914576382935
1700516811045328600,12.41732861328125,-5.773429087418317,-1.6652765602320432,-0.3638364539530128
1700516811055338500,12.42733837890625,-1.2019792497694493,3.3660400289088486,-1.942224785131216
1700516811065348600,12.4373486328125,3.1298166131079195,-1.7408602090045808,1.5078744599506257
1700516811075359500,12.447359375,-1.0508850174605846,-3.6175288183808325,0.21272629342265426
1700516811085369600,12.45736962890625,0.8894944320648908,3.965864117145538,0.9512669976279139
1700516811095380700,12.467380615234376,-0.02270283019542694,-2.465691025352478,1.7028443666040896
1700516811105390600,12.477390625,-5.210996864464879,-4.101877684700489,-0.8376775163922459
1700516811115400400,12.487400390625,2.414441899630427,2.7036174456790087,0.580335836173594
1700516811125411800,12.497411865234374,2.3883184473365544,0.07870134240165352,-0.0038374592710286376
1700516811135421700,12.507421630859374,-3.224599760130048,-2.3834042256794867,-0.495395014860481
1700516811145431800,12.517431884765625,-4.10939171359241,-0.4864347326830029,-0.5252769429050386
1700516811155442700,12.527442626953125,3.1325948456496,3.9616619892805813,-1.0837805942378937
1700516811165452800,12.537452880859375,4.2418139786571265,-0.6955367711938917,0.6875780672743916
1700516811175463700,12.547463623046875,-4.3917076030045745,-3.4560838724493976,-0.3924021117672324
1700516811185473800,12.557473876953125,-0.6334668301194906,4.580646705061197,0.08851349216811358
1700516811195483600,12.567483642578125,3.7149791387856004,-0.8580857328444719,1.0806786096345633
