time,seconds_elapsed,z,y,x
1700516695030517200,0.056517333984375,-0.00851320568472147,-0.03447619453072548,-0.009158889763057232
1700516695040527400,0.06652734375,0.017311733216047287,0.008111745119094849,0.003519355319440365
1700516695050537500,0.076537353515625,-0.014053757302463055,0.05171845853328705,0.2278338521718979
1700516695060547300,0.08654736328125,0.01043072808533907,-0.047384876757860184,-0.07790061831474304
1700516695070557400,0.096557373046875,-0.029576875269412994,-0.004828629083931446,-0.16189858317375183
1700516695080567300,0.1065673828125,-0.025726107880473137,-0.032192621380090714,0.04707187041640282
1700516695090578400,0.116578369140625,-0.00391668314114213,0.03999102860689163,0.13451729714870453
1700516695100588300,0.12658837890625,0.02340603806078434,0.005030977539718151,-0.08562324196100235
1700516695110598400,0.136598388671875,-0.02365441434085369,-0.008770854212343693,-0.06363219022750854
1700516695120608300,0.146608154296875,0.00021063245367258787,-0.07694317400455475,-0.03876576945185661
1700516695130618400,0.156618408203125,0.0036897859536111355,0.06429757177829742,0.023318909108638763
1700516695140628200,0.166628173828125,-0.017933441326022148,0.0011483912821859121,0.203698068857193
1700516695150639400,0.176639404296875,0.009916565380990505,-0.03169770538806915,-0.20230883359909058
1700516695160649200,0.186649169921875,-0.029250184074044228,0.027849599719047546,-0.15950888395309448
1700516695170659300,0.196659423828125,0.0038065691478550434,-0.0230316910892725,0.005452368874102831
1700516695180669200,0.206669189453125,0.0009531829273328185,0.05137300863862038,0.04652503505349159
1700516695190679300,0.21667919921875,-0.010395611636340618,-0.09311093389987946,-0.15634232759475708
1700516695200689400,0.226689453125,-0.04923313483595848,0.012138902209699154,-0.053800877183675766
1700516695210700300,0.2367001953125,0.017579983919858932,0.002799729350954294,-0.024851515889167786
1700516695220710400,0.24671044921875,0.0007546854903921485,0.055716801434755325,0.13659872114658356
1700516695230720300,0.25672021484375,-0.015134798362851143,-0.10292184352874756,0.2509140968322754
1700516695240730400,0.26673046875,-0.0017566708847880363,0.04798015579581261,-0.1776016652584076
1700516695250740200,0.276740234375,-0.052562057971954346,-0.016823075711727142,-0.0835564061999321
1700516695260750300,0.286750244140625,0.0016347275814041495,0.03824731707572937,0.10723237693309784
1700516695270761500,0.296761474609375,0.013371012173593044,-0.01717519760131836,0.05976685881614685
1700516695280771600,0.306771484375,-0.022659752517938614,-0.019089333713054657,-0.12051132321357727
1700516695290781200,0.31678125,-0.020213641226291656,0.02217981033027172,-0.0362667478621006
1700516695300791300,0.326791259765625,0.026531126350164413,0.005834502167999744,-0.03441163897514343
1700516695310801200,0.33680126953125,0.0037318030372262,0.05366886779665947,0.24703867733478546
1700516695320811300,0.346811279296875,0.022948579862713814,-0.06492944061756134,0.0845942348241806
1700516695330822400,0.356822509765625,-0.003055589273571968,0.07725007086992264,-0.22933466732501984
1700516695340832500,0.36683251953125,-0.02446572668850422,-0.047758620232343674,-0.0063759260810911655
1700516695350842400,0.37684228515625,0.01848307065665722,0.047250449657440186,0.1611022800207138
1700516695360852500,0.3868525390625,-0.0010708706686273217,-0.11386560648679733,0.0002284119836986065
1700516695370862600,0.396862548828125,-0.03372548893094063,0.006414197385311127,-0.15069159865379333
1700516695380872400,0.40687255859375,-0.0197767186909914,-0.03653106465935707,-0.036550961434841156
1700516695390883300,0.41688330078125,0.0014353595906868577,0.007848651148378849,0.003653719322755933
1700516695400893400,0.4268935546875,-0.021194729954004288,-0.03164917230606079,0.2618522346019745
1700516695410903600,0.436903564453125,0.00890857819467783,-0.02471749670803547,-0.11179403215646744
1700516695420913400,0.446913330078125,-0.0319986417889595,0.009143264964222908,-0.18501392006874084
1700516695430923500,0.456923583984375,-0.01239431370049715,-0.021159246563911438,0.046908263117074966
1700516695440933400,0.466933349609375,0.002814620267599821,0.007926846854388714,0.16034522652626038
1700516695450943700,0.47694384765625,-0.016114329919219017,-0.1162363812327385,-0.07753629982471466
1700516695460953600,0.48695361328125,-0.027649719268083572,0.017158152535557747,-0.08911238610744476
1700516695470963700,0.496963623046875,-0.017546217888593674,-0.053969550877809525,-0.00859011523425579
1700516695480973800,0.506973876953125,0.014590781182050705,0.07922577112913132,0.08850573748350143
1700516695490983700,0.516983642578125,-0.030420634895563126,-0.09179151803255081,0.23826166987419128
1700516695500993800,0.526993896484375,0.012134939432144165,0.029711268842220306,-0.19504579901695251
1700516695511004700,0.537004638671875,-0.04742159694433212,-0.02472800388932228,-0.08411954343318939
1700516695521014800,0.547014892578125,0.006049192976206541,0.042479775846004486,0.11520019918680191
1700516695531024600,0.557024658203125,0.010485220700502396,-0.011721676215529442,0.11130212992429733
1700516695541034800,0.56703466796875,-0.01861020363867283,-0.015139095485210419,-0.13554947078227997
1700516695551044600,0.577044677734375,-0.018993165343999863,-0.0053362660109996796,-0.03592435270547867
1700516695561054700,0.5870546875,0.023719552904367447,-0.013423902913928032,-0.0024581686593592167
1700516695571065600,0.597065673828125,0.01203173864632845,0.059242840856313705,0.1866891086101532
1700516695581075700,0.60707568359375,0.0047551728785037994,-0.09610483050346375,0.05996482074260712
1700516695591085600,0.61708544921875,0.006650012452155352,0.06470588594675064,-0.21682922542095184
1700516695601095700,0.627095703125,-0.03368961438536644,-0.05319472774863243,-0.0023168795742094517
1700516695611105800,0.637105712890625,0.022765405476093292,0.04333527386188507,0.16401644051074982
1700516695621116700,0.64711669921875,-0.007652186788618565,-0.08061885088682175,-0.012292278930544853
1700516695631126500,0.65712646484375,-0.025455685332417488,0.027456479147076607,-0.1615041196346283
1700516695641136600,0.66713671875,-0.010148007422685623,-0.03478799760341644,-0.028072431683540344
1700516695651146800,0.677146728515625,0.016299046576023102,0.052624672651290894,0.015788495540618896
1700516695661156600,0.687156494140625,-0.005347608122974634,0.012139159254729748,0.19295738637447357
1700516695671166700,0.697166748046875,0.016689252108335495,0.00619711447507143,-0.10637872666120529
1700516695681177900,0.707177734375,-0.01830604113638401,0.04963240772485733,-0.15011191368103027
1700516695691188000,0.71718798828125,0.01967463083565235,0.00877365656197071,0.06995733827352524
1700516695701197800,0.72719775390625,0.007355149835348129,0.02185347117483616,0.15976685285568237
1700516695711208000,0.7372080078125,0.0077706025913357735,-0.044662971049547195,-0.11505912244319916
1700516695721217500,0.747217529296875,-0.024598585441708565,0.038128286600112915,-0.07763146609067917
1700516695731229000,0.75722900390625,0.005612313747406006,-0.03717818483710289,0.04680553451180458
1700516695741238800,0.76723876953125,0.00999473500996828,0.11675660312175751,0.07450737059116364
1700516695751249000,0.777248779296875,-0.014330311678349972,-0.059935614466667175,0.16245639324188232
1700516695761258800,0.7872587890625,0.007908746600151062,0.03252270072698593,-0.21969929337501526
1700516695771268900,0.797268798828125,-0.030329186469316483,-0.014445872977375984,-0.059165552258491516
1700516695781279000,0.807279052734375,0.03412312641739845,0.03407967835664749,0.13387790322303772
1700516695791289900,0.817289794921875,-0.001042051357217133,-0.009983121417462826,0.1020672470331192
1700516695801299700,0.8272998046875,-0.0021282373927533627,0.0012622247450053692,-0.18222983181476593
1700516695811309800,0.837309814453125,-0.019372470676898956,0.003918195143342018,-0.025991227477788925
1700516695821320000,0.84731982421875,0.0236281156539917,-0.013743837364017963,0.05374037101864815
1700516695831329800,0.857329833984375,0.025391127914190292,0.10130205750465393,0.13148736953735352
1700516695841340700,0.867340576171875,0.0017169457860291004,-0.07809928804636002,0.06553288549184799
1700516695851350800,0.877350830078125,0.015862325206398964,0.06245916336774826,-0.22456231713294983
1700516695861361000,0.88736083984375,-0.020908256992697716,-0.03642360121011734,0.023346317932009697
1700516695871370800,0.897370849609375,0.031148821115493774,0.06344520300626755,0.16748298704624176
1700516695881380900,0.907380859375,0.0016080866334959865,-0.037585388869047165,0.03893071413040161
1700516695891390700,0.917390625,-0.019597332924604416,0.030115894973278046,-0.19211475551128387
1700516695901401900,0.92740185546875,-0.009631265886127949,-0.02423885650932789,0.03370194882154465
1700516695911411700,0.93741162109375,0.03180432319641113,0.00604927446693182,0.05194220319390297
1700516695921421800,0.947421875,0.01655983366072178,0.04706348478794098,0.14602333307266235
1700516695931431700,0.957431640625,0.0036022227723151445,-0.07316864281892776,-0.01346565317362547
1700516695941441800,0.96744189453125,-0.004983452148735523,0.044314660131931305,-0.20688144862651825
1700516695951452700,0.97745263671875,-0.013819554820656776,-0.07596807926893234,0.05261218547821045
1700516695961462800,0.987462890625,0.016166510060429573,0.06178896874189377,0.15000832080841064
1700516695971472600,0.99747265625,0.000017100712284445763,-0.05679679661989212,-0.02200738526880741
1700516695981482800,1.007482666015625,-0.023883996531367302,0.017037145793437958,-0.17678268253803253
1700516695991492900,1.017492919921875,-0.001412509591318667,-0.022702811285853386,0.036538660526275635
1700516696001503700,1.027503662109375,0.03206474706530571,0.00568072684109211,0.04053562134504318
1700516696011513600,1.037513671875,0.014141137711703777,0.037119876593351364,0.17279298603534698
1700516696021523700,1.047523681640625,0.0026577673852443695,-0.07021438330411911,-0.05060713738203049
1700516696031533800,1.057533935546875,-0.0066662258468568325,0.06920689344406128,-0.21811704337596893
1700516696041543700,1.067543701171875,-0.01256578043103218,-0.05479845777153969,0.08513011783361435
1700516696051553800,1.0775537109375,0.02234133705496788,0.0781976729631424,0.14739163219928741
1700516696061564700,1.087564697265625,0.005643639247864485,-0.06576000899076462,-0.05381878837943077
1700516696071574800,1.09757470703125,-0.028753483667969704,0.042812805622816086,-0.15941259264945984
1700516696081584600,1.107584716796875,0.00465294299647212,-0.05318935588002205,0.05243680998682976
1700516696091594800,1.1175947265625,0.026278609409928322,0.04051263630390167,0.06344684958457947
1700516696101604600,1.1276044921875,0.007996439933776855,0.013604868203401566,0.19801779091358185
1700516696111615700,1.13761572265625,-0.002264718757942319,-0.027547094970941544,-0.09116368740797043
1700516696121625600,1.14762548828125,-0.012720857746899128,0.040545448660850525,-0.16855919361114502
1700516696131635700,1.1576357421875,0.0017795220483094454,-0.045376650989055634,0.09078102558851242
1700516696141645600,1.1676455078125,0.00428537093102932,0.060272738337516785,0.14277955889701843
1700516696151655700,1.17765576171875,0.006782617419958115,-0.07722067832946777,-0.08260029554367065
1700516696161666600,1.18766650390625,-0.029473857954144478,0.02667033113539219,-0.14131033420562744
1700516696171676700,1.1976767578125,0.0006595434388145804,-0.06890785694122314,0.059061113744974136
1700516696181686500,1.2076865234375,-0.0002840609522536397,0.05080286040902138,0.06635523587465286
1700516696191696600,1.217696533203125,-0.00411634985357523,0.005407951772212982,0.2014014720916748
1700516696201706800,1.227706787109375,-0.003555465955287218,-0.020534107461571693,-0.12814806401729584
1700516696211718000,1.2377177734375,-0.0280940979719162,0.02245384082198143,-0.15028558671474457
1700516696221727700,1.247727783203125,-0.004806294105947018,-0.04836480692028999,0.10012204945087433
1700516696231737900,1.25773779296875,-0.0011018371442332864,0.03258517012000084,0.12351871281862259
1700516696241748000,1.267748046875,-0.004096545744687319,-0.07459411025047302,-0.1263657659292221
1700516696251757800,1.2777578125,-0.028356878086924553,0.024503709748387337,-0.1242016851902008
1700516696261768700,1.287768798828125,0.00023050932213664055,-0.05968175828456879,0.05356333404779434
1700516696271778800,1.29777880859375,-0.0158856101334095,0.07214231789112091,0.06390944123268127
1700516696281789000,1.307788818359375,-0.047403305768966675,0.025132788345217705,0.2030016928911209
1700516696291798800,1.317798828125,-0.03370507061481476,-0.0018873773515224457,-0.16337630152702332
1700516696301809000,1.327808837890625,-0.08281729370355606,0.09252618253231049,-0.14814876019954681
1700516696311819800,1.33781982421875,-0.04087143763899803,-0.031365133821964264,0.09865249693393707
1700516696321830000,1.347829833984375,0.01259866077452898,0.06320811808109283,0.12540239095687866
1700516696331839700,1.35783984375,-0.03679126128554344,-0.07941507548093796,-0.10368990898132324
1700516696341849900,1.367849853515625,-0.11134560406208038,0.07928761094808578,-0.10147606581449509
1700516696351859700,1.377859619140625,-0.023259155452251434,-0.07056207209825516,-0.005294669419527054
1700516696361870800,1.387870849609375,-0.005276409909129143,0.09751711040735245,0.0768568366765976
1700516696371880700,1.397880615234375,-0.013133001513779163,-0.08862053602933884,0.20947986841201782
1700516696381890800,1.407890869140625,-0.0038695945404469967,-0.008935879915952682,-0.1827116310596466
1700516696391900700,1.417900634765625,-0.05690484866499901,0.02068060263991356,-0.1500823199748993
1700516696401911800,1.427911865234375,0.0005274006398394704,-0.06554707139730453,0.060170091688632965
1700516696411921700,1.437921630859375,-0.00626286119222641,-0.07251656800508499,0.11190811544656754
1700516696421931800,1.447931884765625,0.03348936513066292,-0.0952647477388382,-0.09772983193397522
1700516696431941600,1.457941650390625,-0.034835897386074066,-0.01113815139979124,-0.08199561387300491
1700516696441951700,1.46795166015625,-0.008937805891036987,-0.11667676270008087,-0.05649750307202339
1700516696451962000,1.477962158203125,-0.011870745569467545,0.01287297997623682,0.024833573028445244
1700516696461972200,1.48797216796875,0.005615570582449436,-0.15444384515285492,0.24833643436431885
1700516696471982300,1.497982421875,0.006993223913013935,-0.058428362011909485,-0.1619458943605423
1700516696481992000,1.507991943359375,-0.02977650798857212,-0.00553878303617239,-0.12216173112392426
1700516696492002000,1.518001953125,0.003790239803493023,-0.08452441543340683,0.04082079604268074
1700516696502013200,1.52801318359375,-0.013915087096393108,-0.05818946287035942,0.05589915066957474
1700516696512023300,1.538023193359375,0.024582505226135254,-0.12552456557750702,-0.07786183804273605
1700516696522033200,1.548033203125,-0.01599930040538311,-0.03573806583881378,-0.04206229746341705
1700516696532043300,1.558043212890625,0.012210232205688953,-0.07966398447751999,-0.04973912239074707
1700516696542054100,1.56805419921875,0.027554882690310478,-0.015488595701754093,0.15009672939777374
1700516696552064300,1.578064208984375,-0.004024880938231945,-0.13921800255775452,0.14620904624462128
1700516696562074000,1.58807421875,0.00934416800737381,-0.017081866040825844,-0.1763012707233429
1700516696572084200,1.598084228515625,-0.02494536153972149,-0.026616781949996948,-0.06592230498790741
1700516696582094000,1.608093994140625,0.010159114375710487,0.03871019557118416,0.15221448242664337
1700516696592105200,1.618105224609375,0.011664067395031452,0.005059023853391409,0.10587413609027863
1700516696602115000,1.628114990234375,0.02120269276201725,0.04502145200967789,-0.042726438492536545
1700516696612125200,1.638125244140625,-0.010673215612769127,0.09707719832658768,-0.007140215951949358
1700516696622135000,1.648135009765625,0.015866268426179886,0.05259937793016434,0.04867396131157875
1700516696632146200,1.658146240234375,0.015186363831162453,0.11159319430589676,0.29764223098754883
1700516696642156000,1.668156005859375,0.019388675689697266,-0.000517058651894331,0.020503636449575424
1700516696652166100,1.678166259765625,-0.013848640024662018,0.1028551310300827,-0.20510819554328918
1700516696662176300,1.68817626953125,-0.010446066036820412,0.006947188172489405,0.026447843760252
1700516696672186000,1.69818603515625,0.007354769390076399,0.09046125411987305,0.19189006090164185
1700516696682197000,1.708197021484375,0.0074585131369531155,-0.031665872782468796,-0.0184134803712368
1700516696692207000,1.71820703125,-0.004295081831514835,0.07366827875375748,-0.14947722852230072
1700516696702217200,1.72821728515625,-0.006891593337059021,-0.011352316476404667,0.00048339273780584335
1700516696712227000,1.73822705078125,0.0035067189019173384,0.06122814118862152,0.02955472469329834
1700516696722238000,1.748238037109375,-0.005668550729751587,-0.0022217808291316032,0.2251616269350052
1700516696732248000,1.758248046875,0.016235416755080223,0.012771283276379108,-0.15668480098247528
1700516696742258200,1.768258056640625,-0.023177165538072586,0.04849468544125557,-0.16750268638134003
1700516696752268000,1.77826806640625,0.019725559279322624,0.00701408926397562,0.06695907562971115
1700516696762279000,1.78827880859375,0.005381620954722166,0.034826114773750305,0.11620031297206879
1700516696772289000,1.7982890625,0.036386940628290176,-0.007447306998074055,-0.17702730000019073
1700516696782299100,1.808299072265625,-0.031963322311639786,0.043873947113752365,-0.0936695858836174
1700516696792309000,1.81830908203125,0.0181986503303051,-0.004952712450176477,0.03095329739153385
1700516696802319000,1.828319091796875,0.029063178226351738,0.12587551772594452,0.06916575133800507
1700516696812330000,1.838330078125,0.019701367244124413,-0.06074337288737297,0.17117786407470703
1700516696822340000,1.848340087890625,0.008123742416501045,0.05194171518087387,-0.18433138728141785
1700516696832350000,1.858349853515625,-0.020444251596927643,0.004377924837172031,-0.04144826903939247
1700516696842360000,1.868360107421875,0.026635881513357162,0.005625124555081129,0.1345088630914688
1700516696852371200,1.87837109375,-0.005323116667568684,-0.007966850884258747,0.06349381059408188
1700516696862381300,1.88838134765625,0.00574645446613431,-0.040819019079208374,-0.1858006715774536
1700516696872391200,1.89839111328125,-0.017271779477596283,-0.005652507767081261,-0.06464069336652756
1700516696882401300,1.9084013671875,0.029869824647903442,-0.07890204340219498,-0.019516631960868835
1700516696892412200,1.918412109375,0.027949418872594833,0.055367086082696915,0.1169421449303627
1700516696902422300,1.92842236328125,0.024369332939386368,-0.09270019829273224,-0.006503486540168524
1700516696912432000,1.93843212890625,0.003990823868662119,-0.03121100552380085,-0.2910816967487335
1700516696922442200,1.948442138671875,-0.007431716192513704,-0.03818799555301666,-0.07270589470863342
1700516696932453000,1.958453125,0.028429878875613213,0.020765867084264755,0.1308181881904602
1700516696942463200,1.968463134765625,0.01866382360458374,-0.013578888960182667,-0.02414989471435547
1700516696952473000,1.97847314453125,-0.005773608107119799,-0.03747197240591049,-0.19520419836044312
1700516696962483200,1.988483154296875,-0.00772478524595499,-0.028208542615175247,-0.04355943202972412
1700516696972494000,1.998494140625,0.02583370730280876,-0.017654968425631523,0.02913261204957962
1700516696982504200,2.008504150390625,-0.00227518193423748,0.03576409071683884,0.23900802433490753
1700516696992514000,2.01851416015625,0.012515216134488583,-0.09123194217681885,-0.019746556878089905
1700516697002524200,2.028524169921875,-0.010219731368124485,0.016367726027965546,-0.20301799476146698
1700516697012535000,2.03853515625,-0.00561645720154047,0.003566976170986891,0.0051373387686908245
1700516697022545200,2.048545166015625,0.013694536872208118,0.020280232653021812,0.18131773173809052
1700516697032555000,2.058554931640625,-0.004192584194242954,-0.08035716414451599,-0.019501397386193275
1700516697042565000,2.068565185546875,-0.023048248142004013,0.023307042196393013,-0.1076214388012886
1700516697052576000,2.078575927734375,0.005117342341691256,-0.06398898363113403,-0.02659849263727665
1700516697062586000,2.088586181640625,0.006472868844866753,0.07190844416618347,0.025716332718729973
1700516697072596000,2.098595947265625,-0.01324943732470274,-0.05552248656749725,0.23298537731170654
1700516697082606000,2.108606201171875,-0.007842683233320713,-0.019738178700208664,-0.13809747993946075
1700516697092617000,2.118616943359375,-0.023530565202236176,-0.0068585979752242565,-0.12449964880943298
1700516697102627000,2.128626953125,0.017750881612300873,0.012680552899837494,0.08597645908594131
1700516697112637000,2.138636962890625,-0.007061523385345936,0.006782982498407364,0.16086535155773163
1700516697122648300,2.1486484375,0.000281647895462811,-0.03650912642478943,-0.11629760265350342
1700516697132658200,2.158658203125,-0.019404971972107887,0.0239036176353693,-0.03620090335607529
1700516697142668000,2.16866796875,0.016291363164782524,-0.0034591432195156813,0.01623551733791828
1700516697152678000,2.178677978515625,0.017937196418642998,0.10522046685218811,0.15200692415237427
1700516697162689300,2.188689208984375,0.000879736733622849,-0.0823359340429306,0.14866936206817627
1700516697172699100,2.19869921875,0.0018595136934891343,0.08289829641580582,-0.2043648511171341
1700516697182709200,2.208709228515625,-0.01643292047083378,0.006219723727554083,-0.014751211740076542
1700516697192719000,2.218718994140625,0.0351322703063488,0.10219072550535202,0.1838042289018631
1700516697202730200,2.228730224609375,0.002574149053543806,0.002039934042841196,0.07652228325605392
1700516697212740000,2.238739990234375,-0.002596111735329032,0.07743988931179047,-0.13834181427955627
1700516697222750200,2.248750244140625,0.010912872850894928,0.0014738739700987935,0.021366411820054054
1700516697232760000,2.258760009765625,0.02092236466705799,0.03834986686706543,0.022148316726088524
1700516697242771200,2.268771240234375,0.011477063409984112,0.08605656772851944,0.23702174425125122
1700516697252781000,2.278781005859375,0.040601395070552826,-0.021675219759345055,-0.009447419084608555
1700516697262791200,2.288791259765625,-0.009441282600164413,0.0676792711019516,-0.13678516447544098
1700516697272802000,2.298802001953125,0.016363151371479034,-0.0067656678147614,0.06552853435277939
1700516697282812200,2.308812255859375,0.022358890622854233,0.05394609272480011,0.18538254499435425
1700516697292822000,2.318822021484375,0.024189282208681107,-0.05839269608259201,-0.023097950965166092
1700516697302832000,2.32883203125,-0.01103183999657631,0.05118390545248985,-0.08036766946315765
1700516697312843000,2.338843017578125,0.003380122361704707,-0.08140210062265396,0.045911166816949844
1700516697322853000,2.34885302734375,0.0038612266071140766,0.0956614539027214,0.058845341205596924
1700516697332863000,2.358863037109375,-0.02568281814455986,-0.09560783952474594,0.2229764759540558
1700516697342874000,2.3688740234375,-0.003721089567989111,-0.014164276421070099,-0.15446500480175018
1700516697352884000,2.378884033203125,-0.022484125569462776,-0.019255442544817924,-0.0993327647447586
1700516697362894000,2.38889404296875,0.028199920430779457,-0.026821495965123177,0.11091892421245575
1700516697372904000,2.398904052734375,0.00324343703687191,-0.0155925452709198,0.11312562227249146
1700516697382915000,2.4089150390625,-0.009850519709289074,-0.04805700108408928,-0.13209408521652222
1700516697392925000,2.418925048828125,-0.013112892396748066,0.02596583031117916,-0.064387746155262
1700516697402935000,2.42893505859375,-0.008791922591626644,-0.07633073627948761,0.022183306515216827
1700516697412946200,2.4389462890625,0.031180793419480324,0.09234616160392761,0.09926371276378632
1700516697422956300,2.448956298828125,-0.02554416097700596,-0.14105279743671417,0.08184473216533661
1700516697432966100,2.458966064453125,0.004910151474177837,0.044436633586883545,-0.24076420068740845
1700516697442976300,2.468976318359375,-0.022965453565120697,-0.06479921191930771,-0.03525384142994881
1700516697452987400,2.4789873046875,0.02135860174894333,0.026743488386273384,0.1271587759256363
1700516697462997500,2.48899755859375,-0.010520344600081444,-0.06463509798049927,0.05434051901102066
1700516697473007400,2.49900732421875,-0.008203927427530289,0.006201252806931734,-0.22262690961360931
1700516697483018800,2.509018798828125,-0.015920374542474747,-0.03452906012535095,-0.05121375620365143
1700516697493028600,2.519028564453125,0.021957499906420708,-0.03387072682380676,0.03693101555109024
1700516697503038700,2.529038818359375,0.03347736597061157,0.07846350967884064,0.14805223047733307
1700516697513049600,2.539049560546875,-0.0035048865247517824,-0.11344867199659348,-0.03008287027478218
1700516697523059700,2.549059814453125,0.0049016475677490234,0.03737812489271164,-0.27212533354759216
1700516697533069600,2.559069580078125,-0.014653410762548447,-0.05263778567314148,-0.002464558929204941
1700516697543079700,2.56907958984375,0.020888105034828186,0.05944178253412247,0.14302624762058258
1700516697553090600,2.579090576171875,-0.010443986393511295,-0.0728619322180748,-0.006939813029021025
1700516697563100700,2.5891005859375,-0.001707565737888217,0.02064269408583641,-0.2536293566226959
1700516697573110500,2.599110595703125,-0.007725510746240616,-0.03243597224354744,-0.050229378044605255
1700516697583121700,2.60912158203125,0.028674181550741196,-0.013605179265141487,0.01823664829134941
1700516697593131500,2.619131591796875,0.03807806968688965,0.04810691997408867,0.17231251299381256
1700516697603141600,2.6291416015625,0.007963310927152634,-0.10595615208148956,-0.04748138040304184
1700516697613152500,2.639152587890625,0.014823353849351406,0.048779621720314026,-0.2763091027736664
1700516697623162600,2.64916259765625,-0.01613681949675083,-0.06380113959312439,-0.04302911087870598
1700516697633172500,2.65917236328125,0.020849160850048065,0.06702638417482376,0.15865500271320343
1700516697643183400,2.669183349609375,-0.00011598528362810612,-0.08001809567213058,0.014138732105493546
1700516697653193500,2.679193359375,-0.0020843276288360357,0.008583408780395985,-0.1907917708158493
1700516697663203600,2.68920361328125,0.0009894174290820956,-0.025362348183989525,-0.03780413419008255
1700516697673214500,2.69921435546875,0.03526988998055458,-0.00996182020753622,0.013858792372047901
1700516697683224300,2.709224365234375,0.015488634817302227,0.04414167255163193,0.21318349242210388
1700516697693234400,2.719234375,-0.00048207619693130255,-0.08838760852813721,0.010714543983340263
1700516697703244500,2.72924462890625,0.004907907452434301,0.04893185570836067,-0.2044384628534317
1700516697713255700,2.739255615234375,-0.008376206271350384,-0.03833833336830139,-0.010322525165975094
1700516697723265500,2.749265625,0.009791451506316662,0.05800066515803337,0.17719459533691406
1700516697733275600,2.759275634765625,0.004128771834075451,-0.08220011740922928,0.037683311849832535
1700516697743286500,2.76928662109375,-0.01448474545031786,0.03496158868074417,-0.13760507106781006
1700516697753296600,2.779296630859375,-0.0065165674313902855,-0.05676034092903137,-0.01728958450257778
1700516697763306500,2.789306396484375,0.02530386671423912,0.02650495618581772,0.04938649386167526
1700516697773317600,2.799317626953125,0.0075781322084367275,0.022110741585493088,0.25936341285705566
1700516697783327500,2.809327392578125,-0.005483618006110191,-0.05620476230978966,-0.03683916851878166
1700516697793337600,2.819337646484375,-0.002592490054666996,0.03541703149676323,-0.21648217737674713
1700516697803348500,2.829348388671875,-0.024140197783708572,-0.05568259209394455,0.026000402867794037
1700516697813358600,2.839358642578125,0.006669113878160715,0.04708346724510193,0.1862550526857376
1700516697823368400,2.849368408203125,-0.0029373597353696823,-0.0845562145113945,-0.0017018811777234077
1700516697833379600,2.859379638671875,-0.022464189678430557,0.028261680155992508,-0.14616292715072632
1700516697843389400,2.869389404296875,-0.004300400149077177,-0.041904330253601074,-0.018895473331212997
1700516697853399600,2.879399658203125,0.009600235149264336,0.018789106979966164,0.07239449769258499
1700516697863410400,2.889410400390625,-0.002013774821534753,0.02634892612695694,0.2548590302467346
1700516697873420500,2.899420654296875,-0.01380918174982071,-0.05657525360584259,-0.06027521565556526
1700516697883430400,2.909430419921875,-0.004997085779905319,0.03755487501621246,-0.21459516882896423
1700516697893441500,2.919441650390625,-0.017311010509729385,-0.0409708246588707,0.04356261342763901
1700516697903451400,2.929451416015625,0.003446603659540415,0.04469172656536102,0.17123018205165863
1700516697913461500,2.93946142578125,-0.011428749188780785,-0.09419558197259903,-0.04721267893910408
1700516697923472600,2.94947265625,-0.019024387001991272,0.03625599667429924,-0.16262173652648926
1700516697933482800,2.959482666015625,-0.0008283392526209354,-0.0804959163069725,-0.026295334100723267
1700516697943492600,2.96949267578125,0.000518258661031723,0.04313868284225464,0.0551406666636467
1700516697953503500,2.97950341796875,-0.014367746189236641,-0.005984120070934296,0.2186204046010971
1700516697963513600,2.989513671875,-0.010866488330066204,-0.0339939184486866,-0.10178370773792267
1700516697973523700,2.999523681640625,-0.012357858940958977,0.03472762182354927,-0.19623963534832
1700516697983534600,3.00953466796875,-0.005051872227340937,-0.0190899558365345,0.03208370506763458
1700516697993544700,3.019544677734375,0.004822862800210714,0.05413632094860077,0.16000650823116302
1700516698003554600,3.029554443359375,-0.010136736556887627,-0.07137125730514526,-0.07902036607265472
1700516698013565400,3.0395654296875,-0.008613674901425838,0.04671197384595871,-0.15420833230018616
1700516698023575600,3.049575439453125,0.004076470620930195,-0.06047629192471504,-0.026595665141940117
1700516698033586400,3.05958642578125,0.007422732654958963,0.09211671352386475,0.034671422094106674
1700516698043596500,3.069596435546875,-0.008956369943916798,-0.009124841541051865,0.2206936478614807
1700516698053606400,3.0796064453125,-0.011128710582852364,-0.0004240283742547035,-0.1600816696882248
1700516698063617500,3.089617431640625,0.007723167538642883,0.018415803089737892,-0.2121288925409317
1700516698073627400,3.09962744140625,0.0022493060678243637,-0.014035346917808056,0.01937277615070343
1700516698083637500,3.109637451171875,0.014783102087676525,0.04476095736026764,0.13679447770118713
1700516698093648400,3.1196484375,-0.007485451176762581,-0.06025893613696098,-0.13112911581993103
1700516698103658500,3.129658447265625,-0.011351769790053368,0.020237280055880547,-0.13279782235622406
1700516698113668400,3.13966845703125,0.008644042536616325,-0.03423474729061127,-0.027938509359955788
1700516698123679700,3.1496796875,0.016245847567915916,0.10452346503734589,0.08716528862714767
1700516698133689600,3.159689697265625,-0.015723804011940956,-0.03717241436243057,0.22458839416503906
1700516698143699700,3.16969970703125,-0.0033585880883038044,0.021146956831216812,-0.17017120122909546
1700516698153710600,3.179710693359375,-0.005285651423037052,-0.006167754530906677,-0.14524002373218536
1700516698163720700,3.189720703125,0.014114915393292904,0.01954827643930912,0.06553573906421661
1700516698173731600,3.199731689453125,0.003105141455307603,0.01900392770767212,0.16095015406608582
1700516698183741700,3.20974169921875,-0.0020907423458993435,-0.025491943582892418,-0.10923796892166138
1700516698193751600,3.21975146484375,-0.010704470798373222,0.0008259451715275645,-0.08802216500043869
1700516698203762400,3.229762451171875,0.006087202578783035,-0.005338193848729134,-0.017837144434452057
1700516698213772500,3.2397724609375,0.02820688672363758,0.11358553171157837,0.11131684482097626
1700516698223782700,3.24978271484375,-0.014332820661365986,-0.0849962830543518,0.1889483779668808
1700516698233793500,3.25979345703125,0.009353866800665855,0.03254659101366997,-0.21202515065670013
1700516698243803400,3.269803466796875,-0.009891290217638016,-0.02859877608716488,-0.12329653650522232
1700516698253814500,3.279814453125,0.025057904422283173,0.03395328298211098,0.08455359190702438
1700516698263824400,3.289824462890625,-0.004698253236711025,-0.003181762993335724,0.1463114321231842
1700516698273834500,3.29983447265625,-0.0025562725495547056,-0.0032350262627005577,-0.10242807865142822
1700516698283845400,3.309845458984375,-0.01546755526214838,-0.020759567618370056,-0.051707230508327484
1700516698293855500,3.31985546875,0.023215392604470253,-0.003624523524194956,-0.01311643049120903
1700516698303866600,3.32986669921875,0.026601342484354973,0.08444666117429733,0.18608036637306213
1700516698313876700,3.339876708984375,-0.013866456225514412,-0.1140802726149559,0.13473914563655853
1700516698323886600,3.349886474609375,0.008792863227427006,0.07259384542703629,-0.21109619736671448
1700516698333897500,3.3598974609375,-0.02353445068001747,-0.05409406125545502,-0.05566347390413284
1700516698343907600,3.369907470703125,0.027355235069990158,0.06219374015927315,0.15093277394771576
1700516698353917700,3.379917724609375,-0.002364311832934618,-0.09469441324472427,0.08503950387239456
1700516698363928600,3.389928466796875,-0.011762917973101139,0.0060720182955265045,-0.13659483194351196
1700516698373938700,3.399938720703125,-0.00597799988463521,-0.058848123997449875,-0.04508969560265541
1700516698383949600,3.409949462890625,0.011645644903182983,-0.004893533419817686,0.02731666900217533
1700516698393959400,3.41995947265625,-0.008883332833647728,0.012500636279582977,0.24692997336387634
1700516698403969500,3.429969482421875,-0.004834130872040987,-0.07783283293247223,0.0007890360429883003
1700516698413980400,3.43998046875,-0.006297538056969643,0.017857471480965614,-0.19956561923027039
1700516698423990500,3.449990478515625,-0.0075645437464118,-0.03405449166893959,0.005053855944424868
1700516698434001400,3.46000146484375,0.006582700647413731,0.05053362995386124,0.19033770263195038
1700516698444011500,3.470011474609375,-0.003754087258130312,-0.09587506204843521,-0.006654918659478426
1700516698454022000,3.48002197265625,-0.009519564919173717,0.02411472424864769,-0.13895303010940552
1700516698464032800,3.49003271484375,0.0032733669504523277,-0.04991040751338005,-0.02135397493839264
1700516698474043000,3.50004296875,0.007762124761939049,0.06275968253612518,0.06531541049480438
1700516698484054000,3.510053955078125,-0.015503739938139915,-0.01694057323038578,0.24057608842849731
1700516698494064000,3.520064208984375,-0.0061983889900147915,-0.002296915277838707,-0.12681415677070618
1700516698504074000,3.530073974609375,-0.012720562517642975,0.015290161594748497,-0.16147442162036896
1700516698514085000,3.540085205078125,0.016092443838715553,0.026585426181554794,0.0662921741604805
1700516698524095000,3.550094970703125,-0.0024193674325942993,0.02012675441801548,0.18058481812477112
1700516698534106000,3.560106201171875,-0.006521967239677906,-0.0328320637345314,-0.10929948091506958
1700516698544116000,3.570115966796875,-0.02100822888314724,0.026715600863099098,-0.08546409755945206
1700516698554126000,3.5801259765625,0.0049448078498244286,-0.0018015269888564944,0.02244958095252514
1700516698564137000,3.590136962890625,0.02136767841875553,0.13433757424354553,0.11470813304185867
1700516698574147000,3.60014697265625,-0.014799115248024464,-0.0748627781867981,0.1705743372440338
1700516698584158000,3.610157958984375,0.002445342019200325,0.03752591833472252,-0.20595848560333252
1700516698594168000,3.62016796875,-0.016150446608662605,-0.013273878954350948,-0.08895064145326614
1700516698604178000,3.630177978515625,0.026819832623004913,0.057354800403118134,0.1150728389620781
1700516698614188800,3.640188720703125,-0.0039894781075417995,-0.027596572414040565,0.12351132929325104
1700516698624199000,3.650198974609375,0.0007573831826448441,0.001959701534360647,-0.18999215960502625
1700516698634210000,3.6602099609375,-0.01761390082538128,-0.022882530465722084,-0.055454324930906296
1700516698644220200,3.67022021484375,0.015560165047645569,0.008273370563983917,0.022722391411662102
1700516698654230000,3.68022998046875,0.028968648985028267,0.09807196259498596,0.12541627883911133
1700516698664241200,3.6902412109375,-0.007932555861771107,-0.10342277586460114,0.05999081954360008
1700516698674251000,3.7002509765625,0.0013024877989664674,0.05021338909864426,-0.2585192620754242
1700516698684262100,3.71026220703125,-0.023361578583717346,-0.04800417646765709,-0.019107546657323837
1700516698694272000,3.72027197265625,0.022367559373378754,0.07039729505777359,0.15185701847076416
1700516698704283000,3.730282958984375,-0.008937987498939037,-0.07641401141881943,0.04405662417411804
1700516698714293000,3.74029296875,-0.011525514535605907,0.019304528832435608,-0.21850921213626862
1700516698724303000,3.75030322265625,-0.004902588669210672,-0.04728970304131508,-0.011310908943414688
1700516698734314000,3.76031396484375,0.02864844724535942,0.005979110486805439,0.05034846067428589
1700516698744324000,3.770323974609375,0.018655335530638695,0.04047434777021408,0.19049958884716034
1700516698754335000,3.7803349609375,-0.004926424007862806,-0.08458077162504196,-0.018181178718805313
1700516698764344800,3.7903447265625,0.001771471812389791,0.04028577730059624,-0.22777290642261505
1700516698774356000,3.80035595703125,-0.013397361151874065,-0.04377983137965202,0.02205369621515274
1700516698784365800,3.81036572265625,0.016521167010068893,0.08028578013181686,0.18944904208183289
1700516698794376000,3.8203759765625,-0.006083210930228233,-0.08522381633520126,0.00980018824338913
1700516698804387000,3.830386962890625,-0.011219157837331295,0.044112320989370346,-0.179641455411911
1700516698814397200,3.840397216796875,0.007414448074996471,-0.054636627435684204,0.003100915579125285
1700516698824408000,3.850407958984375,0.01866181567311287,0.04018207639455795,0.0689295083284378
1700516698834418200,3.860418212890625,-0.0017909936141222715,0.008042784407734871,0.23050536215305328
1700516698844429000,3.870428955078125,0.00045951432548463345,-0.041191909462213516,-0.0876278504729271
1700516698854439000,3.88043896484375,-0.007359792944043875,0.029201827943325043,-0.209115669131279
1700516698864449000,3.890448974609375,0.003417755477130413,-0.014838029630482197,0.056861113756895065
1700516698874460000,3.9004599609375,0.009703348390758038,0.048752132803201675,0.1847223937511444
1700516698884470000,3.910469970703125,-0.011255466379225254,-0.06666428595781326,-0.07928678393363953
1700516698894481000,3.92048095703125,-0.01430531870573759,0.03446366265416145,-0.13709735870361328
1700516698904491000,3.930490966796875,0.007852988317608833,-0.057269565761089325,0.02061939798295498
1700516698914502000,3.940501953125,0.007968037389218807,0.09343045949935913,0.08617550134658813
1700516698924512000,3.950511962890625,-0.012025561183691025,-0.04332427680492401,0.23122379183769226
1700516698934523100,3.960523193359375,-0.005048611667007208,0.005042188335210085,-0.1796012967824936
1700516698944533000,3.970532958984375,-0.006997554562985897,0.004550746642053127,-0.1430044174194336
1700516698954544000,3.980544189453125,0.014384432695806026,0.01848467066884041,0.09754320979118347
1700516698964554000,3.990553955078125,-0.006778865586966276,0.0023010345175862312,0.15314945578575134
1700516698974564000,4.000564208984375,-0.011493725702166557,-0.053420282900333405,-0.13565172255039215
1700516698984575000,4.010574951171875,-0.01892385631799698,0.008558918721973896,-0.07668861746788025
1700516698994585000,4.020585205078125,-0.0002353905001655221,-0.020001620054244995,0.0372890830039978
1700516699004596000,4.030595947265625,0.021280521526932716,0.10629402101039886,0.12460999935865402
1700516699014606000,4.040606201171875,-0.020187560468912125,-0.08999559283256531,0.15169595181941986
1700516699024617000,4.050616943359375,0.004596780985593796,0.04222964122891426,-0.22267656028270721
1700516699034627000,4.060626953125,-0.01847471483051777,-0.02221778780221939,-0.06591464579105377
1700516699044638000,4.070637939453125,0.028849048539996147,0.0650818943977356,0.13756988942623138
1700516699054647800,4.080647705078125,-0.007831733673810959,-0.03248301148414612,0.10135968774557114
1700516699064658000,4.090657958984375,0.0003855847753584385,0.004398993216454983,-0.1878238171339035
1700516699074668800,4.100668701171875,-0.015095902606844902,-0.03928909823298454,-0.030339909717440605
1700516699084679000,4.110678955078125,0.026795215904712677,0.006098699755966663,0.03307148814201355
1700516699094690000,4.12068994140625,0.023367727175354958,0.07034479826688766,0.17487122118473053
1700516699104700200,4.1307001953125,-0.006429488305002451,-0.08314589411020279,0.05125565454363823
1700516699114711000,4.1407109375,0.0067931064404547215,0.05657205358147621,-0.22306858003139496
1700516699124721200,4.15072119140625,-0.009591412730515003,-0.03519445285201073,-0.010120971128344536
1700516699134732000,4.16073193359375,0.022789962589740753,0.08355057239532471,0.1677214503288269
1700516699144742000,4.170741943359375,-0.00337457237765193,-0.06787636131048203,0.018781021237373352
1700516699154753000,4.1807529296875,-0.003617985639721155,0.04631758853793144,-0.18526504933834076
1700516699164763000,4.190762939453125,-0.0015697551425546408,-0.06104275956749916,0.0032064144033938646
1700516699174774000,4.20077392578125,0.022259943187236786,0.02903147228062153,0.05341978371143341
1700516699184784000,4.210783935546875,0.0005148114869371057,0.021699193865060806,0.21698598563671112
1700516699194795000,4.220794921875,0.001132132252678275,-0.04429793357849121,-0.05412939935922623
1700516699204804900,4.230804931640625,-0.006678661331534386,0.03335471451282501,-0.1878514140844345
1700516699214815000,4.24081494140625,0.00611409917473793,-0.029009060934185982,0.05431994050741196
1700516699224826000,4.250826171875,0.010181025601923466,0.05545905604958534,0.17769525945186615
1700516699234836200,4.260836181640625,-0.009102923795580864,-0.07834268361330032,-0.0589580275118351
1700516699244847000,4.27084716796875,-0.014546874910593033,0.04883679375052452,-0.1437741369009018
1700516699254857000,4.28085693359375,0.004179408308118582,-0.06692656129598618,0.034218497574329376
1700516699264868000,4.2908681640625,0.00832404661923647,0.07202990353107452,0.07900886237621307
1700516699274878000,4.3008779296875,-0.016580237075686455,-0.030787287279963493,0.20233266055583954
1700516699284889000,4.31088916015625,-0.0045285914093256,-0.010320501402020454,-0.15188990533351898
1700516699294899000,4.32089892578125,-0.013028070330619812,0.0055239759385585785,-0.14110463857650757
1700516699304909800,4.330909912109375,0.016120241954922676,0.0016726166941225529,0.08467428386211395
1700516699314920000,4.340919921875,-0.005147761665284634,0.006408782675862312,0.14844341576099396
1700516699324930800,4.350930908203125,-0.010526025667786598,-0.06696616858243942,-0.13758158683776855
1700516699334941000,4.36094091796875,-0.016333580017089844,0.02499384805560112,-0.10580714046955109
1700516699344952000,4.3709521484375,0.0003131855046376586,-0.04623670503497124,0.04805087298154831
1700516699354962200,4.380962158203125,0.007485078182071447,0.1072860136628151,0.09522690623998642
1700516699364973000,4.39097314453125,-0.018897701054811478,-0.07466325908899307,0.14728093147277832
1700516699374983200,4.400983154296875,-0.007412818726152182,0.0208430215716362,-0.20454581081867218
1700516699384994000,4.410994140625,-0.012962705455720425,-0.016019737347960472,-0.09095688164234161
1700516699395004200,4.421004150390625,0.021746806800365448,0.03758649900555611,0.10858924686908722
1700516699405015000,4.43101513671875,-0.00449787313118577,-0.02154197357594967,0.12718981504440308
1700516699415025000,4.44102490234375,-0.0036113066598773003,-0.025066133588552475,-0.18214407563209534
1700516699425036000,4.4510361328125,-0.017293989658355713,0.004212519153952599,-0.06822841614484787
1700516699435046000,4.4610458984375,0.0002964562736451626,-0.0189396720379591,0.05566396564245224
1700516699445057000,4.47105712890625,0.01734832301735878,0.10684409737586975,0.10165096819400787
1700516699455066400,4.48106640625,-0.01653454266488552,-0.10167022794485092,0.1266884207725525
1700516699465077500,4.491077392578125,-0.002772690262645483,0.04029803350567818,-0.2354498952627182
1700516699475087400,4.50108740234375,-0.006757577881217003,-0.023425282910466194,-0.049113575369119644
1700516699485098500,4.511098388671875,0.022422095760703087,0.05808699131011963,0.13240490853786469
1700516699495108600,4.521108642578125,-0.009312929585576057,-0.019989699125289917,0.09659656882286072
1700516699505119500,4.531119384765625,-0.0046384138986468315,-0.009830922819674015,-0.17494401335716248
1700516699515129600,4.541129638671875,-0.016500134021043777,-0.015560447238385677,-0.03644578903913498
1700516699525140500,4.551140380859375,0.00227857637219131,-0.012448372319340706,0.02909645438194275
1700516699535150600,4.561150634765625,0.027906175702810287,0.08201368153095245,0.12535454332828522
1700516699545161500,4.571161376953125,-0.025152787566184998,-0.1302243173122406,0.09231169521808624
1700516699555171600,4.581171630859375,-0.008079794235527515,0.040372997522354126,-0.24059808254241943
1700516699565182500,4.591182373046875,-0.011375166475772858,-0.04344773665070534,-0.058880165219306946
1700516699575192600,4.601192626953125,0.019016029313206673,0.05075439438223839,0.11198931187391281
1700516699585203500,4.611203369140625,-0.011656630784273148,-0.04528605192899704,0.07443401217460632
1700516699595213300,4.62121337890625,-0.007304493337869644,0.010628611780703068,-0.1647529900074005
1700516699605224700,4.631224609375,-0.007689983118325472,-0.028691215440630913,-0.04084879159927368
1700516699615234600,4.641234619140625,0.020821552723646164,0.004368201829493046,-0.0018332148902118206
1700516699625245700,4.65124560546875,0.02639104053378105,0.07439212501049042,0.17618535459041595
1700516699635255600,4.661255615234375,-0.024273734539747238,-0.1600632518529892,0.07608405500650406
1700516699645266400,4.671266357421875,0.021000033244490623,0.06735238432884216,-0.23238368332386017
1700516699655276500,4.681276611328125,-0.015893002972006798,-0.05408349633216858,-0.05672744661569595
1700516699665287400,4.691287353515625,-0.0016343079041689634,0.07873432338237762,0.11539867520332336
1700516699675297500,4.701297607421875,-0.011700257658958435,-0.06151226907968521,0.05532415211200714
1700516699685308400,4.711308349609375,0.014256086200475693,0.025063753128051758,-0.11711235344409943
1700516699695318500,4.721318603515625,-0.007773050107061863,-0.05192903056740761,-0.0374915637075901
1700516699705329400,4.731329345703125,-0.0008907414739951491,0.05414408817887306,-0.05172091722488403
1700516699715339500,4.741339599609375,0.0012565653305500746,0.035495832562446594,0.1956758350133896
1700516699725350700,4.7513505859375,-0.00723385252058506,-0.13412486016750336,0.07132425904273987
1700516699735361500,4.761361572265625,0.026983773335814476,0.05542376637458801,-0.20708926022052765
1700516699745371600,4.77137158203125,-0.027011588215827942,-0.022423455491662025,-0.08118380606174469
1700516699755382500,4.781382568359375,-0.004733181558549404,0.03530988097190857,0.08511915057897568
1700516699765392600,4.791392578125,0.009767879731953144,-0.061726443469524384,0.02938423864543438
1700516699775403500,4.801403564453125,0.019655397161841393,0.007688848301768303,-0.04828925058245659
1700516699785413400,4.811413330078125,0.0011977215763181448,-0.042918749153614044,-0.01936548575758934
1700516699795424500,4.821424560546875,-0.0033906386233866215,0.05128098651766777,-0.026434045284986496
1700516699805434400,4.831434326171875,-0.02796022593975067,0.007878961972892284,0.22780749201774597
1700516699815445500,4.841445556640625,0.002342020161449909,-0.035948678851127625,0.009462902322411537
1700516699825455400,4.851455322265625,-0.001450599986128509,0.031269799917936325,-0.1492966264486313
1700516699835466500,4.861466552734375,0.009195919148623943,-0.02503501996397972,-0.017633939161896706
1700516699845476400,4.871476318359375,-0.018414625898003578,0.06275621056556702,0.11761732399463654
1700516699855487500,4.881487548828125,0.0047612665221095085,-0.07080078125,0.003996484912931919
1700516699865497600,4.89149755859375,0.0005477927625179291,0.04048474133014679,-0.07675474882125854
1700516699875508500,4.901508544921875,-0.008366073481738567,-0.03864150121808052,-0.04425353184342384
1700516699885518600,4.9115185546875,0.039442725479602814,0.11317039281129837,0.0580613873898983
1700516699895529500,4.921529541015625,-0.0325947143137455,-0.10101300477981567,0.21493861079216003
1700516699905540400,4.931540283203125,0.007986869663000107,0.01768060401082039,-0.1531379520893097
1700516699915550500,4.941550537109375,-0.016216471791267395,-0.01147488597780466,-0.11283419281244278
1700516699925561300,4.951561279296875,0.028034742921590805,0.05813520401716232,0.07165805250406265
1700516699935571500,4.961571533203125,-0.010786422528326511,-0.016963539645075798,0.15223652124404907
1700516699945582300,4.971582275390625,0.008694321848452091,-0.013206145726144314,-0.09154007583856583
1700516699955592400,4.981592529296875,-0.024586137384176254,-0.017316734418272972,-0.09055204689502716
1700516699965603600,4.991603515625,0.022777317091822624,-0.01303321123123169,-0.019293686375021935
1700516699975613700,5.00161376953125,0.03657755255699158,0.12305911630392075,0.20891150832176208
1700516699985624600,5.01162451171875,-0.010583749040961266,-0.09897848963737488,0.10288967937231064
1700516699995634400,5.021634521484375,0.017594892531633377,0.07644153386354446,-0.20541462302207947
1700516700005645600,5.0316455078125,-0.024204708635807037,-0.02687140926718712,-0.039537809789180756
1700516700015656400,5.041656494140625,0.021829361096024513,0.08937849849462509,0.18125422298908234
1700516700025666600,5.05166650390625,0.006545839365571737,-0.05287076532840729,0.09603799879550934
1700516700035677400,5.061677490234375,0.008540813811123371,0.03328116238117218,-0.14728675782680511
1700516700045687600,5.0716875,-0.003071590792387724,-0.05256757140159607,-0.04425017163157463
1700516700055698400,5.081698486328125,0.009157910943031311,0.05935923010110855,0.037137098610401154
1700516700065708300,5.091708251953125,-0.0038826903328299522,-0.014143436215817928,0.2684750556945801
1700516700075719700,5.1017197265625,0.0003458770224824548,-0.05077734589576721,-0.03767554834485054
1700516700085729500,5.1117294921875,-0.010865554213523865,0.029930097982287407,-0.20399965345859528
1700516700095740700,5.12174072265625,0.010389134287834167,-0.037542685866355896,0.03739938884973526
1700516700105751600,5.13175146484375,-0.01655440591275692,0.00013098784256726503,0.17533110082149506
1700516700115761400,5.141761474609375,0.005059275776147842,-0.05647769570350647,-0.03309853747487068
1700516700125772500,5.1517724609375,-0.010358352214097977,0.048102326691150665,-0.1468811333179474
1700516700135782400,5.161782470703125,-0.016528364270925522,-0.0633392482995987,0.01857573352754116
1700516700145793500,5.17179345703125,0.011050955392420292,0.13380254805088043,0.07675187289714813
1700516700155803400,5.181803466796875,-0.023571737110614777,-0.0654304027557373,0.2156524956226349
1700516700165814300,5.191814208984375,-0.0015287523856386542,0.022301848977804184,-0.1819838136434555
1700516700175824400,5.201824462890625,-0.020496273413300514,-0.0010414287680760026,-0.13098298013210297
1700516700185835500,5.21183544921875,0.026152353733778,0.03271462768316269,0.10063473135232925
1700516700195846700,5.2218466796875,-0.015996430069208145,0.002373764291405678,0.16003279387950897
1700516700205856500,5.2318564453125,0.0005015918286517262,-0.04605099931359291,-0.11286164075136185
1700516700215867400,5.241867431640625,-0.020672934129834175,0.02207159623503685,-0.12174834311008453
1700516700225877500,5.25187744140625,-0.015993712469935417,-0.0605861097574234,0.03867771849036217
1700516700235888400,5.261888427734375,0.03431739658117294,0.1307566910982132,0.1380024403333664
1700516700245898500,5.2718984375,-0.020680991932749748,-0.08872513473033905,0.16825352609157562
1700516700255909400,5.281909423828125,0.0014834321336820722,0.05197365581989288,-0.23957602679729462
1700516700265920500,5.29192041015625,-0.011072480119764805,-0.00857436005026102,-0.06162454932928085
1700516700275930400,5.301930419921875,0.03182518482208252,0.0559026338160038,0.1426076889038086
1700516700285941500,5.31194140625,-0.008043953217566013,-0.008702268823981285,0.08763331174850464
1700516700295951600,5.32195166015625,0.0007221081759780645,-0.0350411981344223,-0.16538803279399872
1700516700305962500,5.33196240234375,-0.014257224276661873,-0.013463537208735943,-0.06491684168577194
1700516700315972600,5.34197265625,0.0170490313321352,-0.03488893434405327,0.028617367148399353
1700516700325983500,5.3519833984375,0.04767913371324539,0.08913295716047287,0.1814141720533371
1700516700335994400,5.361994384765625,-0.00956311821937561,-0.1077904999256134,0.06175381317734718
1700516700346004500,5.37200439453125,0.02329305000603199,0.06547274440526962,-0.21875311434268951
1700516700356015400,5.382015380859375,-0.013197583146393299,-0.06163141131401062,0.006890664808452129
1700516700366025500,5.392025390625,0.034490495920181274,0.04285880923271179,0.18868336081504822
1700516700376036400,5.402036376953125,0.0033725241664797068,-0.09041588753461838,0.09877584874629974
1700516700386047500,5.412047607421875,0.012455860152840614,0.039910171180963516,-0.17992569506168365
1700516700396057600,5.4220576171875,-0.0162170622497797,-0.038809407502412796,-0.02013416774570942
1700516700406068500,5.432068359375,0.029158666729927063,-0.042052093893289566,0.05463361740112305
1700516700416078600,5.44207861328125,0.007139386143535376,0.03228338807821274,0.22014455497264862
1700516700426089500,5.45208935546875,-0.01142736803740263,-0.08932983130216599,-0.03469793125987053
1700516700436099600,5.462099609375,0.005094616673886776,0.07626844942569733,-0.26437824964523315
1700516700446110500,5.4721103515625,-0.025454193353652954,-0.0327143669128418,-0.04602385312318802
1700516700456122400,5.482122314453125,-0.003931857645511627,0.0499056801199913,0.08341802656650543
1700516700466132500,5.492132568359375,-0.006240112241357565,-0.0023250500671565533,-0.0650155246257782
1700516700476143600,5.5021435546875,0.012841969728469849,0.15395137667655945,-0.2231723964214325
1700516700486153700,5.51215380859375,-0.0028788503259420395,0.07656656205654144,-0.07670047134160995
1700516700496164600,5.52216455078125,0.013433011248707771,0.1620795875787735,-0.11787586659193039
1700516700506175500,5.532175537109375,0.018363557755947113,0.17336039245128632,0.23430736362934113
1700516700516185600,5.542185546875,0.03229774534702301,0.10234560817480087,-0.1255916953086853
1700516700526196500,5.552196533203125,-0.0013530950527638197,0.09372062236070633,-0.252453476190567
1700516700536206600,5.56220654296875,-0.002421288751065731,0.014147238805890083,0.0009513588156551123
1700516700546217500,5.572217529296875,-0.010972320102155209,-0.02784782648086548,0.03520612046122551
1700516700556228400,5.582228271484375,0.005961921531707048,-0.10728885978460312,-0.17928194999694824
1700516700566238500,5.592238525390625,0.010538781061768532,-0.10971195250749588,-0.3496791422367096
1700516700576249600,5.60224951171875,0.038247108459472656,-0.16659069061279297,-0.2722006142139435
1700516700586259700,5.612259765625,0.014179656282067299,-0.1922886222600937,-0.25753700733184814
1700516700596270600,5.6222705078125,0.06554830819368362,-0.11741466075181961,-0.026657195761799812
1700516700606280400,5.632280517578125,-0.0660620927810669,-0.12019791454076767,0.05989539995789528
1700516700616291600,5.64229150390625,-0.025993768125772476,-0.1827976554632187,-0.4904862642288208
1700516700626302500,5.652302490234375,0.1007900983095169,-0.14305713772773743,-0.20433665812015533
1700516700636312600,5.6623125,-0.05401172861456871,0.04178114980459213,0.04203743487596512
1700516700646323500,5.672323486328125,-0.05533642694354057,0.01795852929353714,0.08892633765935898
1700516700656333600,5.68233349609375,0.052602559328079224,0.09271159768104553,-0.042740076780319214
1700516700666344400,5.692344482421875,0.017663652077317238,0.04694194346666336,-0.0957956314086914
1700516700676355600,5.70235546875,0.029551470652222633,0.05236227810382843,-0.21881556510925293
1700516700686365700,5.71236572265625,0.0957258865237236,0.1708945482969284,0.09025279432535172
1700516700696376600,5.72237646484375,-0.04730717092752457,0.13632725179195404,0.33305424451828003
1700516700706387500,5.732387451171875,0.016989486292004585,-0.10862588882446289,-0.49280881881713867
1700516700716397600,5.7423974609375,0.10105669498443604,0.05835697054862976,-0.005315581802278757
1700516700726408400,5.752408447265625,-0.05220525339245796,0.06673487275838852,0.0694129541516304
1700516700736418600,5.76241845703125,0.0773354321718216,-0.03278319537639618,-0.18030740320682526
1700516700746429400,5.772429443359375,0.07149023562669754,0.01698543131351471,0.034145306795835495
1700516700756440300,5.7824404296875,0.01149480976164341,0.02975635416805744,0.17957785725593567
1700516700766450400,5.792450439453125,-0.04083409160375595,-0.07567662000656128,0.30252671241760254
1700516700776461600,5.802461669921875,0.11228195577859879,-0.437627375125885,-0.43578118085861206
1700516700786471700,5.8124716796875,0.09576769173145294,0.11320140212774277,-0.19397538900375366
1700516700796482600,5.822482666015625,-0.0905129685997963,-0.08212921023368835,0.03678857907652855
1700516700806493400,5.832493408203125,0.016377894207835197,0.08657649904489517,-0.0818914845585823
1700516700816503600,5.842503662109375,0.017870595678687096,0.03974934294819832,0.22486259043216705
1700516700826514400,5.852514404296875,-0.13860490918159485,0.09449387341737747,0.7575037479400635
1700516700836524500,5.862524658203125,-0.04360143840312958,-0.11586149781942368,0.04068009555339813
1700516700846535400,5.872535400390625,0.07588962465524673,0.4069657623767853,-0.38275909423828125
1700516700856546300,5.88254638671875,-0.07485008984804153,-0.2952008843421936,0.04543886333703995
1700516700866556400,5.892556396484375,0.0016412599943578243,0.17571532726287842,-0.294809490442276
1700516700876567600,5.902567626953125,0.05723048374056816,0.2816348671913147,0.2741013765335083
1700516700886578400,5.912578369140625,-0.03888747841119766,-0.15987451374530792,0.7200391292572021
1700516700896588500,5.922588623046875,-0.03207937628030777,0.08586973696947098,-0.09348385035991669
1700516700906599400,5.932599365234375,0.09680765122175217,0.12807384133338928,0.13712231814861298
1700516700916609500,5.942609619140625,0.0042263176292181015,-0.2879614531993866,-0.08387824892997742
1700516700926620400,5.952620361328125,-0.09180549532175064,0.2391023486852646,-0.32068902254104614
1700516700936631600,5.962631591796875,0.08429549634456635,-0.2501525580883026,-0.09142550081014633
1700516700946641400,5.972641357421875,0.03539016842842102,-0.07309607416391373,-0.24785473942756653
1700516700956652300,5.98265234375,-0.07926557213068008,0.036598462611436844,-0.22269800305366516
1700516700966663700,5.99266357421875,-0.016339924186468124,-0.07019899040460587,0.061466798186302185
1700516700976673500,6.002673583984375,-0.07714095711708069,0.19817280769348145,0.0939246118068695
1700516700986684700,6.0126845703125,-0.0433894582092762,-0.1563127636909485,0.3105108141899109
1700516700996694500,6.022694580078125,0.013273555785417557,-0.12910617887973785,-0.13436172902584076
1700516701006705400,6.032705322265625,-0.03727537393569946,0.013875734061002731,-0.45716455578804016
1700516701016716500,6.042716552734375,-0.022050347179174423,-0.12754343450069427,-0.15178439021110535
1700516701026726400,6.052726318359375,-0.11976274102926254,0.4845755100250244,0.10626950860023499
1700516701036737500,6.062737548828125,-0.011001898907124996,-0.22151370346546173,0.4940910041332245
1700516701046748400,6.07274853515625,-0.05552920699119568,-0.040989093482494354,0.11872637271881104
1700516701056758500,6.082758544921875,-0.017340274527668953,0.29721716046333313,0.439229816198349
1700516701066769700,6.092769775390625,-0.023850316181778908,-0.34142276644706726,0.29664894938468933
1700516701076780500,6.102780517578125,-0.0872279554605484,0.6459276676177979,0.3101365268230438
1700516701086790700,6.112790771484375,-0.012844448909163475,-0.09048482775688171,0.38627490401268005
1700516701096801500,6.122801513671875,-0.07006166875362396,-0.0361022874712944,-0.1811531037092209
1700516701106811600,6.132811767578125,0.0034540132619440556,0.0818195715546608,0.1547441929578781
1700516701116822500,6.142822509765625,-0.08201827853918076,-0.5358005166053772,-0.24001936614513397
1700516701126833400,6.15283349609375,-0.04384240508079529,0.6644632816314697,0.3464251160621643
1700516701136843500,6.162843505859375,-0.01683635264635086,-0.38127461075782776,0.34650394320487976
1700516701146854400,6.1728544921875,-0.026682758703827858,0.06943908333778381,-0.07539594173431396
1700516701156865500,6.182865478515625,-0.032803237438201904,0.09060242772102356,0.0592912994325161
1700516701166875600,6.192875732421875,-0.04108260199427605,-0.5710768699645996,-0.6310886740684509
1700516701176886500,6.202886474609375,-0.021769091486930847,0.2632584869861603,0.13892151415348053
1700516701186897400,6.2128974609375,-0.05634176358580589,-0.5254610180854797,0.07760100066661835
1700516701196907500,6.222907470703125,0.05962798371911049,0.6053121089935303,0.6551868319511414
1700516701206918400,6.23291845703125,-0.026583636179566383,-0.0011459619272500277,0.6394966244697571
1700516701216928500,6.242928466796875,-0.09671717882156372,-0.29507502913475037,-0.24571578204631805
1700516701226939400,6.252939453125,-0.03484521061182022,-0.24320361018180847,-0.3096766173839569
1700516701236950300,6.2629501953125,-0.06794244050979614,-0.41871899366378784,-1.3545681238174438
1700516701246960400,6.27296044921875,0.03792371228337288,0.48848095536231995,-0.6292041540145874
1700516701256971500,6.282971435546875,-0.006634701043367386,-0.5389468669891357,0.10207007080316544
1700516701266982700,6.292982666015625,0.005470956675708294,0.47134801745414734,0.8969276547431946
1700516701276992500,6.302992431640625,-0.030647631734609604,0.026122352108359337,1.0474269390106201
1700516701287003400,6.31300341796875,-0.035206738859415054,0.1389382779598236,0.455518513917923
1700516701297014500,6.3230146484375,-0.028431657701730728,0.09660732001066208,0.4294307231903076
1700516701307024400,6.3330244140625,-0.10870233178138733,0.015863800421357155,-0.2091338038444519
1700516701317035500,6.343035400390625,-0.055491577833890915,0.1410776525735855,0.108420729637146
1700516701327046400,6.35304638671875,-0.001810647314414382,-0.487152636051178,-0.5538018941879272
1700516701337056500,6.363056396484375,0.03699187561869621,0.35591042041778564,-0.3087835907936096
1700516701347067600,6.373067626953125,0.027968771755695343,-0.4281110167503357,-0.1917807012796402
1700516701357078500,6.38307861328125,-0.01711668074131012,0.43587568402290344,0.2343791276216507
1700516701367088600,6.393088623046875,0.02386121265590191,-0.17320118844509125,0.5085615515708923
1700516701377099500,6.403099609375,0.02236371673643589,0.09939730912446976,0.19070740044116974
1700516701387109600,6.413109619140625,0.0023594649974256754,0.04718388244509697,0.3074650466442108
1700516701397120500,6.42312060546875,-0.017415305599570274,-0.32808586955070496,-0.35589855909347534
1700516701407131400,6.43313134765625,0.01643657684326172,0.11244170367717743,-0.05037098377943039
1700516701417141500,6.4431416015625,0.004103744402527809,-0.3949040472507477,-0.2833235263824463
1700516701427152400,6.45315234375,0.04505700245499611,0.4368780255317688,0.1867826282978058
1700516701437163500,6.46316357421875,-0.0062280213460326195,-0.16501900553703308,0.30425629019737244
1700516701447173600,6.473173583984375,0.00922749936580658,0.1645803153514862,-0.11821383982896805
1700516701457184000,6.48318408203125,0.051499586552381516,0.07866647839546204,0.10069533437490463
1700516701467195100,6.493195068359375,0.0031712513882666826,-0.5609809756278992,-0.6691260933876038
1700516701477205000,6.503205078125,0.012872880324721336,0.13475199043750763,-0.04162997007369995
1700516701487215900,6.5132158203125,-0.04861466959118843,-0.2270878404378891,-0.07206327468156815
1700516701497227000,6.52322705078125,0.05957198515534401,0.2551930546760559,0.5424952507019043
1700516701507236900,6.53323681640625,-0.017372725531458855,-0.3739144206047058,0.24550029635429382
1700516701517248000,6.543248046875,0.04732930660247803,0.30480578541755676,-0.1408436894416809
1700516701527259100,6.553259033203125,-0.005733378231525421,-0.2506289482116699,0.029678162187337875
1700516701537269000,6.56326904296875,-0.0064889173954725266,0.11740045994520187,-0.1247984915971756
1700516701547280100,6.573280029296875,0.028114642947912216,-0.16490913927555084,0.17851883172988892
1700516701557291000,6.583291015625,0.05779077857732773,0.267065167427063,0.07858452200889587
1700516701567301000,6.593301025390625,0.12107472121715546,0.15662267804145813,0.4900003671646118
1700516701577312000,6.60331201171875,0.08676095306873322,0.2497001439332962,0.264117956161499
1700516701587323000,6.613322998046875,0.1966724544763565,0.17520993947982788,0.7857825756072998
1700516701597333000,6.6233330078125,0.06543294340372086,0.16557009518146515,-0.09431789070367813
1700516701607343900,6.63334375,-0.0029941448010504246,0.1293439120054245,0.09346361458301544
1700516701617355000,6.64335498046875,-0.06464605778455734,-0.3238062858581543,-0.18000096082687378
1700516701627365000,6.653365234375,-0.09131712466478348,-0.06539957225322723,-0.01612742245197296
1700516701637376000,6.6633759765625,-0.06100235879421234,-0.4772859513759613,-0.6704666614532471
1700516701647387100,6.67338720703125,-0.12448972463607788,0.054717209190130234,-0.5761053562164307
1700516701657397000,6.68339697265625,-0.025339441373944283,-0.41142332553863525,-0.3272726535797119
1700516701667408000,6.693407958984375,0.01635648123919964,0.064533531665802,-0.4355802834033966
1700516701677419000,6.7034189453125,0.07744540274143219,-0.12293969094753265,-0.1749018132686615
1700516701687428900,6.713428955078125,0.039700109511613846,-0.39535003900527954,-0.673241913318634
1700516701697440000,6.72343994140625,0.07251904159784317,0.3271043002605438,-0.05900004506111145
1700516701707451100,6.733451171875,0.03608432784676552,-0.22337138652801514,-0.2629936933517456
1700516701717461000,6.7434609375,0.13318504393100739,0.31557437777519226,0.34972137212753296
1700516701727472000,6.75347216796875,0.06496889144182205,-0.11691121757030487,-0.005445418879389763
1700516701737483000,6.76348291015625,-0.003875420428812504,0.3796791136264801,0.7346406579017639
1700516701747494000,6.773493896484375,0.01659487560391426,0.43751150369644165,0.7561312913894653
1700516701757504000,6.78350390625,0.20694831013679504,-0.029554219916462898,0.5615159869194031
1700516701767515000,6.793514892578125,-0.03797999769449234,0.34872689843177795,0.07054337114095688
1700516701777526000,6.803526123046875,0.02405807562172413,-0.016879569739103317,0.3733503520488739
1700516701787536000,6.813535888671875,0.0027091566007584333,0.2060663104057312,0.14618666470050812
1700516701797547000,6.823547119140625,0.169184148311615,-0.3843511641025543,0.13847148418426514
1700516701807558100,6.83355810546875,-0.038669973611831665,0.17457255721092224,-0.3084939122200012
1700516701817568000,6.843568115234375,0.021496692672371864,-0.32049256563186646,-0.11852451413869858
1700516701827579100,6.8535791015625,0.012248643673956394,0.3072447180747986,-0.37900885939598083
1700516701837590000,6.863590087890625,0.20491689443588257,-0.6314864754676819,-0.29539385437965393
1700516701847599900,6.873599853515625,0.02589712291955948,0.1964682936668396,-0.5196148157119751
1700516701857611000,6.883611083984375,-0.0497150793671608,-0.150773823261261,-0.05195171386003494
1700516701867622000,6.893621826171875,0.09336590766906738,0.2864157557487488,0.12646538019180298
1700516701877632000,6.903632080078125,0.030139539390802383,-0.7200029492378235,-0.21820278465747833
1700516701887643100,6.91364306640625,0.008698202669620514,0.5337210297584534,0.0374651663005352
1700516701897654000,6.923654052734375,0.03257397562265396,-0.10809598863124847,0.2303539365530014
1700516701907664100,6.9336640625,-0.0008535318193025887,0.45533129572868347,0.657390832901001
1700516701917675000,6.943675048828125,0.04581170901656151,-0.21343107521533966,-0.05258554592728615
1700516701927686000,6.953685791015625,0.04990134760737419,0.10630110651254654,0.11375021934509277
1700516701937697000,6.963697021484375,-0.10064847767353058,-0.017017364501953125,0.1402643769979477
1700516701947707000,6.973706787109375,0.11021412909030914,-0.12618006765842438,0.10080022364854813
1700516701957718000,6.983718017578125,-0.06040101498365402,0.13807740807533264,-0.3270494043827057
1700516701967729200,6.993729248046875,-0.0351063534617424,-0.005409047473222017,0.25950920581817627
1700516701977739000,7.003739013671875,-0.009067829698324203,0.1681150645017624,0.06623854488134384
1700516701987750100,7.013750244140625,0.11958304792642593,-0.5714116096496582,-0.07963267713785172
1700516701997761000,7.023760986328125,-0.06746753305196762,0.3375348448753357,-0.43587785959243774
1700516702007771100,7.033771240234375,-0.09158516675233841,-0.25458502769470215,-0.0317189060151577
1700516702017782000,7.043781982421875,-0.04706350713968277,0.191822811961174,0.2944301664829254
1700516702027793000,7.05379296875,0.0650559812784195,-0.22533302009105682,-0.3328131139278412
1700516702037803000,7.063802978515625,0.02308296039700508,0.14966748654842377,0.06710980087518692
1700516702047814000,7.07381396484375,-0.07883927971124649,0.051910992711782455,0.3827662169933319
1700516702057825000,7.083824951171875,0.17809878289699554,-0.15826115012168884,0.3300124704837799
1700516702067836200,7.093836181640625,-0.01708684116601944,0.29365745186805725,-0.18888972699642181
1700516702077846000,7.103845947265625,-0.045277733355760574,-0.1269901841878891,0.1489887237548828
1700516702087857000,7.11385693359375,0.007913499139249325,0.3069724440574646,0.13227659463882446
1700516702097868000,7.123867919921875,0.043260835111141205,-0.45291849970817566,-0.3389601409435272
1700516702107878000,7.1338779296875,-0.0799855962395668,0.23489812016487122,-0.27615708112716675
1700516702117889000,7.143888916015625,-0.03381942957639694,-0.29733461141586304,-0.34475478529930115
1700516702127900000,7.15389990234375,0.011360695585608482,-0.04568174108862877,-0.14054055511951447
1700516702137910000,7.163909912109375,0.06680557876825333,-0.3421533703804016,-0.6979513168334961
1700516702147921200,7.173921142578125,-0.021271472796797752,0.41398733854293823,-0.0865422785282135
1700516702157932000,7.18393212890625,0.0029206830076873302,0.00671648932620883,0.1459522247314453
1700516702167943000,7.19394287109375,0.09685691446065903,-0.2284753918647766,-0.014977587386965752
1700516702177953000,7.203953125,0.07905927300453186,0.5095400214195251,-0.1347532421350479
1700516702187964000,7.2139638671875,0.0039039356634020805,-0.019849348813295364,0.07969041168689728
1700516702197975000,7.22397509765625,0.12163162976503372,-0.16398388147354126,0.27274081110954285
1700516702207985000,7.23398486328125,0.025247525423765182,0.27348974347114563,-0.0669889748096466
1700516702217995800,7.243995849609375,0.023770535364747047,0.3451061248779297,0.4344936013221741
1700516702228007200,7.254007080078125,0.03867793083190918,0.09428348392248154,0.4154563546180725
1700516702238017000,7.26401708984375,0.11599002778530121,-0.1605197787284851,-0.10714481770992279
1700516702248028200,7.274028076171875,0.46055877208709717,2.0390067100524902,-3.4870855808258057
1700516702258039000,7.2840390625,-0.2888147830963135,-1.4210095405578613,0.07198226451873779
1700516702268050000,7.2940498046875,-0.06244207173585892,0.07792994379997253,1.7926335334777832
1700516702278060000,7.30406005859375,0.05745796859264374,0.18189628422260284,0.6706250905990601
1700516702288071000,7.31407080078125,0.0940672904253006,-0.38432613015174866,0.44793400168418884
1700516702298082000,7.32408203125,-0.09153132885694504,0.2763601839542389,-0.29493987560272217
1700516702308092200,7.334092041015625,-0.10922001302242279,-0.08716725558042526,-0.7348828315734863
1700516702318103000,7.34410302734375,0.04512455314397812,0.1513955146074295,-0.0016408246010541916
1700516702328114000,7.354114013671875,-0.07316946238279343,-0.17121116816997528,0.5267540812492371
1700516702338125000,7.364125,-0.029470182955265045,-0.20913058519363403,0.35284167528152466
1700516702348135000,7.374135009765625,-0.004186544101685286,0.11858536303043365,-0.1011066660284996
1700516702358146000,7.38414599609375,0.10133801400661469,0.014454702846705914,-0.1939852088689804
1700516702368157000,7.394156982421875,0.08672493696212769,0.177023783326149,0.1352294683456421
1700516702378168000,7.40416796875,-0.030604083091020584,0.17812179028987885,0.09148304909467697
1700516702388178200,7.41417822265625,0.041182901710271835,0.19281220436096191,0.29375213384628296
1700516702398189000,7.42418896484375,-0.029874758794903755,0.22632116079330444,0.5286432504653931
1700516702408200000,7.434199951171875,0.05128183215856552,-0.12838195264339447,0.16860036551952362
1700516702418210000,7.4442099609375,0.025013212114572525,0.30902546644210815,-0.00474746385589242
1700516702428221000,7.454220947265625,-0.0347682423889637,-0.3077808618545532,-0.025553680956363678
1700516702438232000,7.464232177734375,0.0356832891702652,-0.13830715417861938,-0.3000108003616333
1700516702448243000,7.474242919921875,-0.010191034525632858,-0.03658544644713402,-0.4149066209793091
1700516702458252300,7.484252197265625,0.05869855359196663,-0.1487055867910385,-0.16123174130916595
1700516702468263200,7.49426318359375,-0.12018020451068878,0.02850460633635521,0.10632765293121338
1700516702478274300,7.5042744140625,0.02162034437060356,-0.23976068198680878,-0.390139102935791
1700516702488284400,7.514284423828125,0.18123671412467957,0.5314366817474365,-0.03731710463762283
1700516702498295300,7.52429541015625,0.012300688773393631,-0.17836548388004303,0.28685644268989563
1700516702508306200,7.53430615234375,0.05652235448360443,-0.3757828176021576,-0.12296728789806366
1700516702518317300,7.5443173828125,0.0813685804605484,0.6404210925102234,-0.22586624324321747
1700516702528327200,7.5543271484375,-0.019588349387049675,0.051774509251117706,0.4383533000946045
1700516702538338300,7.56433837890625,0.03928348794579506,0.11265996843576431,0.5927894711494446
1700516702548349200,7.57434912109375,0.06637736409902573,0.27737635374069214,0.2442399561405182
1700516702558360300,7.5843603515625,0.14469054341316223,0.021757088601589203,0.317291796207428
1700516702568370400,7.594370361328125,-0.03294224664568901,0.2904171943664551,0.36359038949012756
1700516702578381300,7.60438134765625,0.13012123107910156,-0.1615886390209198,-0.22282752394676208
1700516702588392200,7.61439208984375,0.09412907063961029,0.23033572733402252,-0.23516738414764404
1700516702598402300,7.62440234375,-0.047742586582899094,-0.1668744832277298,-0.0778571218252182
1700516702608413200,7.6344130859375,0.1891278326511383,-0.5554448366165161,-0.45677489042282104
1700516702618424000,7.644424072265625,-0.01435205526649952,0.23925359547138214,-0.5153098702430725
1700516702628435200,7.654435302734375,0.07343833893537521,0.06746984273195267,-0.23434507846832275
1700516702638445000,7.664445068359375,0.12827202677726746,0.11280377209186554,0.20329990983009338
1700516702648456400,7.67445654296875,0.10942477732896805,0.000984694343060255,0.0015284880064427853
1700516702658467300,7.68446728515625,0.1248902902007103,0.3022236227989197,0.24759657680988312
1700516702668478200,7.694478271484375,-0.08172323554754257,0.17878718674182892,0.5142894387245178
1700516702678488300,7.70448828125,0.04608479514718056,-0.1012367382645607,-0.19203811883926392
1700516702688499200,7.714499267578125,-0.01155566144734621,0.31891992688179016,-0.22807767987251282
1700516702698510000,7.724510009765625,-0.07096359133720398,-0.28751248121261597,0.1486794501543045
1700516702708521500,7.734521484375,0.12396977841854095,-0.2009216547012329,-0.05035797506570816
1700516702718531000,7.744531005859375,-0.07329189032316208,0.228241428732872,-0.07535893470048904
1700516702728542200,7.754542236328125,0.04932217672467232,-0.362930029630661,-0.11077018827199936
1700516702738553300,7.76455322265625,-0.07995029538869858,-0.008433309383690357,-0.17398923635482788
1700516702748563200,7.774563232421875,-0.03878915309906006,-0.37112775444984436,-0.6280233860015869
1700516702758574300,7.78457421875,0.13724233210086823,0.1502467393875122,-0.438093364238739
1700516702768585200,7.794585205078125,0.016491809859871864,0.10451640188694,0.020904911682009697
1700516702778596000,7.80459619140625,-0.013977150432765484,-0.2827053368091583,0.037797607481479645
1700516702788606200,7.814606201171875,0.02495838701725006,0.31113600730895996,-0.04076863080263138
1700516702798617300,7.824617431640625,-0.027177518233656883,-0.0044001019559800625,0.01229405403137207
1700516702808628200,7.834628173828125,0.04268272593617439,-0.1953936368227005,0.03149094432592392
1700516702818639400,7.844639404296875,-0.01305483654141426,0.12217899411916733,-0.4831446707248688
1700516702828649200,7.854649169921875,0.05331555753946304,0.036018434911966324,-0.17133188247680664
1700516702838660400,7.864660400390625,-0.10499817878007889,-0.1280200332403183,0.1739613264799118
1700516702848671200,7.874671142578125,-0.014563051983714104,-0.07080348581075668,-0.3858341872692108
1700516702858682000,7.88468212890625,0.1395338475704193,0.5816070437431335,0.018828053027391434
1700516702868692200,7.894692138671875,0.02364402636885643,0.12885302305221558,0.4246688783168793
1700516702878703400,7.904703369140625,0.17148993909358978,0.1213008314371109,0.4693162441253662
1700516702888714200,7.91471435546875,0.12362580746412277,0.4606614410877228,0.2871132493019104
1700516702898725400,7.924725341796875,0.10660900920629501,-0.046749286353588104,0.563748836517334
1700516702908735200,7.9347353515625,0.17447957396507263,0.16875451803207397,0.8022010326385498
1700516702918746000,7.94474609375,0.09399671852588654,0.32888615131378174,0.19253286719322205
1700516702928757200,7.95475732421875,0.10808257013559341,-0.26420265436172485,0.3889380097389221
1700516702938768100,7.96476806640625,0.03732903674244881,0.40451574325561523,0.048192400485277176
1700516702948778200,7.9747783203125,0.07165408879518509,-0.41198936104774475,-0.47759634256362915
1700516702958789400,7.984789306640625,-0.015863507986068726,-0.024857865646481514,-0.3779563009738922
1700516702968800300,7.99480029296875,0.008145826868712902,-0.34850823879241943,-0.3847527801990509
1700516702978811400,8.004811279296876,0.22590264678001404,-0.3734910786151886,-0.5588009357452393
1700516702988821200,8.0148212890625,0.03949321061372757,0.057923197746276855,-0.35773757100105286
1700516702998832000,8.02483203125,0.10015735775232315,-0.06424372643232346,0.09354119002819061
1700516703008843300,8.03484326171875,0.05056590586900711,0.13346241414546967,0.34885212779045105
1700516703018854100,8.044854248046875,0.06273096054792404,-0.34472280740737915,-0.3434078097343445
1700516703028864300,8.0548642578125,-0.10905145108699799,0.3245828151702881,-0.26070520281791687
1700516703038875400,8.06487548828125,-0.11083444207906723,-0.01864456757903099,-0.14082540571689606
1700516703048886300,8.07488623046875,-0.06198599562048912,-0.6112278699874878,-0.3693007826805115
1700516703058897200,8.084897216796875,-0.07882755994796753,0.43875664472579956,-0.12113916873931885
1700516703068907300,8.0949072265625,-0.04050799459218979,-0.46104997396469116,0.0770430937409401
1700516703078918100,8.104918212890626,-0.11944781988859177,-0.3181500732898712,0.26664072275161743
1700516703088929300,8.11492919921875,-0.047008685767650604,0.09184171259403229,-0.21794798970222473
1700516703098940200,8.124940185546874,0.12198939174413681,0.11198852956295013,0.006962096318602562
1700516703108950000,8.134949951171874,0.11978151649236679,0.3268381357192993,0.5689198970794678
1700516703118961400,8.14496142578125,0.18861837685108185,0.15537211298942566,0.44937142729759216
1700516703128972300,8.15497216796875,0.12018132209777832,0.5554507970809937,0.7839058041572571
1700516703138983200,8.164983154296875,0.16460658609867096,0.22083790600299835,1.0493323802947998
1700516703148993300,8.1749931640625,0.34265613555908203,-0.11312955617904663,0.5278360843658447
1700516703159004200,8.185004150390625,0.14651407301425934,0.4485337734222412,0.18296845257282257
1700516703169015300,8.195015380859376,0.045800793915987015,-0.309386670589447,-0.010213248431682587
1700516703179026400,8.2050263671875,0.24761539697647095,-0.4345717430114746,-0.08215748518705368
1700516703189037300,8.215037353515624,0.05317223072052002,0.19496357440948486,-0.2729168236255646
1700516703199047400,8.22504736328125,0.057547539472579956,-0.5610263347625732,-0.25309064984321594
1700516703209058300,8.235058349609375,0.01082779560238123,0.11839848756790161,-0.28738316893577576
1700516703219069200,8.245069091796875,0.08302316069602966,-0.6502841114997864,-0.8372620344161987
1700516703229080300,8.255080322265625,0.04915833845734596,0.4509182274341583,-0.39066585898399353
1700516703239090200,8.265090087890625,0.032072294503450394,-0.08405464142560959,0.05537313222885132
1700516703249101000,8.27510107421875,-0.013801532797515392,0.2310740202665329,0.3682606518268585
1700516703259112400,8.285112548828126,-0.06341675668954849,0.30643296241760254,0.09910482168197632
1700516703269123300,8.295123291015624,0.04621298611164093,-0.23185767233371735,-0.16723188757896423
1700516703279133400,8.305133544921874,-0.11546246707439423,0.1802995353937149,-0.03928616642951965
1700516703289144300,8.315144287109375,-0.025967365130782127,-0.5711216926574707,-0.5574543476104736
1700516703299155200,8.3251552734375,-0.009638992138206959,0.2503337562084198,-0.21589945256710052
1700516703309166000,8.335166015625,-0.13184450566768646,-0.03284715488553047,0.5555242300033569
1700516703319176200,8.34517626953125,0.045470889657735825,-0.11669117957353592,0.43764445185661316
1700516703329187000,8.35518701171875,0.06300622224807739,0.2870302200317383,0.11472991108894348
1700516703339198500,8.365198486328126,-0.04365924000740051,-0.038722600787878036,0.36917898058891296
1700516703349209300,8.375209228515626,0.13578975200653076,-0.0011692302068695426,0.2834743857383728
1700516703359220200,8.38522021484375,0.009470697492361069,0.34762921929359436,-0.1715487688779831
1700516703369230300,8.395230224609374,-0.009793358854949474,-0.1775280088186264,0.265622615814209
1700516703379241200,8.4052412109375,0.01186826080083847,0.19335979223251343,0.10744629800319672
1700516703389252000,8.415252197265625,0.10494453459978104,-0.21603985130786896,-0.5766720771789551
1700516703399263200,8.42526318359375,0.05828888341784477,0.24163901805877686,-0.18981221318244934
1700516703409273000,8.435273193359375,-0.009049688465893269,-0.1659977287054062,-0.0981583446264267
1700516703419284200,8.4452841796875,0.1451992690563202,-0.2924065589904785,-0.35711905360221863
1700516703429295400,8.45529541015625,0.0006390514317899942,0.2619519829750061,-0.3728446066379547
1700516703439306200,8.46530615234375,0.10314305871725082,-0.14763472974300385,-0.23178601264953613
1700516703449317000,8.475317138671874,0.030474644154310226,0.18903093039989471,0.007753932848572731
1700516703459327700,8.48532763671875,0.04522642493247986,0.036911703646183014,-0.4354456067085266
1700516703469338600,8.495338623046875,0.09965283423662186,0.3765853941440582,0.14182430505752563
1700516703479349800,8.505349853515625,-0.04689186438918114,0.19717514514923096,0.336321622133255
1700516703489361000,8.51536083984375,-0.02618595026433468,0.03029625117778778,0.23872052133083344
1700516703499370800,8.525370849609375,-0.01921486109495163,0.3609684407711029,-0.060011040419340134
1700516703509382000,8.5353818359375,-0.0721224769949913,-0.11471127718687057,0.11961392313241959
1700516703519392800,8.545392822265624,-0.02226676233112812,0.3015056252479553,0.37489601969718933
1700516703529403600,8.555403564453124,0.023308897390961647,0.033879537135362625,-0.11055145412683487
1700516703539414500,8.56541455078125,0.007266547065228224,-0.17465156316757202,-0.05162554979324341
1700516703549424600,8.575424560546875,-0.06823935359716415,0.20704177021980286,-0.024837177246809006
1700516703559435800,8.585435791015625,0.10612951964139938,-0.4100741744041443,-0.40342283248901367
1700516703569447000,8.595447021484375,0.10101034492254257,0.29851359128952026,-0.33054134249687195
1700516703579457800,8.605457763671875,0.05367186293005943,-0.11903251707553864,0.025832755491137505
1700516703589467600,8.615467529296875,0.3043827712535858,-0.23276978731155396,-0.238486647605896
1700516703599478800,8.625478759765626,0.07248056679964066,0.2474205195903778,-0.1620592623949051
1700516703609489700,8.63548974609375,0.04137851297855377,-0.09171010553836823,0.21927964687347412
1700516703619500500,8.64550048828125,0.0892467051744461,0.22703059017658234,0.12042976170778275
1700516703629512000,8.655511962890625,0.12275349348783493,-0.2137085646390915,-0.23201707005500793
1700516703639521800,8.665521728515625,0.04319022595882416,0.10641031712293625,-0.1926155984401703
1700516703649532700,8.67553271484375,-0.007113550323992968,-0.08725035190582275,-0.13129264116287231
1700516703659543800,8.685543701171875,0.12835052609443665,0.19231896102428436,0.050120025873184204
1700516703669554700,8.6955546875,0.019248567521572113,0.17676381766796112,0.27907565236091614
1700516703679565600,8.705565673828126,0.022139161825180054,0.04024938493967056,0.31187117099761963
1700516703689575700,8.71557568359375,0.02849794551730156,0.4363822042942047,0.4891042709350586
1700516703699586800,8.7255869140625,0.013015657663345337,0.056179214268922806,0.1460483968257904
1700516703709598000,8.735597900390625,0.03893512114882469,0.029197024181485176,0.12573863565921783
1700516703719608800,8.74560888671875,-0.11354682594537735,0.08827579021453857,0.397674560546875
1700516703729618700,8.75561865234375,0.050729937851428986,-0.551180899143219,-0.23703643679618835
1700516703739629800,8.7656298828125,-0.0420689731836319,0.13874661922454834,-0.335579514503479
1700516703749640700,8.775640625,-0.04774569347500801,-0.5185775756835938,0.19728121161460876
1700516703759651600,8.785651611328126,0.06236376240849495,-0.2281113713979721,-0.05155204236507416
1700516703769663000,8.7956630859375,-0.02574387565255165,-0.021378235891461372,-0.34714725613594055
1700516703779672800,8.8056728515625,0.05241404101252556,-0.22484880685806274,0.08276337385177612
1700516703789683700,8.81568359375,0.026909850537776947,0.13228866457939148,0.1904403120279312
1700516703799694800,8.82569482421875,0.06280526518821716,-0.19258689880371094,-0.1106867790222168
1700516703809705700,8.835705810546875,0.07890178263187408,0.4583124816417694,0.18178138136863708
1700516703819716600,8.845716552734375,0.03242908790707588,-0.040402233600616455,0.4210144579410553
1700516703829726700,8.855726806640625,0.04735874757170677,0.2163313627243042,0.6330057978630066
1700516703839737600,8.865737548828125,-0.014027383178472519,0.34785905480384827,0.04714607447385788
1700516703849748700,8.875748779296876,-0.057997263967990875,-0.2025316208600998,0.14366011321544647
1700516703859759900,8.885759765625,-0.06828585267066956,0.3014495074748993,0.32962679862976074
1700516703869770800,8.895770751953124,-0.020910397171974182,-0.36243173480033875,-0.3720970153808594
1700516703879780900,8.90578076171875,-0.02474188804626465,-0.0991348847746849,-0.1890353113412857
1700516703889791700,8.915791748046875,-0.12901471555233002,-0.1005229651927948,-0.2938927114009857
1700516703899802600,8.925802734375,0.06510522961616516,-0.5097863674163818,-0.5557565689086914
1700516703909813800,8.935813720703125,-0.04674224555492401,0.05556398630142212,-0.5152987241744995
1700516703919823600,8.94582373046875,-0.001741480315104127,-0.24522487819194794,-0.12815524637699127
1700516703929834800,8.955834716796875,0.004767409525811672,0.22454239428043365,0.12478860467672348
1700516703939846000,8.965845947265626,0.0409480482339859,0.10738354921340942,0.010308625176548958
1700516703949856800,8.975856689453124,0.08840243518352509,0.31685906648635864,0.5132932662963867
1700516703959867600,8.98586767578125,-0.07865366339683533,0.24743418395519257,0.716938853263855
1700516703969878800,8.995878662109375,0.06957816332578659,-0.11215381324291229,0.20108415186405182
1700516703979888600,9.005888671875,-0.03380068764090538,0.2418450117111206,-0.11842088401317596
1700516703989899500,9.0158994140625,-0.08860068023204803,-0.32028159499168396,0.39173632860183716
1700516703999911000,9.025910888671875,0.027401022613048553,-0.00168361805845052,0.3137187659740448
1700516704009921800,9.035921875,-0.024515079334378242,0.06493554264307022,-0.05989886075258255
1700516704019932700,9.0459326171875,-0.028484521433711052,-0.19217801094055176,0.2572455406188965
1700516704029942800,9.05594287109375,0.005833553150296211,0.3201230466365814,0.0505555123090744
1700516704039953700,9.06595361328125,0.049716055393218994,-0.1878964900970459,-0.31269407272338867
1700516704049964500,9.075964599609375,0.04128824919462204,0.2509502172470093,-0.2630923390388489
1700516704059976000,9.085975830078125,-0.06780601292848587,-0.07165444642305374,-0.3751815855503082
1700516704069986800,9.09598681640625,0.08200731873512268,-0.16062165796756744,-0.45286136865615845
1700516704079997000,9.105996826171875,-0.07839939743280411,-0.059228457510471344,-0.7298964262008667
1700516704090007800,9.1160078125,-0.08911154419183731,-0.06948680430650711,-0.3852337598800659
1700516704100018700,9.126018798828126,-0.14911656081676483,0.13455501198768616,0.17101803421974182
1700516704110029800,9.13602978515625,-0.08410679548978806,-0.38627952337265015,-0.2754937410354614
1700516704120040700,9.146040771484374,-0.02673538401722908,0.21182383596897125,0.08361037075519562
1700516704130050600,9.156050537109374,-0.13056141138076782,-0.12316545844078064,0.1392280012369156
1700516704140062000,9.16606201171875,-0.04810035973787308,0.011550015769898891,-0.014631601050496101
1700516704150072800,9.17607275390625,-0.09307560324668884,0.08874613046646118,0.08617839217185974
1700516704160083700,9.186083740234375,-0.0774681493639946,-0.17104363441467285,0.4741133451461792
1700516704170094800,9.1960947265625,-0.11886947602033615,0.32535624504089355,0.58133465051651
1700516704180104700,9.206104736328125,-0.07850421220064163,-0.2116571068763733,0.21904966235160828
1700516704190115600,9.216115478515626,-0.034886814653873444,0.16047674417495728,0.12170551717281342
1700516704200126700,9.226126708984374,-0.09788122028112411,-0.030227432027459145,0.33643805980682373
1700516704210137900,9.236137939453124,-0.033613596111536026,-0.34705406427383423,-0.029439933598041534
1700516704220148700,9.246148681640625,-0.037220049649477005,0.2287573218345642,-0.20330172777175903
1700516704230158800,9.256158935546875,-0.06444064527750015,-0.4153018891811371,-0.15512722730636597
1700516704240169700,9.266169677734375,-0.06816667318344116,0.09212908148765564,-0.4297369420528412
1700516704250180600,9.2761806640625,-0.08744695782661438,-0.42466554045677185,-0.7895600199699402
1700516704260191700,9.286191650390625,0.027156051248311996,0.014497429132461548,-0.6510007977485657
1700516704270202600,9.29620263671875,-0.05260196700692177,-0.33195725083351135,-0.8029881715774536
1700516704280213800,9.3062138671875,-0.07505800575017929,0.24822570383548737,-0.31163790822029114
1700516704290223900,9.316223876953124,-0.1598387509584427,-0.5262588858604431,-0.674517810344696
1700516704300234800,9.32623486328125,-0.22521109879016876,0.13747434318065643,-0.7699311375617981
1700516704310245600,9.33624560546875,-0.21901686489582062,-0.0014284494100138545,-0.6696982383728027
1700516704320256800,9.3462568359375,-0.20230180025100708,-0.1294039785861969,-0.5694147944450378
1700516704330267600,9.356267578125,-0.04966331273317337,0.15610875189304352,-0.2734884023666382
1700516704340277800,9.36627783203125,-0.05224311724305153,-0.005016216076910496,-0.212917760014534
1700516704350289000,9.376288818359376,-0.028911234810948372,0.17062921822071075,-0.29393911361694336
1700516704360299800,9.3862998046875,-0.012456894852221012,0.19952744245529175,-0.26230424642562866
1700516704370310700,9.396310546875,-0.12668588757514954,0.034708429127931595,0.7760774493217468
1700516704380321800,9.40632177734375,-0.0580759271979332,0.25092488527297974,1.1970869302749634
1700516704390332700,9.416332763671875,0.036484040319919586,0.004298054147511721,0.9150747656822205
1700516704400342800,9.4263427734375,-0.03937903419137001,0.4994790256023407,0.9949890375137329
1700516704410353700,9.436353759765625,0.0062934840098023415,0.24687059223651886,0.9059745073318481
1700516704420364800,9.44636474609375,0.14611183106899261,0.18146495521068573,0.36795419454574585
1700516704430376000,9.4563759765625,0.07611070573329926,0.40372833609580994,0.2533229887485504
1700516704440386800,9.46638671875,0.09226410835981369,-0.1988999992609024,-0.09467440843582153
1700516704450396700,9.476396728515626,0.0975378081202507,0.18524982035160065,-0.2041054517030716
1700516704460411100,9.4864111328125,0.033277060836553574,-0.5245739817619324,-0.7763314247131348
1700516704470422000,9.496422119140625,0.07456563413143158,0.0095119783654809,-0.5877817869186401
1700516704480433000,9.506432861328125,-0.13032039999961853,-0.3107171654701233,-0.5766934156417847
1700516704490444000,9.516444091796876,-0.11301516741514206,-0.5014957785606384,-0.5954074263572693
1700516704500455200,9.526455078125,-0.16002875566482544,-0.03342500329017639,-0.7591817378997803
1700516704510465000,9.536465087890624,-0.01573856547474861,0.2836923599243164,0.05090890824794769
1700516704520476200,9.54647607421875,-0.07687675207853317,-0.13703808188438416,0.07937277853488922
1700516704530487000,9.556487060546875,-0.05755845084786415,-0.04221251606941223,-0.012538772076368332
1700516704540498000,9.566497802734375,-0.08166725188493729,0.21927767992019653,0.8691369295120239
1700516704550509000,9.576509033203125,-0.15242786705493927,0.35398852825164795,1.2921650409698486
1700516704560520000,9.58652001953125,-0.07268030941486359,-0.05519283935427666,0.6477091312408447
1700516704570530000,9.596530029296876,0.115212582051754,0.4332643449306488,0.6026221513748169
1700516704580541200,9.606541259765624,-0.042099546641111374,0.14544185996055603,0.5172193646430969
1700516704590552000,9.616552001953124,0.06682140380144119,-0.24738828837871552,0.12693390250205994
1700516704600563000,9.62656298828125,0.09017866104841232,0.3800537884235382,-0.019120769575238228
1700516704610574000,9.636573974609375,0.01122299488633871,-0.09352800995111465,0.11672701686620712
1700516704620585000,9.6465849609375,0.09135990589857101,0.24106436967849731,0.41042762994766235
1700516704630595000,9.656594970703125,0.09960717707872391,0.06253349035978317,0.03167375922203064
1700516704640606000,9.66660595703125,0.0448688268661499,0.030639739707112312,0.27832987904548645
1700516704650617000,9.6766171875,-0.01733134686946869,0.18046358227729797,0.14259502291679382
1700516704660628000,9.6866279296875,0.0006676274351775646,-0.28098154067993164,-0.2380087822675705
1700516704670639000,9.69663916015625,0.021198725327849388,0.13499994575977325,-0.2088366597890854
1700516704680649000,9.70664892578125,-0.1361783742904663,-0.34395894408226013,-0.10335418581962585
1700516704690660000,9.71666015625,-0.06233097240328789,-0.01962132565677166,-0.253472238779068
1700516704700671000,9.7266708984375,-0.137530118227005,-0.44613882899284363,-0.8990443348884583
1700516704710682000,9.73668212890625,-0.03518964350223541,0.0006293435581028461,-0.6917248368263245
1700516704720693000,9.74669287109375,0.04798167571425438,-0.37980401515960693,-0.6473344564437866
1700516704730704100,9.7567041015625,0.05496556684374809,-0.1307435780763626,-0.5822020173072815
1700516704740714000,9.7667138671875,-0.08454065769910812,-0.06619734317064285,-0.7411596775054932
1700516704750725000,9.77672509765625,-0.10083386301994324,0.014788963831961155,-0.651584804058075
1700516704760736000,9.786736083984374,-0.11114109307527542,-0.21396513283252716,-0.5410532355308533
1700516704770747000,9.796746826171875,0.01738930493593216,0.09145660698413849,-0.33272168040275574
1700516704780758000,9.806758056640625,0.06107686087489128,0.288616806268692,0.04339921474456787
1700516704790769200,9.81676904296875,0.06022166833281517,0.3118937611579895,0.32488349080085754
1700516704800779000,9.826779052734375,0.05828049033880234,0.035593997687101364,0.8425370454788208
1700516704810790100,9.8367900390625,0.05769674852490425,0.4644160568714142,0.5544036626815796
1700516704820801000,9.846801025390626,-0.052220430225133896,0.061102669686079025,0.6717643737792969
1700516704830812000,9.85681201171875,0.005184045061469078,0.16315406560897827,0.6074395775794983
1700516704840823000,9.866822998046874,-0.05052795261144638,-0.07464943826198578,-0.07821360230445862
1700516704850834200,9.876834228515625,0.07007966935634613,0.027633942663669586,-0.020435310900211334
1700516704860845000,9.886844970703125,-0.0025103786028921604,0.1894390881061554,0.19051846861839294
1700516704870855200,9.896855224609375,-0.02808532863855362,-0.11636343598365784,-0.3366023898124695
1700516704880866000,9.906865966796875,0.05060921609401703,0.4117715060710907,-0.20139771699905396
1700516704890877000,9.916876953125,0.02199755422770977,-0.02196652442216873,-0.03588608279824257
1700516704900888000,9.92688818359375,0.0727374330163002,0.1288517564535141,-0.01390248816460371
1700516704910899000,9.93689892578125,0.072846420109272,0.020548595115542412,-0.11867095530033112
1700516704920910000,9.94691015625,0.05194539576768875,0.15105387568473816,0.08237986266613007
1700516704930920200,9.956920166015625,0.025742940604686737,0.28318193554878235,0.4329497814178467
1700516704940931000,9.96693115234375,0.05621775984764099,-0.26759758591651917,-0.11917998641729355
1700516704950942000,9.97694189453125,0.12612378597259521,0.3360617756843567,0.009730376303195953
1700516704960953000,9.986953125,-0.02703912928700447,0.04951069504022598,0.12915557622909546
1700516704970964000,9.9969638671875,0.09680020809173584,-0.10036265105009079,0.028081050142645836
1700516704980975000,10.00697509765625,0.12376738339662552,-0.038601022213697433,-0.11389365792274475
1700516704990986000,10.016986083984374,0.0006559555185958743,-0.17599019408226013,-0.05585389584302902
1700516705000996000,10.02699609375,0.10105712711811066,0.18033890426158905,0.15940941870212555
1700516705011007000,10.037007080078125,-0.0018922246526926756,-0.1269812434911728,-0.248377725481987
1700516705021018000,10.04701806640625,0.05992720276117325,0.35772764682769775,0.1458340287208557
1700516705031029000,10.057029052734375,0.032371532171964645,0.2962346076965332,0.5779127478599548
1700516705041040000,10.067039794921875,-0.016201328486204147,0.0446724109351635,0.3258211314678192
1700516705051051300,10.07705126953125,0.07360173016786575,0.09575781971216202,0.033118411898612976
1700516705061061000,10.08706103515625,-0.08274393528699875,-0.11770226061344147,-0.0891537070274353
1700516705071072000,10.097072021484376,0.027724193409085274,-0.0030882079154253006,-0.027922481298446655
1700516705081083100,10.107083251953124,0.047345299273729324,0.01355814654380083,0.04391655698418617
1700516705091094000,10.117093994140625,-0.050408218055963516,0.019906610250473022,0.1540907323360443
1700516705101105000,10.12710498046875,0.0407339446246624,0.11685232818126678,0.15535786747932434
1700516705111116000,10.137115966796875,0.05541231110692024,-0.19095610082149506,-0.2694355547428131
1700516705121127200,10.147127197265625,0.11401304602622986,0.08470478653907776,-0.24066460132598877
1700516705131137000,10.157136962890625,-0.04586486518383026,-0.1840641051530838,-0.04407188296318054
1700516705141148200,10.167148193359376,0.11577089875936508,-0.07982850819826126,0.08008574694395065
1700516705151159000,10.177158935546874,0.1017000824213028,0.05352794751524925,0.11538393050432205
1700516705161170000,10.187169921875,0.0011969124898314476,0.010954921133816242,0.17973549664020538
1700516705171181000,10.19718115234375,0.053923770785331726,0.208947092294693,0.22652935981750488
1700516705181192200,10.207192138671875,0.03403794765472412,-0.10146722942590714,-0.19887439906597137
1700516705191203000,10.217203125,0.016110165044665337,-0.01852094940841198,-0.19950735569000244
1700516705201213200,10.227213134765625,-0.14870327711105347,-0.0839683935046196,-0.1749333143234253
1700516705211224000,10.23722412109375,-0.09563630074262619,-0.21440351009368896,-0.29143640398979187
1700516705221235000,10.24723486328125,-0.003876019734889269,-0.11644897609949112,-0.5565559267997742
1700516705231246000,10.25724609375,-0.010232141241431236,-0.05067968741059303,-0.398497611284256
1700516705241257000,10.267257080078124,-0.11777883768081665,0.39973220229148865,0.02483607456088066
1700516705251268000,10.27726806640625,-0.008552576415240765,-0.446180135011673,-0.15504710376262665
1700516705261279200,10.287279296875,0.0594930537045002,0.191069558262825,-0.23053787648677826
1700516705271289000,10.2972890625,-0.04433893412351608,-0.05793214216828346,-0.13870413601398468
1700516705281300000,10.307300048828125,0.06538569927215576,-0.09581320732831955,0.14624078571796417
1700516705291311000,10.31731103515625,0.18754836916923523,0.3152156174182892,0.14027023315429688
1700516705301322000,10.327322021484376,-0.02229302003979683,0.007224492263048887,0.4086018204689026
1700516705311332900,10.337332763671874,0.005903685465455055,0.29923704266548157,0.6376997232437134
1700516705321344300,10.34734423828125,0.062115296721458435,0.12837660312652588,0.23054715991020203
1700516705331355100,10.357355224609375,0.09022507816553116,0.058487940579652786,0.25227099657058716
1700516705341365000,10.367364990234375,-0.023533973842859268,0.1388498842716217,0.10384024679660797
1700516705351376100,10.377376220703125,0.06362888962030411,-0.2263035923242569,-0.15686431527137756
1700516705361387000,10.387386962890625,0.09872056543827057,-0.06902927160263062,-0.08979393541812897
1700516705371398000,10.39739794921875,-0.10368460416793823,-0.09550122916698456,0.08701631426811218
1700516705381409000,10.407408935546876,-0.03068123571574688,-0.036695968359708786,0.17340554296970367
1700516705391420200,10.417420166015624,0.051855847239494324,-0.06661378592252731,-0.14529941976070404
1700516705401431000,10.42743115234375,-0.027817141264677048,-0.023843154311180115,-0.15958328545093536
1700516705411442000,10.43744189453125,-0.10338272154331207,0.05328306555747986,-0.1575273871421814
1700516705421452000,10.4474521484375,-0.013914357870817184,-0.5170547366142273,-0.3385528326034546
1700516705431463000,10.457462890625,0.002916275756433606,0.14913660287857056,-0.21459925174713135
1700516705441474000,10.46747412109375,-0.1477896124124527,-0.3261726498603821,0.1769261658191681
1700516705451485200,10.477485107421876,-0.03276107460260391,-0.19907796382904053,0.17699941992759705
1700516705461492200,10.4874921875,0.029006153345108032,-0.140201598405838,-0.06339346617460251
1700516705471503400,10.49750341796875,0.00126021692994982,-0.11584977805614471,0.09225986897945404
1700516705481514200,10.50751416015625,-0.10276338458061218,0.22451844811439514,0.2563191056251526
1700516705491525000,10.517525146484376,0.05875428020954132,-0.5763591527938843,-0.21724499762058258
1700516705501535200,10.52753515625,0.11711399257183075,0.4148957133293152,-0.19870753586292267
1700516705511546000,10.537546142578124,-0.09239974617958069,-0.014749396592378616,0.16139006614685059
1700516705521557200,10.54755712890625,0.0648450031876564,-0.05732828006148338,0.21218161284923553
1700516705531568400,10.557568359375,0.029002804309129715,0.16871856153011322,0.06588620692491531
1700516705541579300,10.567579345703125,-0.09010148793458939,0.05632225051522255,0.23346641659736633
1700516705551590100,10.577590087890625,-0.13958075642585754,0.10996031016111374,0.35308313369750977
1700516705561601300,10.587601318359376,-0.08088468760251999,-0.2397870421409607,-0.24545855820178986
1700516705571612400,10.5976123046875,-0.02057509310543537,0.06010913476347923,-0.17500647902488708
1700516705581622300,10.607622314453126,-0.09899479895830154,-0.07725431770086288,0.03767383471131325
1700516705591633400,10.61763330078125,0.014064772054553032,-0.22467507421970367,0.035972245037555695
1700516705601644300,10.627644287109375,0.06669256091117859,-0.02394489012658596,-0.2691469192504883
1700516705611655200,10.6376552734375,-0.048436325043439865,-0.18487705290317535,-0.007406233809888363
1700516705621666300,10.647666259765625,0.03163028135895729,0.1390504240989685,0.1737544983625412
1700516705631677200,10.65767724609375,-0.00786466896533966,-0.07529649138450623,-0.08473221957683563
1700516705641688300,10.667688232421876,0.08041645586490631,0.07446423918008804,-0.11761000752449036
1700516705651699200,10.67769921875,-0.08339373022317886,-0.10996779054403305,0.03667571768164635
1700516705661709300,10.687709228515626,-0.030269524082541466,-0.4368298053741455,-0.187463641166687
1700516705671720200,10.69772021484375,0.015442521311342716,0.043000321835279465,-0.2713221609592438
1700516705681731300,10.7077314453125,-0.03348986804485321,-0.32796603441238403,-0.07048095762729645
1700516705691742200,10.7177421875,-0.11882368475198746,0.07241466641426086,0.0029246225021779537
1700516705701753000,10.727753173828125,0.004255637526512146,-0.306342750787735,-0.5646554827690125
1700516705711764200,10.73776416015625,-0.02624865062534809,-0.03184010088443756,-0.5842269062995911
1700516705721775400,10.747775390625,-0.06022925302386284,-0.14072583615779877,-0.307588130235672
1700516705731786200,10.7577861328125,-0.026421140879392624,-0.03916138783097267,-0.31895607709884644
1700516705741797000,10.767797119140624,-0.04930834472179413,0.03364277631044388,-0.4092921018600464
1700516705751807200,10.77780712890625,-0.013442977331578732,0.022979343309998512,0.14691057801246643
1700516705761818000,10.787818115234375,-0.006833810359239578,0.3258707821369171,0.5501421689987183
1700516705771829200,10.797829345703125,-0.03223104774951935,0.03373212367296219,0.12325969338417053
1700516705781840400,10.80784033203125,-0.0452435165643692,0.23588629066944122,0.3703179359436035
1700516705791851300,10.817851318359375,-0.032818712294101715,0.24502572417259216,0.5016168355941772
1700516705801862100,10.827862060546876,-0.044979240745306015,-0.09735133498907089,0.34428662061691284
1700516705811873300,10.837873291015624,0.01745346188545227,0.05922030657529831,0.15437498688697815
1700516705821884200,10.84788427734375,-0.06439080089330673,-0.16310997307300568,0.27586838603019714
1700516705831895300,10.857895263671875,0.00492594949901104,-0.003960254602134228,0.142971009016037
1700516705841905400,10.867905517578125,0.04540945962071419,-0.08892840892076492,-0.0999007448554039
1700516705851916300,10.877916259765625,-0.0902753546833992,-0.12303830683231354,-0.040702275931835175
1700516705861927200,10.88792724609375,-0.03386587277054787,0.13895122706890106,-0.09036383032798767
1700516705871938300,10.897938232421875,0.01885521411895752,-0.2875944972038269,-0.41758331656455994
1700516705881949200,10.90794921875,-0.021291939541697502,0.10355062782764435,-0.3063984811306
1700516705891960000,10.9179599609375,-0.06841471046209335,-0.2969379425048828,-0.22185520827770233
1700516705901971500,10.927971435546874,-0.0003491062670946121,0.13446860015392303,-0.1701994687318802
1700516705911982300,10.937982421875,0.009427494369447231,0.04157553240656853,-0.2599247395992279
1700516705921993200,10.9479931640625,-0.0645066499710083,-0.04221630096435547,0.11399772763252258
1700516705932003300,10.95800341796875,-0.12469688802957535,0.24431733787059784,0.2619139850139618
1700516705942014200,10.96801416015625,0.008012952283024788,-0.38921433687210083,-0.3210682272911072
1700516705952025000,10.978025146484375,0.023352229967713356,0.402841717004776,0.045245617628097534
1700516705962036200,10.9880361328125,-0.13975493609905243,-0.18496426939964294,0.42103415727615356
1700516705972047400,10.99804736328125,-0.06921800225973129,0.038585737347602844,0.4001952111721039
1700516705982058200,11.008058349609374,0.0736778974533081,0.12108807265758514,0.21968457102775574
1700516705992069000,11.018069091796875,-0.038407448679208755,-0.0762961134314537,0.3603344261646271
1700516706002080300,11.028080322265625,0.031272564083337784,0.15490515530109406,0.20806367695331573
1700516706012091100,11.038091064453125,0.08125267922878265,0.1201007142663002,-0.06810382008552551
1700516706022102300,11.048102294921875,0.022097744047641754,0.16462530195713043,0.1464606672525406
1700516706032112400,11.0581123046875,-0.008504017256200314,0.19451048970222473,0.32606396079063416
1700516706042123300,11.068123291015626,0.060080636292696,-0.08044890314340591,-0.029999084770679474
1700516706052134400,11.078134521484374,0.021696139127016068,0.1689758449792862,-0.2057209610939026
1700516706062145300,11.088145263671874,-0.11143022775650024,-0.1997300237417221,-0.06808240711688995
1700516706072156200,11.09815625,-0.011669895611703396,0.036307282745838165,-0.01722797192633152
1700516706082167000,11.1081669921875,0.019249670207500458,-0.15010254085063934,-0.18353891372680664
1700516706092178400,11.118178466796875,-0.08034847676753998,-0.2501428425312042,0.1893034428358078
1700516706102189300,11.128189208984375,-0.09502648562192917,0.01968703232705593,0.15313398838043213
1700516706112200200,11.1382001953125,-0.025735601782798767,-0.412666916847229,-0.33233851194381714
1700516706122211300,11.14821142578125,0.1105082556605339,0.03612019494175911,-0.47537797689437866
1700516706132222200,11.15822216796875,0.03884236887097359,-0.207265704870224,-0.252351313829422
1700516706142232000,11.168232177734374,0.09193781018257141,-0.1523585170507431,-0.04255946725606918
1700516706152243200,11.1782431640625,-0.02714885212481022,-0.2650183439254761,-0.4917576313018799
1700516706162254300,11.18825439453125,0.002058034762740135,0.11325305700302124,-0.6361584663391113
1700516706172265200,11.19826513671875,-0.013024202547967434,0.047821998596191406,-0.5698012709617615
1700516706182276400,11.2082763671875,0.016482822597026825,0.12302887439727783,-0.23933252692222595
1700516706192287200,11.218287353515626,0.013187295757234097,0.7426310181617737,0.6278160214424133
1700516706202298000,11.228298095703124,-0.047639571130275726,0.48948928713798523,1.2786954641342163
1700516706212309200,11.238309326171875,-0.021034857258200645,0.2527904510498047,1.0793904066085815
1700516706222320400,11.2483203125,0.12493114173412323,0.3816480338573456,0.8140093088150024
1700516706232331300,11.258331298828125,0.026633242145180702,-0.23909220099449158,0.487469345331192
1700516706242341400,11.26834130859375,0.15630042552947998,-0.1692878156900406,0.33717143535614014
1700516706252352300,11.278352294921875,0.11436011642217636,0.23559269309043884,-0.3078363537788391
1700516706262363100,11.288363037109375,0.031181873753666878,-0.308843195438385,-0.18934936821460724
1700516706272374300,11.298374267578126,0.09690997749567032,0.18929776549339294,-0.3046252131462097
1700516706282385400,11.308385498046874,0.16143490374088287,-0.7898514866828918,-0.7253793478012085
1700516706292396300,11.318396240234375,0.16227726638317108,0.15031148493289948,-0.8636994361877441
1700516706302407200,11.3284072265625,0.01952623948454857,-0.2497136890888214,-0.8708041906356812
1700516706312418300,11.338418212890625,0.03708246350288391,-0.03298281505703926,-0.46797552704811096
1700516706322429200,11.34842919921875,-0.03606897592544556,0.05300372838973999,-0.593174934387207
1700516706332440000,11.358440185546876,-0.013099702075123787,0.6239752173423767,0.005199783947318792
1700516706342451500,11.368451416015626,-0.10209082812070847,0.18068909645080566,0.638105571269989
1700516706352462300,11.37846240234375,0.04241308942437172,-0.4261254668235779,0.07717106491327286
1700516706362472200,11.38847216796875,0.014601699076592922,0.34017065167427063,0.11660821735858917
1700516706372483300,11.3984833984375,-0.09112139791250229,0.10424479842185974,0.44715291261672974
1700516706382494200,11.408494140625,-0.0679931715130806,-0.10978227108716965,0.2415696531534195
1700516706392505000,11.418505126953125,0.1939961463212967,0.4827030599117279,0.25102660059928894
1700516706402516500,11.4285166015625,0.01819448359310627,0.13819384574890137,0.6789416670799255
1700516706412527400,11.43852734375,0.15366096794605255,0.0027737095952033997,0.4152577519416809
1700516706422538200,11.448538330078126,0.21439994871616364,0.6075965166091919,0.0656752660870552
1700516706432549000,11.458549072265624,0.02858755737543106,0.1177663505077362,0.18290501832962036
1700516706442560300,11.468560302734375,0.15471646189689636,0.17877988517284393,0.22542904317378998
1700516706452571100,11.478571044921875,0.08675019443035126,0.2647653818130493,-0.30058687925338745
1700516706462583300,11.488583251953125,-0.007900414057075977,-0.14545439183712006,-0.24929466843605042
1700516706472594200,11.49859423828125,-0.042317863553762436,-0.09767327457666397,-0.4190603792667389
1700516706482605300,11.508605224609376,-0.045630037784576416,-0.6509473919868469,-0.7751577496528625
1700516706492615200,11.518615234375,-0.0431329645216465,0.059606391936540604,-0.6639366745948792
1700516706502626300,11.528626220703124,-0.0465756319463253,-0.34984156489372253,-0.24401798844337463
1700516706512637400,11.538637451171875,-0.034895580261945724,-0.3236180543899536,0.06998828053474426
1700516706522648300,11.5486484375,0.078962542116642,-0.12240801006555557,-0.43073126673698425
1700516706532659200,11.5586591796875,0.0725921243429184,0.2528882324695587,0.24530096352100372
1700516706542670300,11.56867041015625,-0.01884325034916401,0.08863323926925659,0.46830636262893677
1700516706552681200,11.57868115234375,0.023985305801033974,-0.15117043256759644,-0.18443423509597778
1700516706562692400,11.5886923828125,0.11258148401975632,0.3787064552307129,0.15727677941322327
1700516706572703500,11.598703369140624,0.07466206699609756,0.29699909687042236,0.4196071922779083
1700516706582714400,11.60871435546875,0.017979610711336136,0.052156053483486176,0.06915782392024994
1700516706592725200,11.618725341796875,0.17999084293842316,0.18006516993045807,-0.14385245740413666
1700516706602736000,11.628736083984375,-0.11661818623542786,0.29045480489730835,0.1430823802947998
1700516706612747300,11.638747314453125,-0.08975629508495331,-0.21061097085475922,0.2473362237215042
1700516706622757000,11.648757080078125,0.07677888870239258,0.14513595402240753,0.012070181779563427
1700516706632768500,11.6587685546875,-0.0555373914539814,-0.0705605298280716,0.19730639457702637
1700516706642779400,11.668779296875,-0.03194817528128624,-0.08645986765623093,0.31644105911254883
1700516706652790300,11.678790283203124,0.07531290501356125,-0.1107269898056984,-0.15310800075531006
1700516706662801200,11.68880126953125,0.022452350705862045,-0.07951846718788147,-0.3364733159542084
1700516706672812300,11.698812255859375,-0.027747299522161484,0.06621385365724564,-0.5078471302986145
1700516706682823200,11.7088232421875,0.023811232298612595,-0.43995344638824463,-0.6704376339912415
1700516706692834300,11.718834228515625,0.06108780577778816,0.3544950485229492,-0.3228958249092102
1700516706702845400,11.728845458984376,-0.1556442379951477,0.22812804579734802,0.33807703852653503
1700516706712856300,11.738856201171876,-0.004745496902614832,-0.2962014079093933,0.6026270985603333
1700516706722867200,11.7488671875,0.16520997881889343,0.31129947304725647,0.2135118544101715
1700516706732878300,11.75887841796875,-0.06709790974855423,-0.09653592854738235,0.28747794032096863
1700516706742889500,11.768889404296875,-0.02376188151538372,-0.0955313891172409,0.3637538254261017
1700516706752900400,11.778900390625,0.07317327708005905,0.056498631834983826,0.014168201014399529
1700516706762911200,11.7889111328125,-0.014025009237229824,0.049331266433000565,0.24306023120880127
1700516706772921300,11.79892138671875,0.015196294523775578,-0.0591471828520298,0.1629837155342102
1700516706782932200,11.80893212890625,0.048342265188694,-0.21517087519168854,-0.32860067486763
1700516706792943400,11.818943359375,0.18466952443122864,0.10450422763824463,-0.4943583011627197
1700516706802954200,11.828954345703124,-0.13181601464748383,-0.22442571818828583,-0.3409748673439026
1700516706812965400,11.83896533203125,-0.06388808786869049,-0.3843807876110077,-0.352714478969574
1700516706822976300,11.848976318359375,0.04679927974939346,0.5600081086158752,-0.33654534816741943
1700516706832987400,11.8589873046875,-0.1500951051712036,-0.295489639043808,0.25701040029525757
1700516706842998300,11.868998291015625,-0.09745027124881744,-0.2152712494134903,0.471266508102417
1700516706853009200,11.879009033203126,0.06232036277651787,-0.005166596733033657,0.0014350947458297014
1700516706863020300,11.889020263671876,-0.057087257504463196,-0.014298043213784695,0.20004858076572418
1700516706873031400,11.899031494140624,0.04238123074173927,0.11231863498687744,0.44494131207466125
1700516706883042300,11.909042236328125,0.16289353370666504,0.10719311237335205,0.24748894572257996
1700516706893053200,11.91905322265625,0.07654283195734024,0.26955270767211914,0.4127930700778961
1700516706903064300,11.929064208984375,0.10503226518630981,0.2211281806230545,0.3427883982658386
1700516706913075200,11.9390751953125,0.17122700810432434,-0.2317468822002411,-0.1109936535358429
1700516706923086300,11.94908642578125,0.08919046074151993,0.1268477588891983,-0.4991714656352997
1700516706933096400,11.959096435546876,-0.11222503334283829,-0.35542672872543335,-0.453760027885437
1700516706943107300,11.969107421875,-0.025365768000483513,-0.38787680864334106,-0.5114973783493042
1700516706953118200,11.9791181640625,-0.06730473786592484,-0.4984423518180847,-0.7792298197746277
1700516706963129300,11.98912939453125,-0.1144794449210167,-0.0869743824005127,-0.6534172892570496
1700516706973140200,11.99914013671875,-0.12939074635505676,0.06856971979141235,-0.40417370200157166
1700516706983151000,12.009151123046875,0.020266663283109665,-0.4167860746383667,-0.3841291666030884
1700516706993162500,12.01916259765625,0.017399396747350693,0.40585818886756897,0.08997529745101929
1700516707003173400,12.02917333984375,-0.17328426241874695,0.20208244025707245,0.43061384558677673
1700516707013184300,12.039184326171876,0.015461556613445282,-0.45732539892196655,0.3000575602054596
1700516707023195400,12.0491953125,0.16830942034721375,0.4878395199775696,0.06920225918292999
1700516707033206300,12.059206298828125,-0.14312000572681427,0.10788796842098236,0.45286116003990173
1700516707043217200,12.069217041015625,-0.0415121465921402,-0.2562660276889801,0.3943467140197754
1700516707053228300,12.079228271484375,0.1608181893825531,0.27035900950431824,-0.030776815488934517
1700516707063239400,12.089239501953125,-0.019454652443528175,-0.15521065890789032,-0.047072168439626694
1700516707073250300,12.099250244140626,0.024290211498737335,-0.0745907723903656,-0.06363160163164139
1700516707083261200,12.10926123046875,0.04144975543022156,-0.0010044354712590575,-0.4808914363384247
1700516707093272300,12.119272216796874,0.01780540496110916,0.22843137383460999,-0.019980350509285927
1700516707103282200,12.1292822265625,0.006718664430081844,-0.10883718729019165,0.06765149533748627
1700516707113293300,12.139293212890625,-0.14081281423568726,-0.1396464854478836,-0.38769763708114624
1700516707123304400,12.149304443359375,0.07356073707342148,0.6605085134506226,0.029637809842824936
1700516707133315300,12.1593154296875,-0.12316431105136871,-0.09463746100664139,0.835186243057251
1700516707143326200,12.169326171875,-0.14064237475395203,-0.18064238131046295,0.602297842502594
