time,seconds_elapsed,z,y,x
1697842578847842600,0.140842529296875,0.21062755584716797,0.004758089780807495,0.004312053322792053
1697842578863742200,0.1567421875,0.8399448394775391,0.032633066177368164,0.035943686962127686
1697842578876952600,0.16995263671875,0.0713968276977539,0.0035733282566070557,-0.00597614049911499
1697842578888166400,0.18116650390625,-0.0781564712524414,-0.0023574233055114746,-0.0017248541116714478
1697842578899443700,0.192443603515625,-0.5449647903442383,0.06953975558280945,-1.0173183679580688
1697842578909322800,0.20232275390625,-1.1244029998779297,-0.8911749124526978,0.3444874882698059
1697842578919265800,0.212265869140625,-0.21319961547851562,-0.059024617075920105,0.5533348917961121
1697842578929245400,0.222245361328125,0.6666688919067383,-0.8850241899490356,-2.1604928970336914
1697842578939212800,0.232212890625,1.1706485748291016,0.7729605436325073,-0.13140681385993958
1697842578949181400,0.242181396484375,1.0700922012329102,0.5335403680801392,-0.32294294238090515
1697842578959277000,0.252277099609375,1.8410253524780273,-0.035082608461380005,0.32588571310043335
1697842578969202700,0.26220263671875,0.9072866439819336,0.680783748626709,-1.2937917709350586
1697842578979159300,0.2721591796875,0.3793649673461914,-0.4085780680179596,-1.085496187210083
1697842578989794600,0.282794677734375,0.12496471405029297,-0.056130170822143555,-1.6884663105010986
1697842578999628300,0.292628173828125,0.12496471405029297,-0.056130170822143555,-1.6884663105010986
1697842579009403100,0.302403076171875,0.8300571441650391,-0.24048370122909546,0.410051554441452
1697842579019248600,0.31224853515625,0.5619058609008789,0.0947045385837555,1.213306188583374
1697842579029179400,0.322179443359375,0.9677228927612305,0.11984366178512573,-0.18011918663978577
1697842579039350300,0.332350341796875,0.6169729232788086,-0.16267214715480804,-0.4614378809928894
1697842579049211100,0.342211181640625,1.3208684921264648,0.9709823131561279,0.662639856338501
1697842579059376600,0.352376708984375,2.4066381454467773,-1.3466049432754517,0.11197340488433838
1697842579069380400,0.36238037109375,1.470505714416504,1.2020227909088135,-0.5440378189086914
1697842579079296500,0.372296630859375,1.1544713973999023,-1.0281760692596436,-0.570374071598053
1697842579089314800,0.382314697265625,-1.2872581481933594,0.5982751846313477,0.06829795241355896
1697842579099348000,0.392347900390625,0.24024200439453125,-0.5820661783218384,0.32447752356529236
1697842579109271600,0.402271484375,0.2949104309082031,-0.23402902483940125,-1.7237762212753296
1697842579119235300,0.4122353515625,1.812575340270996,-0.9040530920028687,0.18744228780269623
1697842579129179100,0.42217919921875,0.6032075881958008,0.22536973655223846,-0.6704079508781433
1697842579139272400,0.4322724609375,1.8695592880249023,-0.809654712677002,0.0035481899976730347
1697842579149301800,0.4423017578125,0.952336311340332,0.08668923377990723,-0.2516462504863739
1697842579159426300,0.45242626953125,1.5986480712890625,-0.9686652421951294,-0.5355300307273865
1697842579169496300,0.462496337890625,0.35468387603759766,-0.7825150489807129,-0.39426925778388977
1697842579179290600,0.47229052734375,-0.10159587860107422,-0.445052832365036,0.09808117151260376
1697842579189215700,0.4822158203125,0.14000225067138672,-0.10007117688655853,-0.4432142972946167
1697842579199147800,0.492147705078125,1.455458641052246,-1.086275339126587,0.06647925078868866
1697842579209141500,0.5021416015625,1.0926189422607422,-0.7559494972229004,0.09928107261657715
1697842579219124700,0.512124755859375,1.2373971939086914,-0.5826146602630615,-0.26648420095443726
1697842579229129500,0.52212939453125,0.5046720504760742,-0.9990550875663757,0.3745808005332947
1697842579239155200,0.5321552734375,0.5453433990478516,-0.04595725238323212,-1.0532249212265015
1697842579249340700,0.542340576171875,0.4902334213256836,-1.0326619148254395,-0.18862266838550568
1697842579259380200,0.552380126953125,0.6470975875854492,-1.1889731884002686,0.5603006482124329
1697842579269229000,0.56222900390625,0.17429351806640625,-0.02262827754020691,-1.0743894577026367
1697842579279357200,0.572357177734375,-0.33797645568847656,-0.46253079175949097,-0.0642387792468071
1697842579289296100,0.582296142578125,-0.07567119598388672,-0.5639145970344543,-0.5826783180236816
1697842579299262000,0.592261962890625,-0.8955421447753906,-0.25630712509155273,0.15539973974227905
1697842579309209000,0.602208984375,-1.4615869522094727,-1.419108271598816,-1.2528822422027588
1697842579319151600,0.612151611328125,-1.1070938110351562,0.019368276000022888,-1.051887035369873
1697842579329128700,0.622128662109375,-2.2633562088012695,-0.6459226608276367,-0.2188975214958191
1697842579339161900,0.632161865234375,-0.7535619735717773,-0.549353837966919,-0.9249032735824585
1697842579349395500,0.6423955078125,-1.0382251739501953,-0.7482935190200806,0.26138290762901306
1697842579359264800,0.6522646484375,-2.0866012573242188,-0.5299976468086243,-0.5917460918426514
1697842579369184800,0.662184814453125,-2.1618294715881348,-0.42417603731155396,-0.6016643047332764
1697842579379170300,0.67217041015625,-1.9485607147216797,-0.423147976398468,-0.5593142509460449
1697842579389397200,0.682397216796875,-1.543731689453125,-0.7914561033248901,0.42285996675491333
1697842579399365600,0.69236572265625,-1.5650978088378906,-0.6081560254096985,-0.8128580451011658
1697842579409295400,0.70229541015625,-0.791560173034668,-1.0064847469329834,-1.352583646774292
1697842579419304200,0.71230419921875,-1.0462942123413086,0.09263572096824646,0.522187352180481
1697842579429439500,0.722439453125,-1.3512449264526367,-0.579433023929596,-1.0105599164962769
1697842579439485700,0.732485595703125,-1.1798372268676758,-0.5106338262557983,-1.2577366828918457
1697842579449549300,0.74254931640625,-1.0047693252563477,-0.2511429190635681,-0.2287856936454773
1697842579459570200,0.752570068359375,-0.8584785461425781,-0.5196906328201294,-0.6353232264518738
1697842579469437700,0.762437744140625,-0.02502727508544922,-0.5868353247642517,-0.9453516602516174
1697842579479884300,0.77288427734375,-0.8328485488891602,-0.556337833404541,-0.012462332844734192
1697842579489681700,0.782681640625,-0.498565673828125,-0.6383452415466309,-0.768862783908844
1697842579499595800,0.792595703125,-0.9987268447875977,-0.279920756816864,-0.36950644850730896
1697842579509720300,0.80272021484375,-1.0475358963012695,-0.38195911049842834,-0.7298364639282227
1697842579519583200,0.812583251953125,-0.8138341903686523,-0.3858664035797119,-0.11755112558603287
1697842579529401600,0.822401611328125,-0.39937496185302734,-0.7556493282318115,0.5267462134361267
1697842579539367400,0.832367431640625,-0.310516357421875,0.03188928961753845,-0.958388090133667
1697842579549479700,0.842479736328125,-0.3617229461669922,-0.6324563026428223,0.25110387802124023
1697842579559589400,0.85258935546875,-0.2213888168334961,0.2053813636302948,-0.30834829807281494
1697842579569373200,0.862373291015625,0.005091667175292969,-0.7210808396339417,-1.0418370962142944
1697842579579567600,0.872567626953125,-0.32150936126708984,-0.2482532262802124,-0.0740525871515274
1697842579589703200,0.882703125,-0.5188703536987305,-0.3644803762435913,-0.005099356174468994
1697842579599446500,0.892446533203125,-0.5366897583007812,-0.34051212668418884,-0.33262187242507935
1697842579609494300,0.902494384765625,-0.020618438720703125,-0.3805590271949768,-0.11352837085723877
1697842579619435800,0.912435791015625,0.0022449493408203125,-0.6057793498039246,-0.9986717700958252
1697842579629555700,0.9225556640625,0.6068906784057617,-0.6326436400413513,-0.14332252740859985
1697842579639345400,0.932345458984375,0.3064765930175781,-0.01837405562400818,-0.0972311869263649
1697842579649355300,0.942355224609375,1.1038846969604492,-0.7815494537353516,-0.48673000931739807
1697842579659584000,0.952583984375,0.9316253662109375,0.303926020860672,0.17733821272850037
1697842579669612500,0.962612548828125,1.0885114669799805,-0.6278172135353088,-0.6817442774772644
1697842579679360800,0.97236083984375,0.3103961944580078,-0.026872605085372925,0.6374608278274536
1697842579689277400,0.98227734375,0.5966501235961914,-0.6909153461456299,-0.05656079947948456
1697842579699599600,0.992599609375,-0.028308868408203125,-0.19385603070259094,-0.6650794744491577
1697842579709365200,1.002365234375,0.9772481918334961,-0.6295437812805176,0.5502157211303711
1697842579719436300,1.012436279296875,0.5857610702514648,0.14998874068260193,0.08831445872783661
1697842579729520600,1.022520751953125,0.9425983428955078,-0.8130017518997192,-0.3047402799129486
1697842579739460400,1.03246044921875,1.0911169052124023,0.16022509336471558,-0.3947422206401825
1697842579749374700,1.042374755859375,1.3653631210327148,-0.47954118251800537,0.5191261768341064
1697842579759415300,1.052415283203125,0.5610418319702148,-0.34354233741760254,0.2505660355091095
1697842579769318100,1.062318115234375,0.913116455078125,-0.19873550534248352,-0.9429291486740112
1697842579779321600,1.072321533203125,0.951416015625,-0.7204930782318115,0.2778578996658325
1697842579789301800,1.0823017578125,1.0544195175170898,0.37074294686317444,0.11835360527038574
1697842579799512800,1.092512939453125,1.0018196105957031,-0.6457847356796265,-0.4833013415336609
1697842579809635800,1.1026357421875,0.3362693786621094,0.2674420475959778,0.30052000284194946
1697842579819478500,1.112478515625,0.3290891647338867,-0.5491330027580261,0.24910016357898712
1697842579829587700,1.122587646484375,-0.44544506072998047,-0.34529316425323486,-0.2600407600402832
1697842579839382800,1.1323828125,0.32657432556152344,-0.1174992024898529,-0.0438564270734787
1697842579849747000,1.142746826171875,0.53369140625,-0.9233253002166748,0.3639371991157532
1697842579859565600,1.152565673828125,0.5335893630981445,0.10440951585769653,0.4776861369609833
1697842579869564700,1.162564697265625,0.5239524841308594,-0.2137376368045807,0.5821254253387451
1697842579879476500,1.1724765625,0.12521839141845703,-0.11058241128921509,0.12131163477897644
1697842579889497000,1.1824970703125,0.3584871292114258,-0.9085957407951355,-0.09251293540000916
1697842579899426000,1.192426025390625,0.32475757598876953,-0.38924241065979004,0.3596024513244629
1697842579909338000,1.202338134765625,-0.13283157348632812,-0.4169134497642517,-0.1455797553062439
1697842579919350500,1.2123505859375,0.08002948760986328,-0.2823740839958191,-0.9982692003250122
1697842579929549300,1.22254931640625,0.5682182312011719,-0.8260464668273926,0.9351824522018433
1697842579939554600,1.232554443359375,0.17661285400390625,-0.15260180830955505,-0.40426525473594666
1697842579949409800,1.242409912109375,0.0699758529663086,-0.790486752986908,-0.20293909311294556
1697842579959668500,1.25266845703125,0.13689804077148438,-0.45416882634162903,0.1574309766292572
1697842579969672200,1.262672119140625,0.4503936767578125,-0.16124746203422546,-0.5529234409332275
1697842579979634700,1.272634765625,0.4335460662841797,-1.0322554111480713,0.10017529875040054
1697842579993459200,1.286459228515625,0.3434152603149414,-0.8140515089035034,-0.2935119867324829
1697842580009415000,1.302414794921875,0.3434152603149414,-0.8140515089035034,-0.2935119867324829
1697842580019868000,1.312867919921875,-0.09113216400146484,0.38664063811302185,0.17216025292873383
1697842580029358000,1.322358154296875,-0.6395406723022461,-0.9458606243133545,-0.4059884250164032
1697842580040278000,1.333278076171875,-0.7520780563354492,-0.6221538186073303,-0.23107290267944336
1697842580049837000,1.342837158203125,-1.3830833435058594,-0.1651809811592102,0.10859226435422897
1697842580059775000,1.35277490234375,0.1047821044921875,-0.8490092158317566,-0.5347958207130432
1697842580069564000,1.36256396484375,0.5631475448608398,-0.1780977100133896,0.011784382164478302
1697842580079251000,1.3722509765625,-0.11800384521484375,-0.5808833837509155,0.5605080723762512
1697842580089166000,1.382166015625,-0.18028545379638672,-0.9504061937332153,-0.9004997611045837
1697842580099174000,1.392173828125,0.5463266372680664,-0.3531516194343567,0.30764466524124146
1697842580109547000,1.402547119140625,0.27927494049072266,-0.422895222902298,-1.1920456886291504
1697842580119363000,1.412363037109375,0.645655632019043,-0.4921024441719055,-0.03040812909603119
1697842580129860000,1.422860107421875,0.2158527374267578,-0.342562198638916,-0.30008018016815186
1697842580139303000,1.432302978515625,0.10932159423828125,-0.5138806104660034,-0.9233198165893555
1697842580149359000,1.442359130859375,-0.6508893966674805,-0.38666918873786926,-0.3523525595664978
1697842580159921000,1.4529208984375,-0.4462413787841797,-0.4339040517807007,-0.2039313018321991
1697842580169480000,1.46247998046875,-0.9443302154541016,-0.7761342525482178,-0.37276601791381836
1697842580179808000,1.47280810546875,0.018103599548339844,-0.8148348331451416,-0.4742903709411621
1697842580190360000,1.483360107421875,0.1473255157470703,-0.310498982667923,0.07542684674263
1697842580199206000,1.492205810546875,0.16411495208740234,-1.1512746810913086,-0.45289376378059387
1697842580209848000,1.50284814453125,0.20368480682373047,-0.7084428668022156,-1.0708560943603516
1697842580219361000,1.512361083984375,-0.41394805908203125,-0.7514389157295227,-0.11380608379840851
1697842580229483000,1.52248291015625,0.3127622604370117,-0.8210822939872742,0.25837045907974243
1697842580239797000,1.532796875,0.5020952224731445,0.021840304136276245,-0.4429979622364044
1697842580249957000,1.54295703125,0.29273033142089844,-0.6024606823921204,-0.2565523386001587
1697842580259803000,1.552802978515625,0.20417022705078125,-0.23068401217460632,0.5151240229606628
1697842580269967000,1.562967041015625,0.20182228088378906,-0.7432278990745544,0.39662858843803406
1697842580279274000,1.57227392578125,-0.49965667724609375,-0.09184613823890686,-1.0361695289611816
1697842580289897000,1.58289697265625,-0.30455970764160156,-0.9494101405143738,0.17993760108947754
1697842580299759000,1.592759033203125,0.7058620452880859,-0.9965262413024902,-0.29406291246414185
1697842580309799000,1.602798828125,-0.09618377685546875,-0.727150559425354,-0.5277239680290222
1697842580320285000,1.613284912109375,1.066380500793457,-0.8279398679733276,0.06771683692932129
1697842580330165000,1.6231650390625,0.47274303436279297,-0.12499812245368958,-0.19917964935302734
1697842580340316000,1.63331591796875,0.1318216323852539,-0.298805832862854,-0.6409360766410828
1697842580349954000,1.6429541015625,0.36537933349609375,-0.942607045173645,0.42996540665626526
1697842580360354000,1.65335400390625,0.34274959564208984,0.3796186149120331,-0.8642271161079407
1697842580370148000,1.663148193359375,-0.5669889450073242,-1.1727397441864014,0.027099154889583588
1697842580380280000,1.673280029296875,-0.2030191421508789,-0.10871103405952454,0.6719765067100525
1697842580390298000,1.683298095703125,-0.9416542053222656,-0.8781640529632568,-0.08227693289518356
1697842580399767000,1.69276708984375,-1.890890121459961,-0.23041300475597382,-0.28483930230140686
1697842580410292000,1.7032919921875,-0.027032852172851562,-1.6198062896728516,-0.30210116505622864
1697842580419776000,1.71277587890625,0.25061511993408203,-0.5076265931129456,0.5343526601791382
1697842580430303000,1.723302978515625,0.1525278091430664,-1.3128702640533447,0.4432785212993622
1697842580440295000,1.733294921875,0.24724102020263672,0.1118050217628479,-0.4139886498451233
1697842580449946000,1.742946044921875,0.9680604934692383,-1.197068452835083,-0.024761661887168884
1697842580459951000,1.752951171875,0.6318340301513672,-0.15177759528160095,-0.03872406482696533
1697842580470498000,1.763498046875,0.5446577072143555,-0.8253873586654663,0.2895509600639343
1697842580479526000,1.77252587890625,0.05764198303222656,-0.196213960647583,-0.2626822888851166
1697842580490626000,1.7836259765625,-0.43662071228027344,-0.4768824875354767,-0.5384891629219055
1697842580499331000,1.7923310546875,-0.13600730895996094,-0.46787285804748535,0.1304345279932022
1697842580509601000,1.80260107421875,0.2591257095336914,-0.8682632446289062,0.3332672119140625
1697842580519507000,1.8125068359375,-0.2207498550415039,-0.9972476959228516,0.22721287608146667
1697842580529595000,1.822594970703125,-0.36542320251464844,-0.6563378572463989,-0.07629276812076569
1697842580539192000,1.832192138671875,-0.15097522735595703,-0.8804645538330078,-0.0065641626715660095
1697842580549209000,1.842208984375,-0.2525033950805664,-0.44251778721809387,-0.18486997485160828
1697842580559529000,1.852529052734375,0.5582847595214844,-1.2173272371292114,-0.6828036308288574
1697842580569185000,1.86218505859375,0.114532470703125,0.067779541015625,0.08801278471946716
1697842580579151000,1.872151123046875,-0.7086906433105469,-0.8710474967956543,0.4490140676498413
1697842580589121000,1.88212109375,-0.7525653839111328,0.06170094013214111,-0.830725371837616
1697842580599368000,1.892367919921875,-0.8037853240966797,-1.2964671850204468,0.34001225233078003
1697842580609481000,1.90248095703125,-1.4416618347167969,0.15790873765945435,-0.13378798961639404
1697842580620073000,1.913072998046875,-0.76397705078125,-1.498284101486206,0.20332714915275574
1697842580630189000,1.92318896484375,-1.3001728057861328,-0.15035194158554077,-0.01857391744852066
1697842580640169000,1.9331689453125,-0.557887077331543,-1.051055669784546,-0.16751718521118164
1697842580649650000,1.94264990234375,-0.06818771362304688,-0.34778380393981934,-0.28367817401885986
1697842580659899000,1.95289892578125,0.78302001953125,-1.1703860759735107,0.4542408585548401
1697842580670017000,1.96301708984375,0.21926212310791016,-0.05413731932640076,0.6325591206550598
1697842580679996000,1.972995849609375,0.1546163558959961,-1.139449119567871,-0.5062480568885803
1697842580689717000,1.982717041015625,0.14975452423095703,-0.1197303831577301,1.7238235473632812
1697842580700129000,1.99312890625,-0.10164642333984375,-0.9812589883804321,-0.725151002407074
1697842580709390000,2.00239013671875,-0.3232440948486328,-0.18223825097084045,-1.2386517524719238
1697842580719244000,2.012244140625,-0.18575668334960938,-0.8160585761070251,0.7555385828018188
1697842580730034000,2.023033935546875,0.2702302932739258,-0.7296431064605713,0.12334181368350983
1697842580739925000,2.032925048828125,0.9010000228881836,-0.20752114057540894,-0.3250606656074524
1697842580750022000,2.04302197265625,1.1307868957519531,-1.3286304473876953,0.33025050163269043
1697842580759909000,2.0529091796875,0.36699581146240234,0.3334396481513977,-0.5448017120361328
1697842580770235000,2.06323486328125,0.4124164581298828,-1.0099339485168457,-0.7163984775543213
1697842580779909000,2.0729091796875,0.16933250427246094,-0.13846063613891602,-0.4033123850822449
1697842580789384000,2.082384033203125,0.30810070037841797,-0.8418407440185547,-0.5233080387115479
1697842580800242000,2.093241943359375,-0.1504840850830078,-0.5193033218383789,0.6712328791618347
1697842580810141000,2.103140869140625,0.22526836395263672,-0.001901388168334961,0.5067735314369202
1697842580820098000,2.11309814453125,-0.15914630889892578,-0.6300888657569885,-0.38258159160614014
1697842580830307000,2.12330712890625,1.4185724258422852,0.10821777582168579,-0.5939786434173584
1697842580840296000,2.1332958984375,0.9442710876464844,-1.484143614768982,0.5675526857376099
1697842580850269000,2.14326904296875,0.29657936096191406,-0.11952537298202515,-0.44068780541419983
1697842580860319000,2.153319091796875,0.7321538925170898,-1.0310076475143433,-0.270325243473053
1697842580870237000,2.16323681640625,0.3273639678955078,-0.08337867259979248,0.07356376200914383
1697842580879566000,2.172566162109375,0.7905302047729492,-1.0522228479385376,1.080790400505066
1697842580889620000,2.182619873046875,0.22900772094726562,0.03139317035675049,-0.15768927335739136
1697842580899660000,2.192659912109375,0.6503009796142578,-0.7010412216186523,-0.48611584305763245
1697842580909622000,2.2026220703125,0.8752613067626953,-0.09730800986289978,0.14346973598003387
1697842580919867000,2.212866943359375,0.645380973815918,-0.16496264934539795,-0.867360532283783
1697842580929643000,2.22264306640625,1.0512237548828125,-1.2035164833068848,-0.48524391651153564
1697842580939587000,2.232587158203125,1.0559968948364258,-0.42517000436782837,-0.311606764793396
1697842580949598000,2.242597900390625,0.6537504196166992,-0.6319079399108887,0.15020503103733063
1697842580959510000,2.252510009765625,-0.16625308990478516,-0.26463985443115234,0.1684766411781311
1697842580969626000,2.262626220703125,0.34139251708984375,-0.5223410129547119,-0.3319539427757263
1697842580979411000,2.272410888671875,0.3976926803588867,-0.689432680606842,-0.7147538065910339
1697842580989687000,2.28268701171875,0.8395156860351562,-0.18484658002853394,-0.8638508319854736
1697842580999693000,2.292693115234375,1.2609891891479492,-0.8534401655197144,0.17326398193836212
1697842581009363000,2.302363037109375,0.14893627166748047,0.09957647323608398,-0.49119138717651367
1697842581019163000,2.312162841796875,0.3633699417114258,-1.064621090888977,-0.2619764506816864
1697842581029134000,2.322134033203125,-0.5260887145996094,-0.7698906660079956,0.2752506136894226
1697842581039278000,2.332278076171875,-0.6696949005126953,-0.6426889300346375,-0.8818519115447998
1697842581049112000,2.342112060546875,-0.40870094299316406,-0.765213131904602,0.48840275406837463
1697842581059732000,2.35273193359375,0.034218788146972656,-0.16767734289169312,-0.6884250044822693
1697842581069774000,2.362774169921875,-0.037506103515625,-0.31335949897766113,-0.8748759031295776
1697842581079776000,2.37277587890625,0.14568138122558594,-0.8252111673355103,0.5514061450958252
1697842581089314000,2.38231396484375,-0.42288875579833984,-1.1171413660049438,-0.8175909519195557
1697842581099739000,2.39273876953125,-0.48756980895996094,-0.9081249237060547,-0.35250213742256165
1697842581109717000,2.402717041015625,-0.42415332794189453,-1.1410164833068848,0.45426884293556213
1697842581119420000,2.412419921875,0.6126298904418945,-0.21508052945137024,-0.7304438352584839
1697842581129715000,2.42271484375,0.8820819854736328,-0.5702794194221497,-0.8426369428634644
1697842581139637000,2.432636962890625,0.7396621704101562,0.02516108751296997,-0.25165078043937683
1697842581149684000,2.44268408203125,-0.5603227615356445,-0.38317304849624634,0.19502031803131104
1697842581159794000,2.4527939453125,-0.10535049438476562,-0.9639966487884521,-0.6032038927078247
1697842581169867000,2.462866943359375,-0.0108642578125,-1.0737111568450928,-0.9213356375694275
1697842581179777000,2.472777099609375,0.057323455810546875,-1.0644325017929077,-0.5880958437919617
1697842581189633000,2.482633056640625,0.11953926086425781,-0.5274698138237,-0.4405636489391327
1697842581199757000,2.492757080078125,-0.25504016876220703,-0.382371723651886,0.12773261964321136
1697842581209731000,2.50273095703125,-0.6570539474487305,0.08168601989746094,-0.5834013223648071
1697842581219242000,2.512241943359375,0.14053821563720703,-0.47264039516448975,-0.67085200548172
1697842581229400000,2.522400146484375,0.2173910140991211,-0.356101930141449,-0.37070590257644653
1697842581239407000,2.532406982421875,0.36013317108154297,-0.6090529561042786,-0.6967394351959229
1697842581250050000,2.543050048828125,-0.3471794128417969,-0.6670597195625305,-0.6462730765342712
1697842581259337000,2.5523369140625,-0.5697097778320312,-0.6212009191513062,-0.45859047770500183
1697842581269714000,2.5627138671875,-1.4100170135498047,-0.3045111894607544,0.48016029596328735
1697842581279334000,2.572333984375,-1.0100440979003906,-0.47884732484817505,-0.14617440104484558
1697842581290089000,2.5830888671875,-0.6962432861328125,-0.4238694906234741,0.09591510891914368
1697842581300554000,2.593553955078125,-0.3069934844970703,-0.5358473062515259,0.8266441822052002
1697842581309493000,2.602492919921875,0.25940608978271484,-0.9884333610534668,0.02868424355983734
1697842581320092000,2.613091796875,0.0908050537109375,-0.384492427110672,-1.2867670059204102
1697842581330287000,2.623287109375,0.9565019607543945,-1.1023380756378174,-0.1303217113018036
1697842581340279000,2.633279052734375,0.48496532440185547,-0.1618070900440216,0.7930485010147095
1697842581350572000,2.643572021484375,0.13688373565673828,-0.322803795337677,-0.9979769587516785
1697842581360161000,2.6531611328125,-0.15489768981933594,0.09355652332305908,-0.22170138359069824
1697842581369429000,2.662428955078125,-0.4060544967651367,-0.6197707056999207,-0.320622056722641
1697842581379504000,2.672504150390625,-0.8894815444946289,-0.17135962843894958,-0.44046711921691895
1697842581390330000,2.683330078125,-0.2752647399902344,-1.330231785774231,-0.578944742679596
1697842581400730000,2.693730224609375,0.02886676788330078,-0.3264513611793518,-0.33226245641708374
1697842581410480000,2.703480224609375,-0.045215606689453125,-0.7659091949462891,-0.4638955593109131
1697842581419939000,2.71293896484375,0.13580894470214844,-0.3789762258529663,-0.5731922388076782
1697842581430417000,2.7234169921875,-0.18711471557617188,-0.7644959092140198,-0.27486518025398254
1697842581440287000,2.733286865234375,-0.3663473129272461,-0.09937864542007446,-0.19744566082954407
1697842581450572000,2.743572021484375,-0.8604373931884766,-0.553270697593689,0.0484650582075119
1697842581460283000,2.753282958984375,-0.5296735763549805,-0.07061010599136353,0.17469802498817444
1697842581470135000,2.763135009765625,0.22963237762451172,-0.24227043986320496,-0.7060501575469971
1697842581479898000,2.772898193359375,0.020517349243164062,0.08826851844787598,0.15791094303131104
1697842581489500000,2.7825,-0.5274171829223633,0.10722756385803223,-0.18045079708099365
1697842581500576000,2.793575927734375,-0.5259666442871094,-0.947770357131958,-0.21672430634498596
1697842581510284000,2.803283935546875,-0.4911346435546875,-0.2661541998386383,0.10110063850879669
1697842581520173000,2.813173095703125,-1.0919246673583984,-0.7632385492324829,0.9342865347862244
1697842581530362000,2.823362060546875,-0.3818340301513672,-0.2589643895626068,-0.19491535425186157
1697842581540286000,2.833285888671875,0.3223857879638672,2.282275676727295,0.20175936818122864
1697842581550567000,2.84356689453125,0.5637922286987305,6.179910659790039,-0.18027399480342865
1697842581559598000,2.85259814453125,0.5651264190673828,6.159914016723633,-3.281507730484009
1697842581569718000,2.862718017578125,-0.6294050216674805,5.059092044830322,1.3269860744476318
1697842581579703000,2.872703125,-1.7353105545043945,7.215566635131836,-1.5109293460845947
1697842581589726000,2.882725830078125,-0.7952718734741211,7.495569229125977,-1.925126314163208
1697842581599814000,2.89281396484375,-0.9746971130371094,8.396089553833008,-0.23983384668827057
1697842581609760000,2.902760009765625,-1.3443078994750977,8.587776184082031,0.5495301485061646
1697842581619821000,2.912821044921875,-1.8421306610107422,9.379561424255371,0.7949338555335999
1697842581629694000,2.92269384765625,-0.9001083374023438,10.663456916809082,-2.8719701766967773
1697842581639751000,2.9327509765625,-0.6585102081298828,11.552577018737793,-2.919166088104248
1697842581649794000,2.9427939453125,1.2374801635742188,10.00715160369873,2.1161036491394043
1697842581659842000,2.952842041015625,-1.206700325012207,10.359724044799805,1.0808935165405273
1697842581669650000,2.96264990234375,1.2669916152954102,7.116174697875977,-1.2829774618148804
1697842581679387000,2.972386962890625,-1.1068544387817383,8.388978004455566,-1.3436154127120972
1697842581689982000,2.98298193359375,-0.7823972702026367,8.887758255004883,-2.446054697036743
1697842581699702000,2.992701904296875,-0.43572998046875,8.745000839233398,-0.5874576568603516
1697842581709911000,3.0029111328125,-1.3112926483154297,10.289642333984375,2.2102508544921875
1697842581719348000,3.012347900390625,-0.9849872589111328,10.197327613830566,-1.3138939142227173
1697842581729193000,3.02219287109375,-0.16697120666503906,11.223533630371094,-2.246422529220581
1697842581739253000,3.0322529296875,2.13034725189209,9.75432300567627,-0.458220511674881
1697842581749143000,3.04214306640625,0.8972959518432617,8.86866569519043,-0.0893465131521225
1697842581759392000,3.05239208984375,1.7104625701904297,8.43101978302002,3.1620328426361084
1697842581769459000,3.062458984375,-0.043074607849121094,9.820072174072266,-0.9274037480354309
1697842581779686000,3.072685791015625,0.1831340789794922,12.442716598510742,-8.126604080200195
1697842581789764000,3.08276416015625,0.6933660507202148,12.118253707885742,2.3851735591888428
1697842581799573000,3.092572998046875,-0.21730995178222656,10.404590606689453,4.440667629241943
1697842581809636000,3.102635986328125,1.9396238327026367,10.47622299194336,-8.794078826904297
1697842581819705000,3.112705078125,1.5194368362426758,10.840614318847656,-3.870551109313965
1697842581829365000,3.122364990234375,-0.5044641494750977,11.01819896697998,3.54475998878479
1697842581839561000,3.13256103515625,-0.5901479721069336,10.721014976501465,-1.116802453994751
1697842581849639000,3.142638916015625,-0.07923603057861328,9.690451622009277,-0.29114872217178345
1697842581859647000,3.15264697265625,-0.09116268157958984,10.334153175354004,1.9984933137893677
1697842581869714000,3.1627138671875,0.7869167327880859,10.70905876159668,0.2664700150489807
1697842581879943000,3.17294287109375,0.906376838684082,10.35671329498291,-2.882411003112793
1697842581890169000,3.183169189453125,0.9201450347900391,10.692137718200684,-2.0639395713806152
1697842581899769000,3.19276904296875,-1.743743896484375,10.058380126953125,-1.2628859281539917
1697842581909522000,3.20252197265625,-1.2995357513427734,8.808940887451172,1.0997833013534546
1697842581919294000,3.2122939453125,-1.1553268432617188,8.926356315612793,-1.2498866319656372
1697842581929354000,3.22235400390625,-0.5731067657470703,9.613802909851074,-6.30856990814209
1697842581939749000,3.2327490234375,-1.030888557434082,9.868606567382812,0.7477542757987976
1697842581949605000,3.242605224609375,-2.523855209350586,11.334983825683594,2.2124030590057373
1697842581959379000,3.25237890625,0.19295120239257812,8.6920747756958,-4.716177940368652
1697842581969935000,3.26293505859375,-0.8075637817382812,10.327404975891113,-2.4069478511810303
1697842581979379000,3.27237890625,-0.17353534698486328,6.800571918487549,0.923496663570404
1697842581989221000,3.28222119140625,-2.464725971221924,7.495030879974365,1.1809214353561401
1697842581999463000,3.292462890625,-0.7871313095092773,7.583735942840576,0.6590660214424133
1697842582011104000,3.30410400390625,-1.7396163940429688,8.846668243408203,-2.1520133018493652
1697842582019752000,3.312751953125,-2.383857250213623,7.015478134155273,1.8255314826965332
1697842582029297000,3.322296875,-1.6195335388183594,6.620802879333496,-1.3952133655548096
1697842582039529000,3.332529052734375,-1.6878700256347656,5.924045562744141,-2.3318982124328613
1697842582049142000,3.34214208984375,-1.2006845474243164,5.987677574157715,-0.010134726762771606
1697842582059609000,3.352609130859375,-1.0107173919677734,6.59544038772583,-0.8252837061882019
1697842582069835000,3.3628349609375,-0.7206125259399414,8.308061599731445,-0.8870102763175964
1697842582079623000,3.372622802734375,-0.8501625061035156,10.314870834350586,1.9777721166610718
1697842582089917000,3.3829169921875,-1.743429183959961,10.09248161315918,-1.7512937784194946
1697842582099242000,3.392241943359375,-2.098888397216797,6.888620853424072,-3.3200571537017822
1697842582109935000,3.40293505859375,-2.156622886657715,3.9502317905426025,1.6953139305114746
1697842582119670000,3.412669921875,-1.8822741508483887,5.893825054168701,4.433072566986084
1697842582129783000,3.422782958984375,-0.6564121246337891,6.234850883483887,-0.47524958848953247
1697842582139693000,3.432693115234375,-0.9174613952636719,8.792041778564453,-1.9524158239364624
1697842582149333000,3.4423330078125,-0.9158496856689453,9.944971084594727,-0.9208799004554749
1697842582159790000,3.4527900390625,-0.42481327056884766,9.941312789916992,-1.2325667142868042
1697842582169348000,3.46234814453125,-0.4484720230102539,8.122533798217773,0.9120088815689087
1697842582179168000,3.47216796875,-1.2681236267089844,9.109024047851562,-1.7911293506622314
1697842582189376000,3.4823759765625,-0.589752197265625,7.500102519989014,-2.3900179862976074
1697842582199716000,3.492716064453125,-1.699758529663086,8.77895450592041,2.046459436416626
1697842582209915000,3.502914794921875,-0.22603225708007812,8.356574058532715,3.761526346206665
1697842582219439000,3.512439208984375,-0.534428596496582,8.375081062316895,-1.1166112422943115
1697842582229668000,3.522668212890625,-0.20416259765625,9.252812385559082,-5.081997871398926
1697842582240408000,3.533407958984375,0.40341758728027344,8.81667423248291,-1.5035767555236816
1697842582249386000,3.542385986328125,0.22074604034423828,8.459213256835938,1.382447361946106
1697842582259262000,3.552261962890625,0.244140625,8.055346488952637,-1.468726396560669
1697842582269391000,3.56239111328125,-0.7443780899047852,10.803003311157227,-2.927065849304199
1697842582279249000,3.572248779296875,-0.40045166015625,10.714179039001465,-1.927656650543213
1697842582289343000,3.582343017578125,0.1870708465576172,8.990202903747559,3.7554707527160645
1697842582299991000,3.592990966796875,0.2773475646972656,6.441415786743164,-1.9248697757720947
1697842582309554000,3.602553955078125,0.9689617156982422,7.821674823760986,-4.675145149230957
1697842582320482000,3.61348193359375,1.1568984985351562,10.446581840515137,-0.41470175981521606
1697842582330767000,3.62376708984375,0.9560670852661133,9.793224334716797,1.4654868841171265
1697842582340143000,3.63314306640625,0.9780683517456055,9.340596199035645,-1.5223666429519653
1697842582349636000,3.642635986328125,0.4346036911010742,10.519680976867676,-1.1531856060028076
1697842582359380000,3.6523798828125,0.6851205825805664,11.149404525756836,0.709229588508606
1697842582369636000,3.662635986328125,0.10171127319335938,11.22711181640625,0.5378385186195374
1697842582380029000,3.67302880859375,0.5793552398681641,8.07275104522705,-0.24147415161132812
1697842582389322000,3.682322021484375,-0.1634654998779297,9.525907516479492,-2.7746615409851074
1697842582399710000,3.6927099609375,0.8485040664672852,9.942399024963379,-1.0315171480178833
1697842582409379000,3.702379150390625,0.2873554229736328,10.790335655212402,0.2993236184120178
1697842582419948000,3.712947998046875,1.0355300903320312,9.782756805419922,-0.8776283860206604
1697842582430684000,3.723683837890625,0.31458282470703125,10.754290580749512,-0.228628471493721
1697842582440288000,3.7332880859375,-0.4004631042480469,10.51417350769043,-0.8899749517440796
1697842582449989000,3.742989013671875,0.6441946029663086,8.903553009033203,-1.280861496925354
1697842582459479000,3.75247900390625,-0.7587690353393555,9.909321784973145,0.39133405685424805
1697842582470298000,3.763298095703125,-0.30042171478271484,9.308111190795898,-0.6515973210334778
1697842582479573000,3.772572998046875,-0.7485065460205078,10.684067726135254,-0.9788271188735962
1697842582490632000,3.7836318359375,0.43274497985839844,9.875738143920898,-0.33991366624832153
1697842582499956000,3.7929560546875,-0.24853134155273438,10.416488647460938,0.8410345315933228
1697842582509477000,3.80247705078125,0.8420543670654297,10.07227897644043,0.4051636755466461
1697842582520457000,3.81345703125,0.41704559326171875,9.841859817504883,-0.42974400520324707
1697842582529596000,3.822595947265625,0.07493019104003906,9.556051254272461,-3.882749080657959
1697842582540686000,3.83368603515625,0.7225580215454102,10.138298034667969,-2.604192018508911
1697842582549488000,3.842488037109375,-0.40260791778564453,9.148713111877441,1.1532000303268433
1697842582560306000,3.853305908203125,-1.2293367385864258,9.253641128540039,1.4585585594177246
1697842582570261000,3.863260986328125,-1.5526313781738281,8.002772331237793,0.3142811954021454
1697842582580256000,3.873256103515625,-0.5907258987426758,9.069286346435547,-2.2931511402130127
1697842582590318000,3.883318115234375,-0.6477336883544922,9.064359664916992,-1.427934169769287
1697842582599782000,3.892781982421875,-1.7161140441894531,8.649252891540527,2.0286428928375244
1697842582609482000,3.90248193359375,-1.3333463668823242,7.340048313140869,-3.108827590942383
1697842582620446000,3.913446044921875,-1.2487773895263672,7.586108684539795,-1.8768526315689087
1697842582629577000,3.922576904296875,-2.230567455291748,9.56285572052002,0.4387668967247009
1697842582640426000,3.933426025390625,-1.7538752555847168,7.941287040710449,-0.7468073964118958
1697842582650318000,3.943318115234375,-1.9728455543518066,6.8976149559021,-0.29995453357696533
1697842582659314000,3.95231396484375,-1.8352837562561035,7.2241997718811035,0.06416575610637665
1697842582670587000,3.9635869140625,-0.7390813827514648,7.182938098907471,0.5922653079032898
1697842582679450000,3.9724501953125,-2.2893123626708984,7.434837341308594,0.0607069730758667
1697842582689449000,3.982448974609375,-1.1748762130737305,6.293783187866211,-3.976386070251465
1697842582699640000,3.99264013671875,-0.7157163619995117,9.48811149597168,-1.7537577152252197
1697842582709569000,4.002569091796875,-1.217341423034668,8.918907165527344,1.6814768314361572
1697842582720512000,4.013511962890625,-2.246217727661133,8.03890323638916,0.9018106460571289
1697842582729556000,4.022555908203125,-0.6548423767089844,7.524258613586426,-3.6486380100250244
1697842582740613000,4.033613037109375,-1.4598684310913086,7.573964595794678,-0.0031143277883529663
1697842582749991000,4.042990966796875,-1.8556084632873535,6.524537086486816,2.706068992614746
1697842582759430000,4.052429931640625,0.22379589080810547,6.302887916564941,-4.479825019836426
1697842582769554000,4.062553955078125,-0.18340778350830078,3.415306329727173,-0.6755531430244446
1697842582779516000,4.072515869140625,-1.4324331283569336,5.66288948059082,3.7173643112182617
1697842582790732000,4.08373193359375,-0.6037921905517578,10.266424179077148,1.1621171236038208
1697842582800426000,4.093426025390625,-1.0809659957885742,7.921163558959961,-5.022459983825684
1697842582810338000,4.103338134765625,-0.9656763076782227,9.747483253479004,-1.9815670251846313
1697842582819492000,4.1124921875,-0.9660253524780273,7.040183067321777,2.7148425579071045
1697842582829482000,4.12248193359375,-1.510849952697754,8.251200675964355,0.3955586850643158
1697842582839835000,4.1328349609375,-0.8627357482910156,7.025964260101318,-2.9373672008514404
1697842582850133000,4.143133056640625,-0.13056278228759766,6.464966773986816,-0.37569448351860046
1697842582859673000,4.152673095703125,-0.6653232574462891,6.664954662322998,6.419074535369873
1697842582870386000,4.163385986328125,-0.21146392822265625,8.895771980285645,-4.741528034210205
1697842582880498000,4.173497802734375,0.5323848724365234,8.348440170288086,-5.583053112030029
1697842582890602000,4.18360205078125,-0.34676456451416016,11.742488861083984,3.4970579147338867
1697842582899630000,4.192630126953125,-0.6882152557373047,9.63095760345459,4.989900588989258
1697842582909672000,4.202671875,-1.291621208190918,8.948371887207031,-3.9063611030578613
1697842582919936000,4.21293603515625,-0.24303913116455078,7.522296905517578,-4.74006462097168
1697842582930387000,4.223386962890625,-0.45517730712890625,8.139657974243164,0.504038393497467
1697842582939526000,4.23252587890625,0.21958255767822266,8.100980758666992,2.476926326751709
1697842582950324000,4.243323974609375,0.2254180908203125,8.543414115905762,-0.23677751421928406
1697842582959246000,4.25224609375,1.7770452499389648,8.745001792907715,-1.9321277141571045
1697842582970396000,4.26339599609375,-0.1322174072265625,11.66836166381836,-3.193871021270752
1697842582979441000,4.27244091796875,1.4727420806884766,10.640050888061523,1.3802804946899414
1697842582989404000,4.28240380859375,-0.19726181030273438,11.379061698913574,0.3897366523742676
1697842583000203000,4.293203125,1.3629684448242188,9.560123443603516,-2.008010149002075
1697842583012121000,4.30512109375,-0.4281187057495117,8.976866722106934,-0.46861791610717773
1697842583029114000,4.322114013671875,0.37000465393066406,9.113167762756348,0.09240779280662537
1697842583039119000,4.332119140625,-0.07430076599121094,9.073938369750977,-1.2269999980926514
1697842583049123000,4.342123046875,1.1601486206054688,9.897583961486816,-1.4505811929702759
1697842583059294000,4.3522939453125,0.3417854309082031,10.84752082824707,-0.9764326810836792
1697842583070372000,4.3633720703125,0.4877052307128906,9.790908813476562,-0.7939856052398682
1697842583079436000,4.37243603515625,0.15358448028564453,10.298942565917969,0.16727395355701447
1697842583090260000,4.383260009765625,0.03865623474121094,9.885360717773438,-0.5813572406768799
1697842583099470000,4.392469970703125,-0.008111953735351562,9.357440948486328,-0.4668479263782501
1697842583109489000,4.402489013671875,0.1713104248046875,9.106657981872559,-0.9772872924804688
1697842583120201000,4.413200927734375,0.07760238647460938,8.47553825378418,-1.361128568649292
1697842583129412000,4.422412109375,-0.21405887603759766,8.764934539794922,-0.24620124697685242
1697842583140042000,4.4330419921875,-0.24376773834228516,8.124717712402344,-1.3946257829666138
1697842583150336000,4.4433359375,-0.0328216552734375,6.68076229095459,-1.1305506229400635
1697842583159422000,4.452421875,-0.056870460510253906,5.25295352935791,-0.23567715287208557
1697842583170214000,4.4632138671875,-0.23936843872070312,3.651498317718506,-0.2984398305416107
1697842583179357000,4.47235693359375,-0.22702598571777344,1.8739707469940186,-0.7357430458068848
1697842583189923000,4.482923095703125,0.039320945739746094,0.050666213035583496,-0.5487937927246094
1697842583199404000,4.492404052734375,0.17840862274169922,-0.9097537994384766,-0.9329506158828735
1697842583209443000,4.502443115234375,0.6953191757202148,-1.9783036708831787,-0.28705376386642456
1697842583219337000,4.5123369140625,0.8524599075317383,-2.5845580101013184,-0.6594122648239136
1697842583229343000,4.522343017578125,1.4871244430541992,-4.254376411437988,-0.8054221272468567
1697842583240005000,4.533005126953125,2.014063835144043,-4.839846611022949,-0.45829132199287415
1697842583249886000,4.542885986328125,1.701888084411621,-5.061944007873535,0.02569451928138733
1697842583259295000,4.552294921875,1.6990022659301758,-4.378796100616455,-0.9694598317146301
1697842583270266000,4.56326611328125,1.9608097076416016,-3.1833479404449463,-1.0061638355255127
1697842583279456000,4.5724560546875,1.6113929748535156,-4.062560081481934,-1.0130690336227417
1697842583289442000,4.582442138671875,0.9336566925048828,-3.7997899055480957,0.38691866397857666
1697842583300346000,4.59334619140625,0.31940555572509766,-3.5112810134887695,0.05198701471090317
1697842583309489000,4.602489013671875,-0.32651615142822266,-4.400756359100342,-0.7646883130073547
1697842583320464000,4.6134638671875,-0.8812751770019531,-5.3054351806640625,0.21207547187805176
1697842583329470000,4.622469970703125,-1.3033685684204102,-5.5145063400268555,0.35286515951156616
1697842583340168000,4.63316796875,-1.5902109146118164,-5.182018280029297,-0.8378588557243347
1697842583350151000,4.64315087890625,-1.6868410110473633,-5.06080436706543,-0.6741541028022766
1697842583359486000,4.65248583984375,-2.3128457069396973,-5.830920219421387,0.3200114071369171
1697842583370348000,4.66334814453125,-1.996755599975586,-5.019454002380371,0.24040701985359192
1697842583379272000,4.67227197265625,-1.4341926574707031,-0.7013628482818604,0.09610246121883392
1697842583389524000,4.68252392578125,-2.4663023948669434,-1.0374888181686401,1.0434834957122803
1697842583399338000,4.692337890625,-2.1140666007995605,-0.15105408430099487,1.6736769676208496
1697842583409783000,4.702782958984375,-3.1098461151123047,-2.7962353229522705,0.7965292930603027
1697842583420573000,4.713572998046875,-1.6599674224853516,-2.185448169708252,0.3681207001209259
1697842583430073000,4.723072998046875,-2.81569242477417,-2.467287540435791,-3.1695666313171387
1697842583440246000,4.73324609375,-2.051663875579834,-1.0113170146942139,1.4466115236282349
1697842583450599000,4.743598876953125,-2.9528160095214844,0.2800533175468445,1.3643325567245483
1697842583460546000,4.753546142578125,-2.0387754440307617,0.66679847240448,-0.5765182375907898
1697842583470456000,4.7634560546875,-1.9143047332763672,0.1926344633102417,-3.259045362472534
1697842583479597000,4.77259716796875,-0.5752134323120117,2.2277145385742188,-0.3778640329837799
1697842583489869000,4.782869140625,-1.7033720016479492,4.101736068725586,2.8949642181396484
1697842583500456000,4.7934560546875,-0.30986595153808594,4.131911754608154,-1.2919929027557373
1697842583510450000,4.803449951171875,0.6526556015014648,3.6647050380706787,-1.0957273244857788
1697842583520297000,4.813296875,-1.0210914611816406,1.5097520351409912,3.0546622276306152
1697842583530094000,4.823093994140625,0.024849891662597656,-0.7993346452713013,1.1553001403808594
1697842583539510000,4.832510009765625,0.5049610137939453,-1.3687760829925537,0.4901241064071655
1697842583549712000,4.8427119140625,0.13962364196777344,-1.2947616577148438,-0.17764423787593842
1697842583559527000,4.85252685546875,0.6964664459228516,-1.425048828125,0.06222370266914368
1697842583570229000,4.86322900390625,0.8424568176269531,-1.393534779548645,0.32759973406791687
1697842583579276000,4.872276123046875,1.0999870300292969,-1.7332195043563843,0.23432502150535583
1697842583590185000,4.88318505859375,1.178140640258789,-1.9242057800292969,0.36338376998901367
1697842583600717000,4.893717041015625,1.1344232559204102,-2.0685176849365234,0.14928226172924042
1697842583609768000,4.902767822265625,0.9917192459106445,-2.130141258239746,-0.12801040709018707
1697842583619576000,4.912576171875,0.9246253967285156,-2.0927789211273193,-0.3108130097389221
1697842583629458000,4.9224580078125,0.9530973434448242,-2.0027174949645996,-0.47887754440307617
1697842583639954000,4.932953857421875,0.9157428741455078,-1.645530104637146,-0.2379702925682068
1697842583650389000,4.943388916015625,0.890350341796875,-1.3250572681427002,0.4173111915588379
1697842583659407000,4.952406982421875,0.5992517471313477,-0.9603739976882935,-0.4480040967464447
1697842583669728000,4.96272802734375,0.48391151428222656,-0.5039927959442139,-1.0177608728408813
1697842583679529000,4.972529052734375,0.543243408203125,-0.21350163221359253,-1.202410340309143
1697842583690470000,4.983469970703125,0.5082206726074219,-0.4534241557121277,-0.38311460614204407
1697842583699209000,4.992208984375,0.4301128387451172,-0.4622347950935364,-0.3810579180717468
1697842583710526000,5.00352587890625,0.3271980285644531,-0.14125984907150269,-0.05988401174545288
1697842583720268000,5.01326806640625,0.29154205322265625,0.06654214859008789,-0.49247023463249207
1697842583729432000,5.02243212890625,0.16263103485107422,0.24242758750915527,-0.575495183467865
1697842583739983000,5.032983154296875,0.1220693588256836,0.20287632942199707,-0.27311283349990845
1697842583750448000,5.0434482421875,0.07037067413330078,0.2804999351501465,-0.3435449004173279
1697842583759509000,5.052509033203125,0.11658096313476562,0.2658102512359619,-0.5197510719299316
1697842583770464000,5.063464111328125,0.31342220306396484,0.27696430683135986,-0.3553815186023712
1697842583779364000,5.072364013671875,0.30406761169433594,0.1770240068435669,-0.03534727543592453
1697842583789913000,5.0829130859375,0.31145763397216797,0.19569730758666992,-0.19626809656620026
1697842583800594000,5.093593994140625,0.27339935302734375,0.025917649269104004,-0.4322620630264282
1697842583809531000,5.10253076171875,0.37776756286621094,-0.07659769058227539,-0.2562088966369629
1697842583820299000,5.113299072265625,0.36348915100097656,-0.26647353172302246,-0.12482267618179321
1697842583830096000,5.123095947265625,0.4878988265991211,-0.45719069242477417,-0.37891435623168945
1697842583839505000,5.1325048828125,0.5258951187133789,-0.698607325553894,-0.2572720944881439
1697842583850146000,5.14314599609375,0.5710277557373047,-0.7156435251235962,-0.056426238268613815
1697842583860343000,5.153343017578125,0.6867704391479492,-0.7851861119270325,-0.13075020909309387
1697842583869635000,5.162635009765625,0.6924829483032227,-0.7851415276527405,-0.19785431027412415
1697842583880277000,5.173277099609375,0.6788225173950195,-0.6756958961486816,-0.10626228153705597
1697842583890457000,5.18345703125,0.6216459274291992,-0.7959929704666138,-0.2932179868221283
1697842583900828000,5.193827880859375,0.6206827163696289,-0.8086192607879639,-0.15383422374725342
1697842583910302000,5.203302001953125,0.5209684371948242,-0.902471661567688,-0.08749357610940933
1697842583919593000,5.212593017578125,0.5636844635009766,-1.0137754678726196,0.03872337192296982
1697842583929781000,5.222781005859375,0.514155387878418,-1.142337441444397,0.15389448404312134
1697842583939304000,5.232303955078125,0.4454669952392578,-1.1463195085525513,0.1707858443260193
1697842583950357000,5.24335693359375,0.3765230178833008,-1.05185067653656,0.042675942182540894
1697842583959690000,5.25268994140625,0.2906990051269531,-0.8629158139228821,-0.018203914165496826
1697842583969472000,5.262471923828125,0.11215496063232422,-0.8143327236175537,-0.07361527532339096
1697842583980272000,5.273272216796875,0.016271591186523438,-0.6945648789405823,0.018332503736019135
1697842583989859000,5.282859130859375,-0.09166526794433594,-0.7103803157806396,0.06940232962369919
1697842584000908000,5.293907958984375,-0.0870370864868164,-0.6813865303993225,0.08861750364303589
1697842584009193000,5.30219287109375,-0.1768198013305664,-0.7591980695724487,0.09220880270004272
1697842584019182000,5.31218212890625,-0.2294921875,-0.7220879793167114,0.14966963231563568
1697842584029425000,5.3224248046875,-0.28610992431640625,-0.7095518708229065,0.05614117532968521
1697842584039606000,5.33260595703125,-0.3671102523803711,-0.7232825756072998,-0.022460907697677612
1697842584049169000,5.3421689453125,-0.48443126678466797,-0.74864262342453,-0.019083760678768158
1697842584059249000,5.352248779296875,-0.5155162811279297,-0.7277930378913879,0.05095230042934418
1697842584069328000,5.362327880859375,-0.544133186340332,-0.6694495677947998,-0.058804549276828766
1697842584079388000,5.372387939453125,-0.5964212417602539,-0.6000203490257263,-0.14723384380340576
1697842584089326000,5.382326171875,-0.6426029205322266,-0.6106128692626953,-0.02194298803806305
1697842584099705000,5.392705078125,-0.6804256439208984,-0.6421324014663696,0.14290836453437805
1697842584109226000,5.40222607421875,-0.6178550720214844,-0.641913115978241,-0.014405764639377594
1697842584119728000,5.41272802734375,-0.5508890151977539,-0.787266731262207,-0.1777867078781128
1697842584129455000,5.422455078125,-0.48152923583984375,-0.8774891495704651,-0.04455536603927612
1697842584139376000,5.432376220703125,-0.41095733642578125,-0.867347776889801,-0.07899849861860275
1697842584149635000,5.442635009765625,-0.32834529876708984,-0.866474449634552,-0.11471213400363922
1697842584159256000,5.452256103515625,-0.30621814727783203,-0.8250944018363953,-0.08291789889335632
1697842584169712000,5.462712158203125,-0.2730093002319336,-0.7252673506736755,-0.005886390805244446
1697842584179468000,5.472468017578125,-0.20345783233642578,-0.6597666144371033,-0.15920725464820862
1697842584189687000,5.48268701171875,-0.1325244903564453,-0.5761974453926086,-0.24858932197093964
1697842584200194000,5.493194091796875,-0.08577823638916016,-0.6048021912574768,-0.29181548953056335
1697842584209384000,5.502384033203125,-0.023450851440429688,-0.6277389526367188,-0.1174369752407074
1697842584220429000,5.513428955078125,0.011334419250488281,-0.577487051486969,-0.011306662112474442
1697842584229612000,5.522612060546875,0.0519866943359375,-0.4973863363265991,-0.1448768675327301
1697842584240016000,5.533015869140625,0.08107757568359375,-0.4243404269218445,-0.029033038765192032
1697842584249473000,5.54247314453125,0.06270408630371094,-0.40954914689064026,-0.02212987095117569
1697842584259388000,5.552387939453125,0.09946632385253906,-0.26747745275497437,-0.14296378195285797
1697842584270426000,5.563426025390625,0.14830303192138672,-0.20801706612110138,-0.2281462401151657
1697842584279345000,5.572344970703125,0.1817312240600586,-0.2022421509027481,-0.18989546597003937
1697842584289443000,5.582443115234375,0.10980606079101562,-0.20220495760440826,-0.06886875629425049
1697842584300433000,5.593432861328125,0.1674184799194336,-0.08144897222518921,0.06521140038967133
1697842584309541000,5.602541015625,0.1891469955444336,-0.04869994521141052,0.02228531613945961
1697842584319364000,5.612364013671875,0.15943145751953125,0.06115022301673889,-0.07896754145622253
1697842584329539000,5.6225390625,0.08786487579345703,-0.006057620048522949,-0.07110679894685745
1697842584339858000,5.63285791015625,0.10725879669189453,0.057777076959609985,0.009514791890978813
1697842584350568000,5.64356787109375,0.061981201171875,0.056444644927978516,-0.26153942942619324
1697842584359459000,5.652458984375,0.0038862228393554688,0.1204429566860199,-0.19377398490905762
1697842584370624000,5.6636240234375,-0.0869131088256836,0.20982453227043152,-0.036346685141325
1697842584379828000,5.672827880859375,-0.053241729736328125,0.22080928087234497,0.22267156839370728
1697842584389477000,5.68247705078125,-0.003989219665527344,0.2780969440937042,-0.009172811172902584
1697842584400268000,5.69326806640625,-0.1450510025024414,0.1122485101222992,0.021926622837781906
1697842584409469000,5.702468994140625,-0.19153881072998047,0.0253944993019104,0.08219647407531738
1697842584419401000,5.71240087890625,-0.3697700500488281,0.09907373785972595,0.07049202173948288
1697842584429943000,5.722943115234375,-0.35407161712646484,-0.1001116931438446,-0.2317342758178711
1697842584439545000,5.732545166015625,-0.3659324645996094,-0.11915522813796997,-0.034555383026599884
1697842584450603000,5.74360302734375,-0.5226850509643555,-0.280968576669693,0.016578027978539467
1697842584459461000,5.752461181640625,-0.5849237442016602,-0.32429617643356323,0.1745123267173767
1697842584470467000,5.763467041015625,-0.5550765991210938,-0.2962489724159241,0.13700200617313385
1697842584479440000,5.77243994140625,-0.7000579833984375,-0.4347015917301178,0.025527916848659515
1697842584489447000,5.782447021484375,-0.5242862701416016,-0.6279298067092896,-0.010622736066579819
1697842584500566000,5.79356591796875,-0.4670429229736328,-0.6711388826370239,0.19244442880153656
1697842584509452000,5.8024521484375,-0.4672527313232422,-0.5791682004928589,0.11700677871704102
1697842584520535000,5.81353515625,-0.29627323150634766,-0.5710520148277283,-0.07194305956363678
1697842584529561000,5.82256103515625,-0.29729652404785156,-0.5481059551239014,0.10711324959993362
1697842584539381000,5.832381103515625,-0.2939434051513672,-0.6035873889923096,-0.10879112780094147
1697842584549156000,5.842156005859375,-0.1098470687866211,-0.6298354864120483,-0.05811901018023491
1697842584559302000,5.852302001953125,0.00357818603515625,-0.6812772154808044,-0.12866024672985077
1697842584569155000,5.862155029296875,0.17564868927001953,-0.6988170146942139,0.14651228487491608
1697842584579355000,5.87235498046875,0.1645364761352539,-0.5635246634483337,0.21865695714950562
1697842584589685000,5.88268505859375,0.2157001495361328,-0.6106820106506348,0.060887910425662994
1697842584599470000,5.892469970703125,0.3614692687988281,-0.6609752774238586,0.05998707190155983
1697842584609131000,5.902131103515625,0.40428924560546875,-0.6740443110466003,0.1082044467329979
1697842584619127000,5.912126953125,0.4004354476928711,-0.7112632989883423,0.22977404296398163
1697842584629169000,5.9221689453125,0.5941438674926758,-0.6716433763504028,-0.16052433848381042
1697842584639365000,5.932365234375,0.5832014083862305,-0.583118736743927,-0.0030658720061182976
1697842584650106000,5.943106201171875,0.5483388900756836,-0.5945253372192383,0.017129961401224136
1697842584659963000,5.952962890625,0.608057975769043,-0.5798906087875366,0.11123305559158325
1697842584669773000,5.96277294921875,0.7226352691650391,-0.537514328956604,-0.04313039034605026
1697842584680446000,5.973446044921875,0.667180061340332,-0.5281373858451843,0.0069692726247012615
1697842584689402000,5.982402099609375,0.6452875137329102,-0.5616933107376099,0.0079182805493474
1697842584699663000,5.9926630859375,0.7036476135253906,-0.5783707499504089,0.0787866860628128
1697842584709409000,6.002408935546875,0.7010078430175781,-0.5414639711380005,-0.040945038199424744
1697842584720279000,6.013279052734375,0.6373052597045898,-0.5062333345413208,-0.06372074037790298
1697842584729500000,6.0225,0.6011800765991211,-0.5308624505996704,-0.18250101804733276
1697842584739918000,6.03291796875,0.5817670822143555,-0.547676682472229,0.030074838548898697
1697842584750407000,6.043406982421875,0.6701631546020508,-0.5345068573951721,-0.00761481374502182
1697842584759655000,6.052655029296875,0.5442676544189453,-0.49068981409072876,-0.08946561813354492
1697842584770437000,6.06343701171875,0.4985485076904297,-0.47536608576774597,-0.07449765503406525
1697842584779473000,6.072472900390625,0.5079183578491211,-0.5484102964401245,0.14221890270709991
1697842584790104000,6.08310400390625,0.4658060073852539,-0.4423595070838928,0.03889372944831848
1697842584800295000,6.093294921875,0.4692354202270508,-0.42176470160484314,-0.07643407583236694
1697842584809397000,6.10239697265625,0.42623329162597656,-0.397227942943573,-0.16360324621200562
1697842584820361000,6.11336083984375,0.3963785171508789,-0.47944360971450806,-0.08559906482696533
1697842584830143000,6.12314306640625,0.35635948181152344,-0.42067909240722656,-0.01540430635213852
1697842584839414000,6.1324140625,0.29485607147216797,-0.40715324878692627,-0.059559740126132965
1697842584850381000,6.143381103515625,0.1975088119506836,-0.304865300655365,-0.01877143606543541
1697842584859420000,6.152419921875,0.13617324829101562,-0.3067946434020996,-0.07567697018384933
1697842584870212000,6.163212158203125,0.1072998046875,-0.21056796610355377,0.06449353694915771
1697842584880428000,6.173427978515625,0.11205005645751953,-0.22548337280750275,-0.03178250417113304
1697842584890461000,6.1834609375,0.012661933898925781,-0.20127731561660767,-0.05734246224164963
1697842584899832000,6.19283203125,-0.019849777221679688,-0.26297444105148315,0.010133983567357063
1697842584910304000,6.203303955078125,-0.0377655029296875,-0.24570584297180176,0.22966177761554718
1697842584919320000,6.212320068359375,-0.06644630432128906,-0.20019349455833435,0.08586692065000534
1697842584929758000,6.222758056640625,-0.15258216857910156,-0.17051199078559875,-0.018425988033413887
1697842584939637000,6.232636962890625,-0.1705942153930664,-0.19402852654457092,-0.015477772802114487
1697842584949227000,6.24222705078125,-0.15994548797607422,-0.2016945779323578,0.16173507273197174
1697842584959219000,6.252218994140625,-0.15996646881103516,-0.1529558300971985,0.02296721749007702
1697842584969485000,6.262485107421875,-0.203094482421875,-0.16970378160476685,-0.025275778025388718
1697842584979469000,6.272468994140625,-0.2211437225341797,-0.2036164402961731,0.1541614979505539
1697842584989933000,6.28293310546875,-0.2343606948852539,-0.16916373372077942,0.13843536376953125
1697842584999216000,6.292216064453125,-0.24156761169433594,-0.1691575050354004,0.04119487106800079
1697842585009638000,6.302637939453125,-0.26074695587158203,-0.15869782865047455,-0.0507020503282547
1697842585019792000,6.3127919921875,-0.2942962646484375,-0.18380960822105408,0.003517884761095047
1697842585029207000,6.32220703125,-0.27516937255859375,-0.17693248391151428,0.01397949643433094
1697842585039192000,6.332192138671875,-0.2357015609741211,-0.16826477646827698,-0.086948923766613
1697842585049121000,6.34212109375,-0.2536792755126953,-0.14489461481571198,-0.09369383007287979
1697842585059278000,6.352278076171875,-0.24773502349853516,-0.20797866582870483,0.008387810550630093
1697842585069533000,6.362532958984375,-0.2549123764038086,-0.161686971783638,0.1837623566389084
1697842585079317000,6.37231689453125,-0.16512489318847656,-0.14258436858654022,-0.031038595363497734
1697842585089298000,6.3822978515625,-0.20941734313964844,-0.07915401458740234,-0.04080767184495926
1697842585100172000,6.393172119140625,-0.16394519805908203,-0.1388336420059204,-0.05837992951273918
1697842585109417000,6.4024169921875,-0.0957345962524414,-0.17755800485610962,0.03917229548096657
1697842585120048000,6.413048095703125,-0.05264854431152344,-0.11750250309705734,0.03770377114415169
1697842585129860000,6.422860107421875,-0.11848831176757812,-0.05803139507770538,-0.0359005443751812
1697842585139266000,6.43226611328125,-0.039478302001953125,-0.03932499885559082,-0.16424497961997986
1697842585149868000,6.442867919921875,0.015580177307128906,-0.11358556151390076,0.026966316625475883
1697842585159227000,6.452226806640625,0.04909229278564453,-0.07751895487308502,0.10637422651052475
1697842585169621000,6.46262109375,-0.02872180938720703,-0.0891120657324791,-0.06063896045088768
1697842585179739000,6.47273876953125,0.02155590057373047,-0.08729924261569977,-0.1111254096031189
1697842585189424000,6.482424072265625,0.034720420837402344,-0.12748517096042633,-0.03366771712899208
1697842585200242000,6.493241943359375,0.03711414337158203,-0.04481415078043938,0.02372012287378311
1697842585209401000,6.502401123046875,0.11013603210449219,-0.049414582550525665,-0.032014455646276474
1697842585219984000,6.51298388671875,0.09696769714355469,-0.019484324380755424,-0.06311348080635071
1697842585229771000,6.52277099609375,0.11731815338134766,-0.10882537811994553,0.01188659481704235
1697842585239720000,6.532719970703125,0.1400604248046875,-0.07682791352272034,0.0883462131023407
1697842585250343000,6.543343017578125,0.1640033721923828,-0.09134591370820999,-0.05230143666267395
1697842585259410000,6.552409912109375,0.0766153335571289,-0.06055930629372597,-0.06586958467960358
1697842585270188000,6.56318798828125,0.0682363510131836,-0.09531638026237488,-0.03916279599070549
1697842585279658000,6.572657958984375,0.13647174835205078,-0.1745607703924179,0.22707974910736084
1697842585289366000,6.582365966796875,0.1711864471435547,-0.1110522523522377,0.09226342290639877
1697842585299775000,6.59277490234375,0.10774040222167969,-0.08177059888839722,-0.020442059263586998
1697842585309363000,6.602363037109375,0.10414886474609375,-0.12252762913703918,-0.11854341626167297
1697842585320076000,6.613075927734375,0.16998863220214844,-0.1248142197728157,0.16020789742469788
1697842585329582000,6.62258203125,0.1448497772216797,-0.10016357898712158,-0.004815093241631985
1697842585339548000,6.6325478515625,0.06703758239746094,-0.09939052909612656,-0.11158148944377899
1697842585350162000,6.643161865234375,0.07062911987304688,-0.09947021305561066,-0.1326013058423996
1697842585359408000,6.652408203125,0.09816265106201172,-0.15079368650913239,-0.005372035317122936
1697842585370052000,6.663052001953125,0.057464599609375,-0.09324327111244202,0.13422444462776184
1697842585379651000,6.672651123046875,0.057464599609375,-0.10061651468276978,-0.027225401252508163
1697842585389401000,6.682401123046875,0.06703948974609375,-0.034318115562200546,-0.08099055290222168
1697842585400046000,6.693046142578125,0.12570476531982422,-0.045578159391880035,0.14460043609142303
1697842585409454000,6.7024541015625,0.09817123413085938,-0.03956553339958191,-0.03229247406125069
1697842585420148000,6.71314794921875,0.049088478088378906,-0.017681360244750977,-0.0501655749976635
1697842585429764000,6.72276416015625,0.03831291198730469,-0.09642983227968216,-0.027410659939050674
1697842585439903000,6.732903076171875,0.039516448974609375,-0.04442698881030083,0.1314244270324707
1697842585450428000,6.743427978515625,0.07782363891601562,-0.0004954193718731403,0.02607569471001625
1697842585459464000,6.7524638671875,0.041907310485839844,0.03857976570725441,-0.12614303827285767
1697842585470284000,6.763283935546875,0.017968177795410156,-0.02511996030807495,-0.13086672127246857
1697842585479728000,6.77272802734375,0.09218883514404297,-0.06884077936410904,0.038761552423238754
1697842585489860000,6.782860107421875,0.12691020965576172,-0.02888115867972374,0.07267163693904877
1697842585499361000,6.792361083984375,-0.0011768341064453125,0.02070864848792553,-0.03173799440264702
1697842585509378000,6.8023779296875,0.023962974548339844,-0.025344595313072205,-0.06803365796804428
1697842585519990000,6.812989990234375,0.035938262939453125,-0.07208401709794998,0.053072936832904816
1697842585529720000,6.822719970703125,0.0503082275390625,-0.05912843719124794,0.07551245391368866
1697842585539297000,6.832297119140625,-0.0011692047119140625,-0.03189413994550705,-0.0922638326883316
1697842585549633000,6.842633056640625,0.02275848388671875,-0.06099466234445572,-0.15131378173828125
1697842585560104000,6.85310400390625,-0.05266571044921875,-0.16664351522922516,-0.030629172921180725
1697842585569523000,6.86252294921875,-0.005976676940917969,-0.10525442659854889,0.18536536395549774
1697842585579334000,6.872333984375,0.020359039306640625,-0.05617329478263855,0.008194427005946636
1697842585589446000,6.88244580078125,-0.03230857849121094,-0.1097344160079956,-0.10232832282781601
1697842585599138000,6.892137939453125,-0.11252403259277344,-0.1807861328125,-0.04414268583059311
1697842585609207000,6.90220703125,-0.004784584045410156,-0.16226942837238312,0.3026725649833679
1697842585619182000,6.91218212890625,0.014369964599609375,-0.15467968583106995,-0.039816759526729584
1697842585629149000,6.92214892578125,-0.12209892272949219,-0.35961368680000305,-0.17335452139377594
1697842585639218000,6.932218017578125,-0.1017465591430664,-0.30532148480415344,0.15608973801136017
1697842585649703000,6.942702880859375,0.021554946899414062,-0.44496744871139526,0.18470433354377747
1697842585659253000,6.9522529296875,-0.09695625305175781,-0.5175811648368835,-0.33728739619255066
1697842585669326000,6.962326171875,-0.11850357055664062,-0.5723059177398682,0.11548440158367157
1697842585679474000,6.972473876953125,-0.11970138549804688,-0.6961557269096375,0.21436001360416412
1697842585689232000,6.98223193359375,-0.06822681427001953,-0.9010999798774719,-0.15332533419132233
1697842585699208000,6.9922080078125,-0.0778045654296875,-0.834662914276123,0.2171221673488617
1697842585709481000,7.00248095703125,-0.20350170135498047,-1.1192066669464111,0.049291156232357025
1697842585720073000,7.013072998046875,-0.06464004516601562,-0.9905558824539185,-0.077415831387043
1697842585729636000,7.022635986328125,-0.05386638641357422,-1.2550857067108154,0.1042269691824913
1697842585739453000,7.032452880859375,-0.12569332122802734,-1.314890742301941,0.014612536877393723
1697842585750176000,7.043176025390625,0.0011987686157226562,-1.4614430665969849,0.14515714347362518
1697842585759553000,7.052552978515625,-0.17836570739746094,-1.6173452138900757,0.022155482321977615
1697842585770147000,7.06314697265625,-0.008374214172363281,-1.6815125942230225,0.1397668868303299
1697842585779952000,7.0729521484375,-0.06702804565429688,-1.8092174530029297,0.05518866330385208
1697842585789653000,7.082653076171875,0.015577316284179688,-1.7968153953552246,0.12814131379127502
1697842585800014000,7.09301416015625,0.060042381286621094,-1.7309147119522095,0.12270130217075348
1697842585810025000,7.10302490234375,-0.005791664123535156,-1.6508394479751587,-0.05912037193775177
1697842585819717000,7.112717041015625,0.15956401824951172,-1.9201420545578003,0.10421977192163467
1697842585829591000,7.122591064453125,0.025649070739746094,-1.7560341358184814,0.00781759712845087
1697842585839703000,7.132703125,0.13835906982421875,-2.027092218399048,0.2418442964553833
1697842585849709000,7.142708984375,0.027215003967285156,-1.888765811920166,0.15441597998142242
1697842585859243000,7.152242919921875,0.20814800262451172,-2.163865566253662,0.1476617008447647
1697842585869995000,7.1629951171875,0.04313468933105469,-2.09393048286438,0.01887008547782898
1697842585879426000,7.172426025390625,0.2408285140991211,-2.1082165241241455,0.36518457531929016
1697842585889851000,7.182850830078125,0.14045047760009766,-2.3738420009613037,0.060048848390579224
1697842585899943000,7.19294287109375,0.2243785858154297,-2.3115978240966797,0.2270616590976715
1697842585909859000,7.202859130859375,0.09163951873779297,-2.398825168609619,0.3014707565307617
1697842585919677000,7.212677001953125,0.11570262908935547,-2.5344433784484863,0.06713362038135529
1697842585929131000,7.222131103515625,0.32409000396728516,-2.406827926635742,0.2206355631351471
1697842585939304000,7.232303955078125,0.13025188446044922,-2.4812090396881104,0.36521804332733154
1697842585949526000,7.242526123046875,0.2464456558227539,-2.5799098014831543,0.25179800391197205
1697842585959783000,7.252782958984375,0.24932479858398438,-2.5623674392700195,0.1848084032535553
1697842585969220000,7.26222021484375,0.049521446228027344,-2.6819348335266113,0.2059963047504425
1697842585979244000,7.272244140625,0.3692893981933594,-2.8283915519714355,0.22604966163635254
1697842585990348000,7.28334814453125,0.24853134155273438,-2.580888509750366,0.22087524831295013
1697842585999379000,7.29237890625,0.19237041473388672,-2.7605466842651367,0.17059044539928436
1697842586009658000,7.302658203125,0.40911293029785156,-2.7207629680633545,0.19046422839164734
1697842586025065000,7.31806494140625,0.06323623657226562,-2.7379863262176514,-0.10207818448543549
1697842586039163000,7.332162841796875,0.39493846893310547,-2.6997451782226562,0.17722833156585693
1697842586049155000,7.342155029296875,0.10643672943115234,-2.5405306816101074,0.02160520851612091
1697842586059193000,7.352193115234375,0.15432071685791016,-2.6698176860809326,-0.09571067243814468
1697842586069077000,7.362076904296875,0.40212059020996094,-2.643481492996216,0.38312965631484985
1697842586079413000,7.3724130859375,0.24051189422607422,-2.589611768722534,0.093431256711483
1697842586089206000,7.3822060546875,-0.037215232849121094,-2.766782760620117,0.014422602951526642
1697842586099178000,7.392177978515625,0.31473255157470703,-2.6279191970825195,-0.06219185143709183
1697842586109898000,7.40289794921875,0.06255531311035156,-2.385093927383423,0.05967247113585472
1697842586119909000,7.4129091796875,-0.05954933166503906,-2.620922565460205,-0.012153580784797668
1697842586129967000,7.422967041015625,0.2504997253417969,-2.8148529529571533,-0.05285501107573509
1697842586140123000,7.433122802734375,0.0924825668334961,-2.67120099067688,0.07403768599033356
1697842586149979000,7.442978759765625,0.09846878051757812,-2.776545763015747,-0.1354549676179886
1697842586159271000,7.45227099609375,0.2672595977783203,-2.6795806884765625,-0.17735350131988525
1697842586170023000,7.46302294921875,0.055123329162597656,-2.6193337440490723,0.46883606910705566
1697842586179694000,7.472694091796875,-0.14489078521728516,-2.708915948867798,-0.36590149998664856
1697842586189639000,7.482638916015625,0.12437057495117188,-3.0053586959838867,-0.1972021907567978
1697842586199177000,7.492177001953125,-0.012189865112304688,-2.5381882190704346,0.2319457083940506
1697842586209319000,7.50231884765625,-0.24935436248779297,-2.9603700637817383,-0.17671328783035278
1697842586219586000,7.5125859375,0.1671590805053711,-2.7359397411346436,0.08999437838792801
1697842586229436000,7.522435791015625,-0.1657695770263672,-2.6684751510620117,-0.013193134218454361
1697842586240048000,7.533048095703125,-0.03297615051269531,-2.856048822402954,0.15890155732631683
1697842586250260000,7.543260009765625,-0.08934307098388672,-2.49103045463562,0.020403102040290833
1697842586260438000,7.55343798828125,-0.15887451171875,-2.8298282623291016,0.11997215449810028
1697842586269640000,7.562639892578125,0.26838207244873047,-2.5523524284362793,-0.08002036809921265
1697842586279425000,7.572425048828125,0.0719146728515625,-2.3894004821777344,-0.07747572660446167
1697842586290071000,7.583071044921875,-0.0958719253540039,-2.4108996391296387,0.1223336011171341
1697842586299771000,7.59277099609375,0.12305068969726562,-2.5366532802581787,-0.14715628325939178
1697842586309495000,7.6024951171875,0.05587291717529297,-2.270815134048462,-0.07488690316677094
1697842586319996000,7.612995849609375,0.0063800811767578125,-2.3676934242248535,-0.146345853805542
1697842586329458000,7.6224580078125,0.23009014129638672,-2.371598720550537,0.2230660319328308
1697842586340036000,7.6330361328125,0.16767406463623047,-2.147246837615967,0.25527262687683105
1697842586350059000,7.64305908203125,-0.10427093505859375,-2.362916946411133,-0.28676992654800415
1697842586360350000,7.653349853515625,0.3528165817260742,-2.3128790855407715,0.17357008159160614
1697842586369367000,7.662366943359375,0.18264293670654297,-2.0494511127471924,-0.21711264550685883
1697842586380208000,7.6732080078125,-0.02945709228515625,-2.342013120651245,0.0022468101233243942
1697842586389566000,7.68256591796875,0.30077457427978516,-2.4386565685272217,0.32972314953804016
1697842586400122000,7.6931220703125,-0.052519798278808594,-1.9915105104446411,0.2520271837711334
1697842586410101000,7.70310107421875,0.07896232604980469,-2.329399824142456,-0.0068210419267416
1697842586420094000,7.713093994140625,0.25951099395751953,-2.0630805492401123,0.25747150182724
1697842586430096000,7.723095947265625,-0.15131187438964844,-2.146444320678711,-0.025656402111053467
1697842586440058000,7.73305810546875,0.14053726196289062,-2.2470993995666504,-0.08111201971769333
1697842586450434000,7.74343408203125,0.1594982147216797,-1.9553711414337158,0.26214727759361267
1697842586460102000,7.753101806640625,-0.16033267974853516,-1.9979432821273804,-0.02029450796544552
1697842586469408000,7.762407958984375,0.13390350341796875,-2.1935179233551025,-0.19699864089488983
1697842586480212000,7.7732119140625,0.05352592468261719,-2.0835189819335938,-0.045196693390607834
1697842586489441000,7.78244091796875,-0.06395435333251953,-2.041694402694702,0.4303224980831146
1697842586500429000,7.793428955078125,-0.058135032653808594,-2.167623996734619,-0.34828487038612366
1697842586509456000,7.802455810546875,0.032670021057128906,-1.879511833190918,0.18517810106277466
1697842586520233000,7.81323291015625,-0.1458883285522461,-2.1066219806671143,0.23154747486114502
1697842586530528000,7.823528076171875,-0.006001472473144531,-1.8952574729919434,-0.4781967103481293
1697842586539603000,7.83260302734375,0.02852630615234375,-1.9379191398620605,0.18506890535354614
1697842586549932000,7.84293212890625,-0.09252357482910156,-1.8600863218307495,0.02112356200814247
1697842586559465000,7.85246484375,-0.18004894256591797,-2.0107152462005615,-0.6553173065185547
1697842586569358000,7.862358154296875,-0.03772544860839844,-1.9001485109329224,0.37237119674682617
1697842586580520000,7.87352001953125,-0.2592582702636719,-1.881766676902771,0.3312116265296936
1697842586589487000,7.882487060546875,-0.29294776916503906,-1.9216450452804565,-0.3758915364742279
1697842586600610000,7.893610107421875,0.09720134735107422,-1.7614214420318604,0.37931856513023376
1697842586610075000,7.903074951171875,-0.15553951263427734,-2.1098294258117676,-0.1448116898536682
1697842586620376000,7.9133759765625,0.034630775451660156,-1.7356278896331787,0.09936380386352539
1697842586629646000,7.92264599609375,-0.20261096954345703,-1.6726231575012207,0.24660372734069824
1697842586640130000,7.933130126953125,0.16347122192382812,-1.8637070655822754,0.06620760262012482
1697842586650218000,7.943218017578125,-0.1611194610595703,-1.8309296369552612,0.08577822893857956
1697842586659473000,7.952472900390625,0.10205364227294922,-1.8356733322143555,-0.1102297455072403
1697842586670384000,7.963384033203125,-0.07042789459228516,-1.7257869243621826,-0.026579242199659348
1697842586680209000,7.973208984375,0.02637481689453125,-1.8183549642562866,0.05353549122810364
1697842586690107000,7.98310693359375,-0.03396320343017578,-1.6663849353790283,0.08761905878782272
1697842586700248000,7.993248046875,0.052093505859375,-1.4307000637054443,0.021249309182167053
1697842586709596000,8.002595947265625,-0.023471832275390625,-1.4273972511291504,0.36021894216537476
1697842586720310000,8.01331005859375,0.20857810974121094,-1.6487101316452026,-0.2130594551563263
1697842586730214000,8.0232138671875,0.11141300201416016,-1.4092276096343994,0.32669422030448914
1697842586740113000,8.03311279296875,0.05259227752685547,-1.8610939979553223,0.30457496643066406
1697842586750294000,8.0432939453125,0.045243263244628906,-1.3601107597351074,0.20365357398986816
1697842586760221000,8.053220947265626,0.2797203063964844,-1.4836465120315552,0.24983175098896027
1697842586770317000,8.063317138671875,0.019782066345214844,-1.188410997390747,0.035190775990486145
1697842586779600000,8.072599853515625,0.4397459030151367,-1.4424713850021362,0.20604199171066284
1697842586790425000,8.083425048828126,0.07448673248291016,-1.4844138622283936,0.1760186105966568
1697842586800494000,8.093494140625,0.11144733428955078,-1.878326654434204,0.3680245280265808
1697842586810339000,8.103339111328125,0.04071521759033203,-1.4021759033203125,0.2999006509780884
1697842586819484000,8.11248388671875,0.4679079055786133,-1.3796249628067017,-0.0356023870408535
1697842586830376000,8.1233759765625,-0.08170890808105469,-1.1510186195373535,0.2675052285194397
1697842586840437000,8.13343701171875,0.37056732177734375,-1.2700549364089966,0.6706458926200867
1697842586850224000,8.14322412109375,0.2925729751586914,-1.8311336040496826,-0.4880560040473938
1697842586859961000,8.152961181640626,0.5545501708984375,-1.0790257453918457,-0.3729534447193146
1697842586870274000,8.163274169921875,0.22170257568359375,-1.5154227018356323,-0.045363523066043854
1697842586879888000,8.172887939453124,0.4909858703613281,-1.062780737876892,-0.2090764045715332
1697842586890721000,8.183720947265625,0.07314109802246094,-1.761563777923584,-0.3768749237060547
1697842586900843000,8.193843017578125,0.16046714782714844,-1.4083024263381958,-0.024787893518805504
1697842586909756000,8.202755859375,0.1018228530883789,-1.3814955949783325,-0.34742504358291626
1697842586919414000,8.2124140625,0.22505474090576172,-1.209159016609192,-0.5852060317993164
1697842586929175000,8.222175048828126,0.1531219482421875,-1.2602319717407227,-0.1884957253932953
1697842586939270000,8.232269775390625,0.2668037414550781,-1.6621040105819702,-0.4918849468231201
1697842586949316000,8.242316162109375,0.034557342529296875,-1.3521842956542969,0.1122976690530777
1697842586959513000,8.25251318359375,0.08004283905029297,-1.1762802600860596,-0.3219570815563202
1697842586969576000,8.262575927734375,-0.08396434783935547,-1.3343676328659058,-0.38608670234680176
1697842586979139000,8.27213916015625,0.2320089340209961,-1.0710628032684326,0.13558968901634216
1697842586989309000,8.282308837890625,-0.1318798065185547,-1.6966180801391602,-0.48343685269355774
1697842586999282000,8.292281982421875,0.5408458709716797,-1.4473567008972168,-0.5089564323425293
1697842587009148000,8.30214794921875,0.11226081848144531,-1.0851967334747314,-0.5503566265106201
1697842587019232000,8.31223193359375,0.17687225341796875,-1.1124069690704346,-0.37042707204818726
1697842587029175000,8.322175048828125,0.17926597595214844,-1.677438735961914,-0.6804762482643127
1697842587039116000,8.332115966796875,0.3085784912109375,-1.3420637845993042,-0.4375206232070923
1697842587049199000,8.34219921875,0.05959796905517578,-1.521527886390686,-0.44917598366737366
1697842587059168000,8.35216796875,0.21999168395996094,-0.9751306772232056,-0.34854674339294434
1697842587069108000,8.36210791015625,0.006847381591796875,-1.1514873504638672,-0.2098061889410019
1697842587079638000,8.372637939453124,0.342041015625,-1.6748294830322266,-0.2872893214225769
1697842587089335000,8.3823349609375,0.3421001434326172,-1.4955589771270752,-0.20295895636081696
1697842587099142000,8.392141845703126,0.22836875915527344,-1.0004674196243286,-0.045800141990184784
1697842587109415000,8.402414794921874,0.11457157135009766,-1.6272510290145874,0.08029203116893768
1697842587119628000,8.4126279296875,0.1683063507080078,-1.4173930883407593,0.2719499468803406
1697842587129220000,8.42222021484375,-0.019687652587890625,-1.5109493732452393,0.3687047064304352
1697842587139620000,8.4326201171875,0.05207633972167969,-1.0277416706085205,-0.2822078764438629
1697842587149572000,8.442572021484375,0.0770864486694336,-1.0437817573547363,0.23482388257980347
1697842587159384000,8.452384033203124,0.08289432525634766,-1.614147663116455,0.1246313601732254
1697842587169307000,8.462306884765624,-0.08602142333984375,-1.7691634893417358,-0.0018815994262695312
1697842587179205000,8.472205078125,-0.2501554489135742,-1.2981643676757812,0.3748224377632141
1697842587189421000,8.482421142578126,-0.4345893859863281,-1.1541309356689453,-0.6071556210517883
1697842587200354000,8.49335400390625,0.04289436340332031,-1.222339391708374,-0.010457493364810944
1697842587209747000,8.502746826171874,-0.06732368469238281,-1.4760240316390991,0.5269995927810669
1697842587220144000,8.51314404296875,-0.1871185302734375,-1.3873822689056396,-0.14727342128753662
1697842587229683000,8.522682861328125,-0.12255191802978516,-1.6202590465545654,-0.38988685607910156
1697842587240407000,8.533406982421875,0.005501747131347656,-1.0765340328216553,-0.13561755418777466
1697842587249522000,8.54252197265625,-0.3201103210449219,-1.228732943534851,-0.13766421377658844
1697842587259201000,8.552200927734376,-0.0376739501953125,-1.4389485120773315,0.12836763262748718
1697842587269224000,8.562223876953125,-0.23519611358642578,-1.5119717121124268,-0.03922649472951889
1697842587279199000,8.572198974609375,-0.1778421401977539,-1.2893884181976318,-0.11728950589895248
1697842587289327000,8.5823271484375,-0.21855735778808594,-1.2189338207244873,-0.1142587810754776
1697842587299090000,8.59208984375,-0.0031270980834960938,-1.4545612335205078,-0.09467356652021408
1697842587309477000,8.60247705078125,0.042301177978515625,-1.0801286697387695,-0.2385750412940979
1697842587319724000,8.61272412109375,-0.18878459930419922,-1.39358651638031,-0.4935576617717743
1697842587329791000,8.622791015625,-0.12774944305419922,-1.4287750720977783,-0.15769514441490173
1697842587339304000,8.632303955078125,0.048244476318359375,-1.2776912450790405,-0.04254813864827156
1697842587349174000,8.642174072265625,-0.26418018341064453,-1.1781375408172607,-0.4137410819530487
1697842587359632000,8.6526318359375,0.031493186950683594,-1.4551784992218018,0.11650315672159195
1697842587369500000,8.6625,-0.047435760498046875,-1.2588987350463867,-0.10443703085184097
1697842587379172000,8.672172119140624,-0.27484607696533203,-1.0358757972717285,-0.07581141591072083
1697842587389191000,8.68219091796875,-0.12874317169189453,-1.37871515750885,-0.1644887924194336
1697842587399598000,8.69259814453125,0.1718149185180664,-1.3174805641174316,-0.406345397233963
1697842587409368000,8.7023681640625,-0.1776723861694336,-1.1440799236297607,0.1267642378807068
1697842587419244000,8.712244140625,0.09894084930419922,-1.3308260440826416,0.19456329941749573
1697842587429645000,8.72264501953125,0.08348369598388672,-1.1554621458053589,0.017309799790382385
1697842587439249000,8.732248779296874,-0.03135967254638672,-1.362563133239746,-0.1058112159371376
1697842587449655000,8.742655029296875,0.15071678161621094,-1.27901029586792,0.16773733496665955
1697842587459219000,8.752218994140625,0.7468461990356445,-1.1636773347854614,-0.3178200125694275
1697842587469195000,8.762195068359375,-0.5915985107421875,-1.5230567455291748,0.5926932096481323
1697842587479201000,8.772200927734374,0.9134607315063477,-0.9157777428627014,0.19973531365394592
1697842587489141000,8.78214111328125,-0.5951070785522461,-1.3386846780776978,0.08156950026750565
1697842587499185000,8.792184814453124,0.43080711364746094,-1.478745460510254,0.3736621141433716
1697842587509085000,8.8020849609375,0.17574691772460938,-1.3786184787750244,0.1730450689792633
1697842587519356000,8.81235595703125,0.16013050079345703,-1.0649895668029785,-0.022177085280418396
1697842587529414000,8.822413818359376,0.4677114486694336,-1.3372437953948975,0.2949436604976654
1697842587539074000,8.832073974609376,0.33708763122558594,-0.7492650747299194,0.11562519520521164
1697842587549892000,8.84289208984375,0.4039630889892578,-1.7143855094909668,-0.09086313843727112
1697842587559429000,8.85242919921875,0.6564216613769531,-1.0041013956069946,-0.26526975631713867
1697842587569420000,8.862419921875,0.17033863067626953,-1.209165096282959,-0.274263858795166
1697842587579118000,8.8721181640625,0.18940353393554688,-0.9890058040618896,0.06885641068220139
1697842587589125000,8.882125,0.3378314971923828,-1.2473180294036865,0.25576159358024597
1697842587599519000,8.89251904296875,0.2012948989868164,-1.2329264879226685,-0.4556499719619751
1697842587609650000,8.90264990234375,0.45737743377685547,-1.2334139347076416,0.3336015045642853
1697842587619693000,8.912693115234376,0.1329059600830078,-0.858657956123352,0.027646854519844055
1697842587629154000,8.922154052734374,0.29321956634521484,-1.504551649093628,-0.6401793956756592
1697842587639204000,8.9322041015625,0.5803890228271484,-1.1768558025360107,0.30697202682495117
1697842587649153000,8.942153076171875,0.0033731460571289062,-1.0480563640594482,-0.04536733031272888
1697842587659121000,8.952120849609376,0.13014888763427734,-0.9815198183059692,-0.09572474658489227
1697842587669102000,8.96210205078125,0.28209972381591797,-1.2938294410705566,0.034295693039894104
1697842587679122000,8.972121826171875,0.2520723342895508,-1.1100846529006958,-0.1522095948457718
1697842587689082000,8.98208203125,0.06880760192871094,-1.1384248733520508,0.17028823494911194
1697842587699085000,8.9920849609375,0.3512868881225586,-1.155814290046692,0.11722899973392487
1697842587709127000,9.002126953125,0.19202709197998047,-1.0861656665802002,0.1574547290802002
1697842587719116000,9.012115966796875,0.05069255828857422,-1.2821773290634155,0.018977850675582886
1697842587729934000,9.02293408203125,-0.10619258880615234,-1.0302104949951172,0.8491266369819641
1697842587739531000,9.032531005859376,-0.02245330810546875,-1.442400574684143,-0.2178400158882141
1697842587749091000,9.042091064453125,0.15339183807373047,-0.9016005992889404,0.32117339968681335
1697842587759364000,9.052364013671875,0.026416778564453125,-1.1631813049316406,1.1996164321899414
1697842587769102000,9.06210205078125,0.18915462493896484,-0.9209487438201904,0.2479887753725052
1697842587779408000,9.072407958984375,0.3206939697265625,-1.3221995830535889,0.07246525585651398
1697842587789406000,9.082406005859376,0.016519546508789062,-1.2104711532592773,0.4292587339878082
1697842587799526000,9.09252587890625,0.01643657684326172,-0.8887345194816589,0.5559313297271729
1697842587809442000,9.102442138671876,-0.32841968536376953,-0.8973380327224731,0.2642321288585663
1697842587819244000,9.112244140625,-0.00896453857421875,-1.2478386163711548,0.5215252041816711
1697842587829116000,9.122115966796875,-0.24015522003173828,-1.298644781112671,0.3357950448989868
1697842587839241000,9.132240966796875,-0.5408210754394531,-1.109336018562317,0.15861466526985168
1697842587849508000,9.142508056640626,0.038384437561035156,-1.1158604621887207,0.8118790984153748
1697842587859219000,9.152218994140625,0.02624988555908203,-0.7946327924728394,0.11626982688903809
1697842587869608000,9.16260791015625,-0.07448291778564453,-1.0034209489822388,0.43634164333343506
1697842587879728000,9.17272802734375,-0.1033487319946289,-0.9126810431480408,0.23597940802574158
1697842587889382000,9.1823818359375,0.25327110290527344,-1.095411777496338,-0.06833416223526001
