time,seconds_elapsed,z,y,x
1697842578876952600,0.16995263671875,9.831789016723633,0.4920084476470947,-0.8224082589149475
1697842578888166400,0.18116650390625,9.72165584564209,0.2932897210121155,0.21428105235099792
1697842578899443700,0.192443603515625,9.254786491394043,0.365115761756897,-0.7984662652015686
1697842578909322800,0.20232275390625,8.675390243530273,-0.5973533391952515,0.5638344883918762
1697842578919265800,0.212265869140625,9.586383819580078,0.23582886159420013,0.7805097699165344
1697842578929245400,0.222245361328125,10.466252326965332,-0.5901707410812378,-1.9333178997039795
1697842578939212800,0.232212890625,10.970232009887695,1.0678139925003052,0.09576806426048279
1697842578949181400,0.242181396484375,10.869675636291504,0.828393816947937,-0.09576806426048279
1697842578959277000,0.252277099609375,11.640608787536621,0.25977087020874023,0.5530605912208557
1697842578969202700,0.26220263671875,10.706870079040527,0.9756371974945068,-1.0666168928146362
1697842578979159300,0.2721591796875,10.178948402404785,-0.11372458189725876,-0.8583213090896606
1697842578989794600,0.282794677734375,9.923966407775879,0.24779987335205078,-1.4484920501708984
1697842578999628300,0.292628173828125,9.923966407775879,0.24779987335205078,-1.4484920501708984
1697842579009403100,0.302403076171875,10.629058837890625,0.06344634294509888,0.6500257849693298
1697842579019248600,0.31224853515625,10.360907554626465,0.39863458275794983,1.4532804489135742
1697842579029179400,0.322179443359375,10.766724586486816,0.42377370595932007,0.05985504388809204
1697842579039350300,0.332350341796875,10.415974617004395,0.1412578970193863,-0.2214636504650116
1697842579049211100,0.342211181640625,11.11987018585205,1.2749123573303223,0.9026140570640564
1697842579059376600,0.352376708984375,12.205639839172363,-1.0426748991012573,0.3519476354122162
1697842579069380400,0.36238037109375,11.26950740814209,1.5059528350830078,-0.304063618183136
1697842579079296500,0.372296630859375,10.953473091125488,-0.7242460250854492,-0.33039984107017517
1697842579089314800,0.382314697265625,8.513781547546387,0.8690952062606812,0.25977087020874023
1697842579099348000,0.392347900390625,10.041281700134277,-0.31124621629714966,0.5159504413604736
1697842579109271600,0.402271484375,10.096348762512207,0.026336219161748886,-1.5382746458053589
1697842579119235300,0.4122353515625,11.614272117614746,-0.6488286852836609,0.3663128614425659
1697842579129179100,0.42217919921875,10.405200958251953,0.4692635238170624,-0.4920084476470947
1697842579139272400,0.4322724609375,11.671732902526855,-0.5722141861915588,0.18076223134994507
1697842579149301800,0.4423017578125,10.754754066467285,0.31364041566848755,-0.07422025501728058
1697842579159426300,0.45242626953125,11.401188850402832,-0.7481880187988281,-0.35673606395721436
1697842579169496300,0.462496337890625,10.157401084899902,-0.5710170865058899,-0.21428105235099792
1697842579179290600,0.47229052734375,9.701305389404297,-0.243011474609375,0.27892449498176575
1697842579189215700,0.4822158203125,9.943120002746582,0.090979665517807,-0.2621650993824005
1697842579199147800,0.492147705078125,11.258733749389648,-0.9014169573783875,0.2454056739807129
1697842579209141500,0.5021416015625,10.896012306213379,-0.5770025849342346,0.2777273952960968
1697842579219124700,0.512124755859375,11.040861129760742,-0.40701428055763245,-0.08858546614646912
1697842579229129500,0.52212939453125,10.308235168457031,-0.8271966576576233,0.5506663918495178
1697842579239155200,0.5321552734375,10.348937034606934,0.1256955862045288,-0.8786720037460327
1697842579249340700,0.542340576171875,10.293869972229004,-0.8595184087753296,-0.017956512048840523
1697842579259380200,0.552380126953125,10.450690269470215,-1.0115501880645752,0.729034423828125
1697842579269229000,0.56222900390625,9.977835655212402,0.15921440720558167,-0.9074024558067322
1697842579279357200,0.572357177734375,9.465476036071777,-0.272938996553421,0.09935937076807022
1697842579289296100,0.582296142578125,9.727641105651855,-0.3663128614425659,-0.42018240690231323
1697842579299262000,0.592261962890625,8.90762710571289,-0.05027823522686958,0.31603461503982544
1697842579309209000,0.602208984375,8.341399192810059,-1.2030863761901855,-1.094150185585022
1697842579319151600,0.612151611328125,8.695740699768066,0.2454056739807129,-0.8978256583213806
1697842579329128700,0.622128662109375,7.539340972900391,-0.4118026793003082,-0.06823474913835526
1697842579339161900,0.632161865234375,9.048885345458984,-0.304063618183136,-0.7757213711738586
1697842579349395500,0.6423955078125,8.763975143432617,-0.4920084476470947,0.4082113802433014
1697842579359264800,0.6522646484375,7.715314865112305,-0.2621650993824005,-0.4465186297893524
1697842579369184800,0.662184814453125,7.63989782333374,-0.14844051003456116,-0.45848962664604187
1697842579379170300,0.67217041015625,7.8529815673828125,-0.14006079733371735,-0.41778820753097534
1697842579389397200,0.682397216796875,8.257601737976074,-0.5003881454467773,0.5626373887062073
1697842579399365600,0.69236572265625,8.236053466796875,-0.3100491166114807,-0.6751648783683777
1697842579409295400,0.70229541015625,9.009381294250488,-0.7015010714530945,-1.215057373046875
1697842579419304200,0.71230419921875,8.754398345947266,0.4034229815006256,0.6643909811973572
1697842579429439500,0.722439453125,8.449137687683105,-0.25977087020874023,-0.8667010068893433
1697842579439485700,0.732485595703125,8.620323181152344,-0.18555063009262085,-1.1109095811843872
1697842579449549300,0.74254931640625,8.795100212097168,0.0802057534456253,-0.07661445438861847
1697842579459570200,0.752570068359375,8.941145896911621,-0.18315643072128296,-0.47884035110473633
1697842579469437700,0.762437744140625,9.774328231811523,-0.24420857429504395,-0.7852981686592102
1697842579479884300,0.77288427734375,8.966285705566406,-0.20949265360832214,0.152031809091568
1697842579489681700,0.782681640625,9.300276756286621,-0.2861070930957794,-0.5985504388809204
1697842579499595800,0.792595703125,8.799888610839844,0.07661445438861847,-0.1951274424791336
1697842579509720300,0.80272021484375,8.75080680847168,-0.020350715145468712,-0.5506663918495178
1697842579519583200,0.812583251953125,8.984241485595703,-0.019153613597154617,0.06584054976701736
1697842579529401600,0.822401611328125,9.398438453674316,-0.3842693865299225,0.7146692276000977
1697842579539367400,0.832367431640625,9.487024307250977,0.4082113802433014,-0.7661445140838623
1697842579549479700,0.842479736328125,9.435548782348633,-0.25019407272338867,0.44532153010368347
1697842579559589400,0.85258935546875,9.575610160827637,0.5925649404525757,-0.11013327538967133
1697842579569373200,0.862373291015625,9.801861763000488,-0.3292027413845062,-0.8415619134902954
1697842579579567600,0.872567626953125,9.475052833557129,0.14844051003456116,0.12689268589019775
1697842579589703200,0.882703125,9.277531623840332,0.0347159244120121,0.19871874153614044
1697842579599446500,0.892446533203125,9.259574890136719,0.061052143573760986,-0.12689268589019775
1697842579609494300,0.902494384765625,9.775525093078613,0.02274491637945175,0.09457096457481384
1697842579619435800,0.912435791015625,9.798270225524902,-0.20111294090747833,-0.7876923680305481
1697842579629555700,0.9225556640625,10.402806282043457,-0.22625206410884857,0.0694318488240242
1697842579639345400,0.932345458984375,10.102334022521973,0.3878606855869293,0.11851298063993454
1697842579649355300,0.942355224609375,10.899602890014648,-0.3734954595565796,-0.26815059781074524
1697842579659584000,0.952583984375,10.72722053527832,0.7134721279144287,0.39863458275794983
1697842579669612500,0.962612548828125,10.884040832519531,-0.2190694510936737,-0.456095427274704
1697842579679360800,0.97236083984375,10.105925559997559,0.3818751573562622,0.8631097078323364
1697842579689277400,0.98227734375,10.392032623291016,-0.2825157940387726,0.1759738177061081
1697842579699599600,0.992599609375,9.767146110534668,0.21188685297966003,-0.43095630407333374
1697842579709365200,1.002365234375,10.772710800170898,-0.22385786473751068,0.7841010689735413
1697842579719436300,1.012436279296875,10.381258964538574,0.5542576909065247,0.3232172429561615
1697842579729520600,1.022520751953125,10.737994194030762,-0.4058171808719635,-0.07062894850969315
1697842579739460400,1.03246044921875,10.886435508728027,0.569819986820221,-0.16160862147808075
1697842579749374700,1.042374755859375,11.160571098327637,-0.06703764945268631,0.751779317855835
1697842579759415300,1.052415283203125,10.356119155883789,0.07182604819536209,0.4836287498474121
1697842579769318100,1.062318115234375,10.708066940307617,0.22026655077934265,-0.7110779285430908
1697842579779321600,1.072321533203125,10.746374130249023,-0.30047231912612915,0.507570743560791
1697842579789301800,1.0823017578125,10.849325180053711,0.7924807667732239,0.3471592366695404
1697842579799512800,1.092512939453125,10.796652793884277,-0.2214636504650116,-0.2561795711517334
1697842579809635800,1.1026357421875,10.131064414978027,0.6931213736534119,0.5267243981361389
1697842579819478500,1.112478515625,10.123882293701172,-0.12210428714752197,0.4728548228740692
1697842579829587700,1.122587646484375,9.349357604980469,0.08379705995321274,-0.040701430290937424
1697842579839382800,1.1323828125,10.121487617492676,0.31124621629714966,0.1711854189634323
1697842579849747000,1.142746826171875,10.32858657836914,-0.4920084476470947,0.5746083855628967
1697842579859565600,1.152565673828125,10.32858657836914,0.5363011956214905,0.6823474764823914
1697842579869564700,1.162564697265625,10.319009780883789,0.22026655077934265,0.7793126702308655
1697842579879476500,1.1724765625,9.920374870300293,0.32441434264183044,0.31124621629714966
1697842579889497000,1.1824970703125,10.153809547424316,-0.47405192255973816,0.08978256583213806
1697842579899426000,1.192426025390625,10.120290756225586,0.04429273307323456,0.5327098965644836
1697842579909338000,1.202338134765625,9.66299819946289,0.013168109580874443,0.019153613597154617
1697842579919350500,1.2123505859375,9.876082420349121,0.14604631066322327,-0.8427590131759644
1697842579929549300,1.22254931640625,10.36449909210205,-0.3998316824436188,1.0821791887283325
1697842579939554600,1.232554443359375,9.973047256469727,0.2717418968677521,-0.2621650993824005
1697842579949409800,1.242409912109375,9.86650562286377,-0.3663128614425659,-0.06703764945268631
1697842579959668500,1.25266845703125,9.93354320526123,-0.031124621629714966,0.2885012924671173
1697842579969672200,1.262672119140625,10.247182846069336,0.25977087020874023,-0.42616790533065796
1697842579979634700,1.272634765625,10.230423927307129,-0.6117185354232788,0.2214636504650116
1697842579993459200,1.286459228515625,10.140641212463379,-0.39863458275794983,-0.18315643072128296
1697842580009415000,1.302414794921875,10.140641212463379,-0.39863458275794983,-0.18315643072128296
1697842580019868000,1.312867919921875,9.706093788146973,0.8020575642585754,0.2825157940387726
1697842580029358000,1.322358154296875,9.157821655273438,-0.5327098965644836,-0.2992752194404602
1697842580040278000,1.333278076171875,9.045293807983398,-0.2082955539226532,-0.1280897855758667
1697842580049837000,1.342837158203125,8.414422035217285,0.24660277366638184,0.20709845423698425
1697842580059775000,1.35277490234375,9.90241813659668,-0.43933600187301636,-0.4405331015586853
1697842580069564000,1.36256396484375,10.360907554626465,0.2298433631658554,0.10055647045373917
1697842580079251000,1.3722509765625,9.679757118225098,-0.17238251864910126,0.646434485912323
1697842580089166000,1.382166015625,9.617507934570312,-0.5422866940498352,-0.8164227604866028
1697842580099174000,1.392173828125,10.344148635864258,0.05506663769483566,0.3878606855869293
1697842580109547000,1.402547119140625,10.077195167541504,-0.016759412363171577,-1.113303780555725
1697842580119363000,1.412363037109375,10.44350814819336,-0.08379705995321274,0.0454898327589035
1697842580129860000,1.422860107421875,10.013748168945312,0.06464344263076782,-0.22385786473751068
1697842580139303000,1.432302978515625,9.907206535339355,-0.10654197633266449,-0.8463503122329712
1697842580149359000,1.442359130859375,9.147047996520996,0.019153613597154617,-0.27413609623908997
1697842580159921000,1.4529208984375,9.351752281188965,-0.02992752194404602,-0.12330138683319092
1697842580169480000,1.46247998046875,8.853757858276367,-0.37469255924224854,-0.2908954918384552
1697842580179808000,1.47280810546875,9.816226959228516,-0.4141969084739685,-0.3926490843296051
1697842580190360000,1.483360107421875,9.945513725280762,0.08858546614646912,0.15682020783424377
1697842580199206000,1.492205810546875,9.962273597717285,-0.751779317855835,-0.36990416049957275
1697842580209848000,1.50284814453125,10.001777648925781,-0.3076549172401428,-0.9864110946655273
1697842580219361000,1.512361083984375,9.384073257446289,-0.3495534360408783,-0.026336219161748886
1697842580229483000,1.52248291015625,10.110713958740234,-0.41778820753097534,0.3471592366695404
1697842580239797000,1.532796875,10.299856185913086,0.4297592043876648,-0.35434186458587646
1697842580249957000,1.54295703125,10.090363502502441,-0.19153612852096558,-0.16759411990642548
1697842580259803000,1.552802978515625,10.001777648925781,0.18076223134994507,0.6045359373092651
1697842580269967000,1.562967041015625,9.999382972717285,-0.33039984107017517,0.48482584953308105
1697842580279274000,1.57227392578125,9.297882080078125,0.32202014327049255,-0.950498104095459
1697842580289897000,1.58289697265625,9.493009567260742,-0.5363011956214905,0.26575639843940735
1697842580299759000,1.592759033203125,10.503362655639648,-0.5817909836769104,-0.2082955539226532
1697842580309799000,1.602798828125,9.701305389404297,-0.3124433159828186,-0.4405331015586853
1697842580320285000,1.613284912109375,10.863690376281738,-0.40940847992897034,0.15682020783424377
1697842580330165000,1.6231650390625,10.269927978515625,0.29568392038345337,-0.10654197633266449
1697842580340316000,1.63331591796875,9.928754806518555,0.12689268589019775,-0.5446808934211731
1697842580349954000,1.6429541015625,10.162189483642578,-0.5147533416748047,0.5291185975074768
1697842580360354000,1.65335400390625,10.139444351196289,0.8092401623725891,-0.7613561153411865
1697842580370148000,1.663148193359375,9.229647636413574,-0.7422025203704834,0.13168109953403473
1697842580380280000,1.673280029296875,9.593565940856934,0.32202014327049255,0.7805097699165344
1697842580390298000,1.683298095703125,8.854954719543457,-0.4489128291606903,0.02992752194404602
1697842580399767000,1.69276708984375,7.905653953552246,0.1999158412218094,-0.1711854189634323
1697842580410292000,1.7032919921875,9.769539833068848,-1.1899182796478271,-0.18914192914962769
1697842580419776000,1.71277587890625,10.047266960144043,-0.07900865375995636,0.645237386226654
1697842580430303000,1.723302978515625,9.949105262756348,-0.8822633028030396,0.5530605912208557
1697842580440295000,1.733294921875,10.043676376342773,0.545877993106842,-0.30526071786880493
1697842580449946000,1.742946044921875,10.764330863952637,-0.7589619159698486,0.08259996026754379
1697842580459951000,1.752951171875,10.427945137023926,0.28969839215278625,0.0694318488240242
1697842580470498000,1.763498046875,10.340557098388672,-0.3794809579849243,0.39863458275794983
1697842580479526000,1.77252587890625,9.853337287902832,0.2537853717803955,-0.152031809091568
1697842580490626000,1.7836259765625,9.35893440246582,-0.023942016065120697,-0.4273650050163269
1697842580499331000,1.7923310546875,9.659406661987305,-0.011971008032560349,0.24181437492370605
1697842580509601000,1.80260107421875,10.054450035095215,-0.4106055796146393,0.44532153010368347
1697842580519507000,1.8125068359375,9.57441234588623,-0.5363011956214905,0.33997663855552673
1697842580529595000,1.822594970703125,9.429563522338867,-0.19153612852096558,0.035913024097681046
1697842580539192000,1.832192138671875,9.643844604492188,-0.4118026793003082,0.1041477769613266
1697842580549209000,1.842208984375,9.54209041595459,0.031124621629714966,-0.07541735470294952
1697842580559529000,1.852529052734375,10.35252857208252,-0.7362170219421387,-0.5746083855628967
1697842580569185000,1.86218505859375,9.908403396606445,0.5566518902778625,0.1951274424791336
1697842580579151000,1.872151123046875,9.084798812866211,-0.37469255924224854,0.5566518902778625
1697842580589121000,1.88212109375,9.040505409240723,0.5662286877632141,-0.7230489253997803
1697842580599368000,1.892367919921875,8.989029884338379,-0.7864952683448792,0.44532153010368347
1697842580609481000,1.90248095703125,8.35097599029541,0.6715735793113708,-0.02992752194404602
1697842580620073000,1.913072998046875,9.028534889221191,-0.9816226959228516,0.304063618183136
1697842580630189000,1.92318896484375,8.492233276367188,0.3687070608139038,0.0802057534456253
1697842580640169000,1.9331689453125,9.23443603515625,-0.5303156971931458,-0.0694318488240242
1697842580649650000,1.94264990234375,9.724050521850586,0.17477671802043915,-0.1867477297782898
1697842580659899000,1.95289892578125,10.575188636779785,-0.646434485912323,0.5506663918495178
1697842580670017000,1.96301708984375,10.011354446411133,0.47165772318840027,0.7266402244567871
1697842580679996000,1.972995849609375,9.946710586547852,-0.6129156351089478,-0.4165911078453064
1697842580689717000,1.982717041015625,9.941922187805176,0.4058171808719635,1.8112136125564575
1697842580700129000,1.99312890625,9.690531730651855,-0.45489832758903503,-0.6440402865409851
1697842580709390000,2.00239013671875,9.469067573547363,0.3423708379268646,-1.1623848676681519
1697842580719244000,2.012244140625,9.606734275817871,-0.2944868206977844,0.829590916633606
1697842580730034000,2.023033935546875,10.062829971313477,-0.20949265360832214,0.19273324310779572
1697842580739925000,2.032925048828125,10.69370174407959,0.31124621629714966,-0.25977087020874023
1697842580750022000,2.04302197265625,10.923544883728027,-0.8104372620582581,0.39145198464393616
1697842580759909000,2.0529091796875,10.159794807434082,0.851138710975647,-0.48602294921875
1697842580770235000,2.06323486328125,10.20528507232666,-0.49320554733276367,-0.6607996821403503
1697842580779909000,2.0729091796875,9.962273597717285,0.3770867586135864,-0.3495534360408783
1697842580789384000,2.082384033203125,10.101137161254883,-0.3280056416988373,-0.4704606235027313
1697842580800242000,2.093241943359375,9.642647743225098,-0.0071826050989329815,0.7230489253997803
1697842580810141000,2.103140869140625,10.018536567687988,0.507570743560791,0.5590460896492004
1697842580820098000,2.11309814453125,9.634267807006836,-0.12330138683319092,-0.3315969407558441
1697842580830307000,2.12330712890625,11.21204662322998,0.6141127347946167,-0.545877993106842
1697842580840296000,2.1332958984375,10.737994194030762,-0.9828197956085205,0.6129156351089478
1697842580850269000,2.14326904296875,10.090363502502441,0.38067805767059326,-0.39624038338661194
1697842580860319000,2.153319091796875,10.526107788085938,-0.5339069962501526,-0.22864626348018646
1697842580870237000,2.16323681640625,10.121487617492676,0.4106055796146393,0.11252748221158981
1697842580879566000,2.172566162109375,10.584765434265137,-0.5602431893348694,1.116895079612732
1697842580889620000,2.182619873046875,10.023324966430664,0.5219359993934631,-0.12449848651885986
1697842580899660000,2.192659912109375,10.44470500946045,-0.21188685297966003,-0.45848962664604187
1697842580909622000,2.2026220703125,10.669759750366211,0.3902548849582672,0.16519992053508759
1697842580919867000,2.212866943359375,10.439916610717773,0.32202014327049255,-0.849941611289978
1697842580929643000,2.22264306640625,10.845733642578125,-0.7158663272857666,-0.4728548228740692
1697842580939587000,2.232587158203125,10.8505220413208,0.06224924325942993,-0.30286651849746704
1697842580949598000,2.242597900390625,10.448296546936035,-0.14484919607639313,0.15562310814857483
1697842580959510000,2.252510009765625,9.62828254699707,0.22266076505184174,0.1711854189634323
1697842580969626000,2.262626220703125,10.135852813720703,-0.033518824726343155,-0.33279404044151306
1697842580979411000,2.272410888671875,10.192116737365723,-0.1999158412218094,-0.7194576263427734
1697842580989687000,2.28268701171875,10.6338472366333,0.3064578175544739,-0.872686505317688
1697842580999693000,2.292693115234375,11.05522632598877,-0.3603273630142212,0.16160862147808075
1697842581009363000,2.302363037109375,9.943120002746582,0.5937620401382446,-0.5027823448181152
1697842581019163000,2.312162841796875,10.157401084899902,-0.5674257874488831,-0.27413609623908997
1697842581029134000,2.322134033203125,9.26795482635498,-0.272938996553421,0.26336219906806946
1697842581039278000,2.332278076171875,9.124302864074707,-0.14484919607639313,-0.8942343592643738
1697842581049112000,2.342112060546875,9.385271072387695,-0.2669534981250763,0.4728548228740692
1697842581059732000,2.35273193359375,9.828198432922363,0.33039984107017517,-0.7050924301147461
1697842581069774000,2.362774169921875,9.75637149810791,0.1867477297782898,-0.8906430602073669
1697842581079776000,2.37277587890625,9.939528465270996,-0.32441434264183044,0.5386953949928284
1697842581089314000,2.38231396484375,9.370905876159668,-0.6153098344802856,-0.829590916633606
1697842581099739000,2.39273876953125,9.306262016296387,-0.40701428055763245,-0.363918662071228
1697842581109717000,2.402717041015625,9.369708061218262,-0.6404489278793335,0.44412440061569214
1697842581119420000,2.412419921875,10.406397819519043,0.28730419278144836,-0.7410054206848145
1697842581129715000,2.42271484375,10.675745010375977,-0.06584054976701736,-0.8523358106613159
1697842581139637000,2.432636962890625,10.533289909362793,0.5303156971931458,-0.2585737705230713
1697842581149684000,2.44268408203125,9.23323917388916,0.12330138683319092,0.19033902883529663
1697842581159794000,2.4527939453125,9.68813705444336,-0.456095427274704,-0.606930136680603
1697842581169867000,2.462866943359375,9.782708168029785,-0.5674257874488831,-0.9241618514060974
1697842581179777000,2.472777099609375,9.850942611694336,-0.5590460896492004,-0.5889736413955688
1697842581189633000,2.482633056640625,9.913191795349121,-0.02274491637945175,-0.4381389021873474
1697842581199757000,2.492757080078125,9.53849983215332,0.12449848651885986,0.13407529890537262
1697842581209731000,2.50273095703125,9.136273384094238,0.5925649404525757,-0.5722141861915588
1697842581219242000,2.512241943359375,9.93354320526123,0.04429273307323456,-0.6560112833976746
1697842581229400000,2.522400146484375,10.010157585144043,0.16519992053508759,-0.3519476354122162
1697842581239407000,2.532406982421875,10.152612686157227,-0.08259996026754379,-0.6727706789970398
1697842581250050000,2.543050048828125,9.445125579833984,-0.13766659796237946,-0.6165069341659546
1697842581259337000,2.5523369140625,9.222464561462402,-0.08978256583213806,-0.4225766062736511
1697842581269714000,2.5627138671875,8.382100105285645,0.22744916379451752,0.5231330990791321
1697842581279334000,2.572333984375,8.78193187713623,0.05506663769483566,-0.09576806426048279
1697842581290089000,2.5830888671875,9.095572471618652,0.11252748221158981,0.15083470940589905
1697842581300554000,2.593553955078125,9.48462963104248,0.0035913025494664907,0.8858546018600464
1697842581309493000,2.602492919921875,10.050858497619629,-0.4465186297893524,0.0933738648891449
1697842581320092000,2.613091796875,9.882067680358887,0.1604115068912506,-1.2186486721038818
1697842581330287000,2.623287109375,10.747570991516113,-0.5542576909065247,-0.05985504388809204
1697842581340279000,2.633279052734375,10.27591323852539,0.3878606855869293,0.8678981065750122
1697842581350572000,2.643572021484375,9.927556991577148,0.23104046285152435,-0.9181763529777527
1697842581360161000,2.6531611328125,9.635464668273926,0.6524199843406677,-0.1388636976480484
1697842581369429000,2.662428955078125,9.384073257446289,-0.05746084079146385,-0.23343466222286224
1697842581379504000,2.672504150390625,8.900444984436035,0.39384618401527405,-0.3495534360408783
1697842581390330000,2.683330078125,9.514557838439941,-0.7637503147125244,-0.48482584953308105
1697842581400730000,2.693730224609375,9.818621635437012,0.2406172752380371,-0.2346317619085312
1697842581410480000,2.703480224609375,9.744400978088379,-0.1975216418504715,-0.3603273630142212
1697842581419939000,2.71293896484375,9.925163269042969,0.19273324310779572,-0.46327802538871765
1697842581430417000,2.7234169921875,9.601945877075195,-0.18914192914962769,-0.15801730751991272
1697842581440287000,2.733286865234375,9.422380447387695,0.4800374507904053,-0.07302315533161163
1697842581450572000,2.743572021484375,8.927978515625,0.02992752194404602,0.17956513166427612
1697842581460283000,2.753282958984375,9.258378028869629,0.5171475410461426,0.3124433159828186
1697842581470135000,2.763135009765625,10.017339706420898,0.3495534360408783,-0.5614402890205383
1697842581479898000,2.772898193359375,9.807847023010254,0.6847416758537292,0.30885201692581177
1697842581489500000,2.7825,9.259574890136719,0.707486629486084,-0.02274491637945175
1697842581500576000,2.793575927734375,9.260771751403809,-0.3447650372982025,-0.05386953800916672
1697842581510284000,2.803283935546875,9.295488357543945,0.33758243918418884,0.26815059781074524
1697842581520173000,2.813173095703125,8.694543838500977,-0.15801730751991272,1.1049240827560425
1697842581530362000,2.823362060546875,9.404424667358398,0.3495534360408783,-0.023942016065120697
1697842581540286000,2.833285888671875,10.108319282531738,2.895787000656128,0.3734954595565796
1697842581550567000,2.84356689453125,10.348937034606934,6.80551815032959,-0.0071826050989329815
1697842581559598000,2.85259814453125,10.348937034606934,6.80551815032959,-3.1064767837524414
1697842581569718000,2.862718017578125,9.153033256530762,5.722142219543457,1.5131354331970215
1697842581579703000,2.872703125,8.045714378356934,7.897274494171143,-1.3180080652236938
1697842581589726000,2.882725830078125,8.984241485595703,8.198944091796875,-1.7334020137786865
1697842581599814000,2.89281396484375,8.803479194641113,9.117119789123535,-0.0454898327589035
1697842581609760000,2.902760009765625,8.432378768920898,9.32661247253418,0.751779317855835
1697842581619821000,2.912821044921875,7.933187484741211,10.134655952453613,1.0031704902648926
1697842581629694000,2.92269384765625,8.87410831451416,11.432312965393066,-2.6623523235321045
1697842581639751000,2.9327509765625,9.114726066589355,12.334927558898926,-2.713827610015869
1697842581649794000,2.9427939453125,11.009736061096191,10.802638053894043,2.31758713722229
1697842581659842000,2.952842041015625,8.564059257507324,11.171344757080078,1.290474772453308
1697842581669650000,2.96264990234375,11.036072731018066,7.947552680969238,-1.072602391242981
1697842581679387000,2.972386962890625,8.661025047302246,9.23563289642334,-1.138442873954773
1697842581689982000,2.98298193359375,8.984241485595703,9.749189376831055,-2.2433669567108154
1697842581699702000,2.992701904296875,9.330204010009766,9.615114212036133,-0.3878606855869293
1697842581709911000,3.0029111328125,8.453926086425781,11.167754173278809,2.409764051437378
1697842581719348000,3.012347900390625,8.779537200927734,11.083956718444824,-1.1180921792984009
1697842581729193000,3.02219287109375,9.59715747833252,12.11705493927002,-2.0626046657562256
1697842581739253000,3.0322529296875,11.894393920898438,10.650606155395508,-0.28371289372444153
1697842581749143000,3.04214306640625,10.66137981414795,9.765948295593262,0.07781155407428741
1697842581759392000,3.05239208984375,11.474211692810059,9.332598686218262,3.3255462646484375
1697842581769459000,3.062458984375,9.71926212310791,10.736797332763672,-0.7637503147125244
1697842581779686000,3.072685791015625,9.943120002746582,13.384784698486328,-7.966706275939941
1697842581789764000,3.08276416015625,10.450690269470215,13.08790397644043,2.542642116546631
1697842581799573000,3.092572998046875,9.537302017211914,11.398794174194336,4.612429618835449
1697842581809636000,3.102635986328125,11.692084312438965,11.490970611572266,-8.620323181152344
1697842581819705000,3.112705078125,11.27070426940918,11.869255065917969,-3.712209701538086
1697842581829365000,3.122364990234375,9.245209693908691,12.060791015625,3.709815502166748
1697842581839561000,3.13256103515625,9.157821655273438,11.777078628540039,-0.9373299479484558
1697842581849639000,3.142638916015625,9.667786598205566,10.754754066467285,-0.10893617570400238
1697842581859647000,3.15264697265625,9.655815124511719,11.398794174194336,2.1811177730560303
1697842581869714000,3.1627138671875,10.5344877243042,11.768698692321777,0.4465186297893524
1697842581879943000,3.17294287109375,10.654197692871094,11.41555404663086,-2.7114334106445312
1697842581890169000,3.183169189453125,10.667366027832031,11.75792407989502,-1.902193307876587
1697842581899769000,3.19276904296875,8.002618789672852,11.131840705871582,-1.1001356840133667
1697842581909522000,3.20252197265625,8.446743965148926,9.883264541625977,1.2617442607879639
1697842581919294000,3.2122939453125,8.591592788696289,9.995792388916016,-1.094150185585022
1697842581929354000,3.22235400390625,9.174580574035645,10.676942825317383,-6.157886981964111
1697842581939749000,3.2327490234375,8.71728801727295,10.925939559936523,0.9074024558067322
1697842581949605000,3.242605224609375,7.224503517150879,12.389993667602539,2.3762452602386475
1697842581959379000,3.25237890625,9.941922187805176,9.742006301879883,-4.55616569519043
1697842581969935000,3.26293505859375,8.942343711853027,11.367670059204102,-2.2409727573394775
1697842581979379000,3.27237890625,9.578003883361816,7.824251174926758,1.0965443849563599
1697842581989221000,3.28222119140625,7.289146900177002,8.495824813842773,1.3563152551651
1697842581999463000,3.292462890625,8.968679428100586,8.565256118774414,0.8355764150619507
1697842582011104000,3.30410400390625,8.016983985900879,9.819818496704102,-1.9728221893310547
1697842582019752000,3.312751953125,7.372944355010986,7.9858598709106445,2.008735179901123
1697842582029297000,3.322296875,8.13789176940918,7.583633899688721,-1.2054805755615234
1697842582039529000,3.332529052734375,8.070854187011719,6.873753070831299,-2.142810583114624
1697842582049142000,3.34214208984375,8.559270858764648,6.9240312576293945,0.181959331035614
1697842582059609000,3.352609130859375,8.75080680847168,7.513004779815674,-0.6224924325942993
1697842582069835000,3.3628349609375,9.042900085449219,9.20211410522461,-0.6751648783683777
1697842582079623000,3.372622802734375,8.914810180664062,11.190498352050781,2.1990742683410645
1697842582089917000,3.3829169921875,8.021772384643555,10.96304988861084,-1.5203180313110352
1697842582099242000,3.392241943359375,7.666234016418457,7.759607791900635,-3.0873231887817383
1697842582109935000,3.40293505859375,7.608773231506348,4.818330764770508,1.9273324012756348
1697842582119670000,3.412669921875,7.884106159210205,6.750451564788818,4.666299343109131
1697842582129783000,3.422782958984375,9.11113452911377,7.079654216766357,-0.24779987335205078
1697842582139693000,3.432693115234375,8.850166320800781,9.639056205749512,-1.7369933128356934
1697842582149333000,3.4423330078125,8.851364135742188,10.797849655151367,-0.7098808288574219
1697842582159790000,3.4527900390625,9.342175483703613,10.796652793884277,-1.0211269855499268
1697842582169348000,3.46234814453125,9.318233489990234,8.980650901794434,1.1252747774124146
1697842582179168000,3.47216796875,8.498218536376953,9.97065258026123,-1.5753847360610962
1697842582189376000,3.4823759765625,9.17697525024414,8.358158111572266,-2.1775264739990234
1697842582199716000,3.492716064453125,8.067262649536133,9.634267807006836,2.256535053253174
1697842582209915000,3.502914794921875,9.5408935546875,9.21288776397705,3.971980571746826
1697842582219439000,3.512439208984375,9.232041358947754,9.238027572631836,-0.912190854549408
1697842582229668000,3.522668212890625,9.561244010925293,10.131064414978027,-4.892550945281982
1697842582240408000,3.533407958984375,10.168174743652344,9.704896926879883,-1.3275848627090454
1697842582249386000,3.542385986328125,9.985017776489258,9.352949142456055,1.557428240776062
1697842582259262000,3.552261962890625,10.007762908935547,8.955511093139648,-1.290474772453308
1697842582269391000,3.56239111328125,9.01895809173584,11.706449508666992,-2.7497406005859375
1697842582279249000,3.572248779296875,9.362525939941406,11.621455192565918,-1.7501614093780518
1697842582289343000,3.582343017578125,9.949105262756348,9.906009674072266,3.9408559799194336
1697842582299991000,3.592990966796875,10.038887977600098,7.360973358154297,-1.7322049140930176
1697842582309554000,3.602553955078125,10.730812072753906,8.740033149719238,-4.492719650268555
1697842582320482000,3.61348193359375,10.918756484985352,11.366472244262695,-0.2406172752380371
1697842582330767000,3.62376708984375,10.716446876525879,10.72722053527832,1.647210717201233
1697842582340143000,3.63314306640625,10.736797332763672,10.291476249694824,-1.3395558595657349
1697842582349636000,3.642635986328125,10.192116737365723,11.48259162902832,-0.9684545993804932
1697842582359380000,3.6523798828125,10.441113471984863,12.126631736755371,0.8990227580070496
1697842582369636000,3.662635986328125,9.855731010437012,12.222399711608887,0.7350199222564697
1697842582380029000,3.67302880859375,10.333374977111816,9.068038940429688,-0.04429273307323456
1697842582389322000,3.682322021484375,9.591172218322754,10.515334129333496,-2.5785553455352783
1697842582399710000,3.6927099609375,10.60272216796875,10.935516357421875,-0.8331822156906128
1697842582409379000,3.702379150390625,10.040084838867188,11.797429084777832,0.5003881454467773
1697842582419948000,3.712947998046875,10.787075996398926,10.801441192626953,-0.6775590777397156
1697842582430684000,3.723683837890625,10.065223693847656,11.781867027282715,-0.02992752194404602
1697842582440288000,3.7332880859375,9.349357604980469,11.549629211425781,-0.6919242739677429
1697842582449989000,3.742989013671875,10.393229484558105,9.946710586547852,-1.0845733880996704
1697842582459479000,3.75247900390625,8.990227699279785,10.953473091125488,0.5841852426528931
1697842582470298000,3.763298095703125,9.44871711730957,10.351330757141113,-0.46088382601737976
1697842582479573000,3.772572998046875,9.001001358032227,11.724405288696289,-0.7912836670875549
1697842582490632000,3.7836318359375,10.182539939880371,10.913968086242676,-0.15562310814857483
1697842582499956000,3.7929560546875,9.501389503479004,11.453861236572266,1.0235211849212646
1697842582509477000,3.80247705078125,10.591948509216309,11.1102933883667,0.585382342338562
1697842582520457000,3.81345703125,10.166977882385254,10.880449295043945,-0.25498247146606445
1697842582529596000,3.822595947265625,9.824606895446777,10.597933769226074,-3.713406801223755
1697842582540686000,3.83368603515625,10.472238540649414,11.18092155456543,-2.4396915435791016
1697842582549488000,3.842488037109375,9.346963882446289,10.192116737365723,1.3192051649093628
1697842582560306000,3.853305908203125,8.519766807556152,10.299856185913086,1.6340426206588745
1697842582570261000,3.863260986328125,8.196549415588379,9.047688484191895,0.49320554733276367
1697842582580256000,3.873256103515625,9.159018516540527,10.109517097473145,-2.117671489715576
1697842582590318000,3.883318115234375,9.102754592895508,10.098742485046387,-1.259350061416626
1697842582599782000,3.892781982421875,8.034940719604492,9.678560256958008,2.1954829692840576
1697842582609482000,3.90248193359375,8.418013572692871,8.366538047790527,-2.942473888397217
1697842582620446000,3.913446044921875,8.503006935119629,8.609549522399902,-1.7166426181793213
1697842582629577000,3.922576904296875,7.5213847160339355,10.584765434265137,0.5985504388809204
1697842582640426000,3.933426025390625,7.997830867767334,8.965087890625,-0.5841852426528931
1697842582650318000,3.943318115234375,7.778761386871338,7.922413349151611,-0.13766659796237946
1697842582659314000,3.95231396484375,7.916428089141846,8.248024940490723,0.22625206410884857
1697842582670587000,3.9635869140625,9.012971878051758,8.20373249053955,0.7529764175415039
1697842582679450000,3.9724501953125,7.462726593017578,8.456320762634277,0.21787235140800476
1697842582689449000,3.982448974609375,8.577227592468262,7.315483093261719,-3.824737310409546
1697842582699640000,3.99264013671875,9.036913871765137,10.505757331848145,-1.6089035272598267
1697842582709569000,4.002569091796875,8.53532886505127,9.93593692779541,1.8279730081558228
1697842582720512000,4.013511962890625,7.50582218170166,9.060855865478516,1.0558429956436157
1697842582729556000,4.022555908203125,9.096769332885742,8.549694061279297,-3.490746021270752
1697842582740613000,4.033613037109375,8.292317390441895,8.593987464904785,0.15442600846290588
1697842582749991000,4.042990966796875,7.897274494171143,7.536946773529053,2.869450807571411
1697842582759430000,4.052429931640625,9.976638793945312,7.316680431365967,-4.322731018066406
1697842582769554000,4.062553955078125,9.569623947143555,4.426878929138184,-0.5159504413604736
1697842582779516000,4.072515869140625,8.32104778289795,6.670246124267578,3.8762125968933105
1697842582790732000,4.08373193359375,9.149441719055176,11.277887344360352,1.3096283674240112
1697842582800426000,4.093426025390625,8.670601844787598,8.949525833129883,-4.881777286529541
1697842582810338000,4.103338134765625,8.785523414611816,10.778696060180664,-1.8363527059555054
1697842582819492000,4.1124921875,8.785523414611816,8.067262649536133,2.8658595085144043
1697842582829482000,4.12248193359375,8.24084186553955,9.277531623840332,0.5422866940498352
1697842582839835000,4.1328349609375,8.888473510742188,8.057685852050781,-2.7964274883270264
1697842582850133000,4.143133056640625,9.619902610778809,7.50462532043457,-0.24181437492370605
1697842582859673000,4.152673095703125,9.084798812866211,7.708132266998291,6.550535678863525
1697842582870386000,4.163385986328125,9.53849983215332,9.940725326538086,-4.612429618835449
1697842582880498000,4.173497802734375,10.281899452209473,9.399636268615723,-5.471948146820068
1697842582890602000,4.18360205078125,9.402029991149902,12.800599098205566,3.60566782951355
1697842582899630000,4.192630126953125,9.059659004211426,10.696096420288086,5.1116204261779785
1697842582909672000,4.202671875,8.455122947692871,10.023324966430664,-3.780444383621216
1697842582919936000,4.21293603515625,9.502586364746094,8.608352661132812,-4.623203277587891
1697842582930387000,4.223386962890625,9.29069995880127,9.223662376403809,0.6189011335372925
1697842582939526000,4.23252587890625,9.965864181518555,9.180566787719727,2.5989060401916504
1697842582950324000,4.243323974609375,9.971850395202637,9.621099472045898,-0.11013327538967133
1697842582959246000,4.25224609375,11.523292541503906,9.824606895446777,-1.8076223134994507
1697842582970396000,4.26339599609375,9.613917350769043,12.749124526977539,-3.070563793182373
1697842582979441000,4.27244091796875,11.218031883239746,11.727996826171875,1.5071499347686768
1697842582989404000,4.28240380859375,9.546878814697266,12.476184844970703,0.52552729845047
1697842583000203000,4.293203125,11.105504989624023,10.6709566116333,-1.868674397468567
1697842583012121000,4.30512109375,9.313444137573242,10.096348762512207,-0.33039984107017517
1697842583029114000,4.322114013671875,10.110713958740234,10.24000072479248,0.23104046285152435
1697842583039119000,4.332119140625,9.66539192199707,10.210073471069336,-1.092953085899353
1697842583049123000,4.342123046875,10.899602890014648,11.036072731018066,-1.3192051649093628
1697842583059294000,4.3522939453125,10.08078670501709,11.990161895751953,-0.8475474119186401
1697842583070372000,4.3633720703125,10.225635528564453,10.94269847869873,-0.6655880808830261
1697842583079436000,4.37243603515625,9.890447616577148,11.459846496582031,0.2944868206977844
1697842583090260000,4.383260009765625,9.774328231811523,11.05642318725586,-0.456095427274704
1697842583099470000,4.392469970703125,9.726444244384766,10.538078308105469,-0.3447650372982025
1697842583109489000,4.402489013671875,9.904812812805176,10.2962646484375,-0.8583213090896606
1697842583120201000,4.413200927734375,9.81024169921875,9.672574996948242,-1.2461819648742676
1697842583129412000,4.422412109375,9.518148422241211,9.965864181518555,-0.13527239859104156
1697842583140042000,4.4330419921875,9.488221168518066,9.327810287475586,-1.2880805730819702
1697842583150336000,4.4433359375,9.6989107131958,7.886500358581543,-1.0307037830352783
1697842583159422000,4.452421875,9.674968719482422,6.458359241485596,-0.14245499670505524
1697842583170214000,4.4632138671875,9.493009567260742,4.853046894073486,-0.21188685297966003
1697842583179357000,4.47235693359375,9.50617790222168,3.069366693496704,-0.6572083830833435
1697842583189923000,4.482923095703125,9.774328231811523,1.2318167686462402,-0.47884035110473633
1697842583199404000,4.492404052734375,9.915586471557617,0.2537853717803955,-0.8702923059463501
1697842583209443000,4.502443115234375,10.435128211975098,-0.8367735147476196,-0.22864626348018646
1697842583219337000,4.5123369140625,10.595540046691895,-1.4712369441986084,-0.6021417379379272
1697842583229343000,4.522343017578125,11.233593940734863,-3.1711201667785645,-0.7481880187988281
1697842583240005000,4.533005126953125,11.763910293579102,-3.7876269817352295,-0.3974374830722809
1697842583249886000,4.542885986328125,11.455058097839355,-4.041412353515625,0.0933738648891449
1697842583259295000,4.552294921875,11.455058097839355,-3.3865983486175537,-0.8966285586357117
1697842583270266000,4.56326611328125,11.719616889953613,-2.2194249629974365,-0.9229647517204285
1697842583279456000,4.5724560546875,11.371260643005371,-3.1100680828094482,-0.9229647517204285
1697842583289442000,4.582442138671875,10.69489860534668,-2.8622682094573975,0.48482584953308105
1697842583300346000,4.59334619140625,10.08198356628418,-2.58813214302063,0.15322890877723694
1697842583309489000,4.602489013671875,9.436745643615723,-3.4847605228424072,-0.6643909811973572
1697842583320464000,4.6134638671875,8.882488250732422,-4.394556999206543,0.3100491166114807
1697842583329470000,4.622469970703125,8.461109161376953,-4.611232280731201,0.45010992884635925
1697842583340168000,4.63316796875,8.175002098083496,-4.286818027496338,-0.7398083209991455
1697842583350151000,4.64315087890625,8.079233169555664,-4.175487995147705,-0.5722141861915588
1697842583359486000,4.65248583984375,7.454347133636475,-4.959589004516602,0.4345476031303406
1697842583370348000,4.66334814453125,7.771578788757324,-4.163516521453857,0.37229835987091064
1697842583379272000,4.67227197265625,8.335412979125977,0.13766659796237946,0.24181437492370605
1697842583389524000,4.68252392578125,7.303512096405029,-0.20231004059314728,1.1971008777618408
1697842583399338000,4.692337890625,7.654263019561768,0.7003039717674255,1.8327614068984985
1697842583409783000,4.702782958984375,6.657077789306641,-1.9297266006469727,0.9600749015808105
1697842583420573000,4.713572998046875,8.105569839477539,-1.3036428689956665,0.5327098965644836
1697842583430073000,4.723072998046875,6.9491705894470215,-1.5765818357467651,-3.0131027698516846
1697842583440246000,4.73324609375,7.711723804473877,-0.10295066982507706,1.5933412313461304
1697842583450599000,4.743598876953125,6.810306549072266,1.191115379333496,1.5119383335113525
1697842583460546000,4.753546142578125,7.723694801330566,1.5849615335464478,-0.4297592043876648
1697842583470456000,4.7634560546875,7.848193168640137,1.1109095811843872,-3.114856481552124
1697842583479597000,4.77259716796875,9.187748908996582,3.141192674636841,-0.2346317619085312
1697842583489869000,4.782869140625,8.060079574584961,5.011064052581787,3.0310592651367188
1697842583500456000,4.7934560546875,9.453505516052246,5.043385982513428,-1.1647791862487793
1697842583510450000,4.803449951171875,10.417171478271484,4.565742492675781,-0.9828197956085205
1697842583520297000,4.813296875,8.743624687194824,2.409764051437378,3.157952070236206
1697842583530094000,4.823093994140625,9.787496566772461,0.12330138683319092,1.2545616626739502
1697842583539510000,4.832510009765625,10.267534255981445,-0.44532153010368347,0.5889736413955688
1697842583549712000,4.8427119140625,9.90241813659668,-0.3734954595565796,-0.0802057534456253
1697842583559527000,4.85252685546875,10.459070205688477,-0.5015852451324463,0.15801730751991272
1697842583570229000,4.86322900390625,10.605116844177246,-0.4704606235027313,0.4213795065879822
1697842583579276000,4.872276123046875,10.862493515014648,-0.8080430626869202,0.3232172429561615
1697842583590185000,4.88318505859375,10.94030475616455,-0.99479079246521,0.44532153010368347
1697842583600717000,4.893717041015625,10.896012306213379,-1.1324573755264282,0.22385786473751068
1697842583609768000,4.902767822265625,10.752359390258789,-1.1839327812194824,-0.05746084079146385
1697842583619576000,4.912576171875,10.684124946594238,-1.1348515748977661,-0.2406172752380371
1697842583629458000,4.9224580078125,10.711658477783203,-1.035492181777954,-0.4058171808719635
1697842583639954000,4.932953857421875,10.673351287841797,-0.669179379940033,-0.15921440720558167
1697842583650389000,4.943388916015625,10.647014617919922,-0.33997663855552673,0.5039794445037842
1697842583659407000,4.952406982421875,10.3549222946167,0.033518824726343155,-0.35075053572654724
1697842583669728000,4.96272802734375,10.23880386352539,0.4967968463897705,-0.9133879542350769
1697842583679529000,4.972529052734375,10.29746150970459,0.7936778664588928,-1.0965443849563599
1697842583690470000,4.983469970703125,10.261548042297363,0.5626373887062073,-0.2801215946674347
1697842583699209000,4.992208984375,10.182539939880371,0.5626373887062073,-0.2801215946674347
1697842583710526000,5.00352587890625,10.078392028808594,0.8954314589500427,0.03950432687997818
1697842583720268000,5.01326806640625,10.041281700134277,1.116895079612732,-0.39384618401527405
1697842583729432000,5.02243212890625,9.910798072814941,1.3072341680526733,-0.47644615173339844
1697842583739983000,5.032983154296875,9.86889934539795,1.279700756072998,-0.17238251864910126
1697842583750448000,5.0434482421875,9.816226959228516,1.3658920526504517,-0.2406172752380371
1697842583759509000,5.052509033203125,9.861717224121094,1.357512354850769,-0.41539400815963745
1697842583770464000,5.063464111328125,10.0580415725708,1.3730746507644653,-0.24899697303771973
1697842583779364000,5.072364013671875,10.04846477508545,1.2749123573303223,0.07302315533161163
1697842583789913000,5.0829130859375,10.055646896362305,1.2952631711959839,-0.08619125932455063
1697842583800594000,5.093593994140625,10.017339706420898,1.1276689767837524,-0.32202014327049255
1697842583809531000,5.10253076171875,10.121487617492676,1.0271124839782715,-0.14604631066322327
1697842583820299000,5.113299072265625,10.107122421264648,0.8379706144332886,-0.014365210197865963
1697842583830096000,5.123095947265625,10.231620788574219,0.646434485912323,-0.26815059781074524
1697842583839505000,5.1325048828125,10.269927978515625,0.40222588181495667,-0.14604631066322327
1697842583850146000,5.14314599609375,10.315418243408203,0.3818751573562622,0.05626374110579491
1697842583860343000,5.153343017578125,10.431536674499512,0.30885201692581177,-0.016759412363171577
1697842583869635000,5.162635009765625,10.437521934509277,0.3064578175544739,-0.08379705995321274
1697842583880277000,5.173277099609375,10.425551414489746,0.4010287821292877,0.004788403399288654
1697842583890457000,5.18345703125,10.370484352111816,0.2621650993824005,-0.18914192914962769
1697842583900828000,5.193827880859375,10.371682167053223,0.2298433631658554,-0.05386953800916672
1697842583910302000,5.203302001953125,10.2747163772583,0.11013327538967133,0.009576806798577309
1697842583919593000,5.212593017578125,10.317811965942383,-0.004788403399288654,0.13527239859104156
1697842583929781000,5.222781005859375,10.268731117248535,-0.13766659796237946,0.25019407272338867
1697842583939304000,5.232303955078125,10.200496673583984,-0.14604631066322327,0.2669534981250763
1697842583950357000,5.24335693359375,10.135852813720703,-0.09457096457481384,0.14006079733371735
1697842583959690000,5.25268994140625,10.053253173828125,0.061052143573760986,0.07781155407428741
1697842583969472000,5.262471923828125,9.874884605407715,0.10773907601833344,0.02274491637945175
1697842583980272000,5.273272216796875,9.7791166305542,0.22625206410884857,0.1149216815829277
1697842583989859000,5.282859130859375,9.671378135681152,0.2082955539226532,0.16639702022075653
1697842584000908000,5.293907958984375,9.680954933166504,0.181959331035614,0.1951274424791336
1697842584009193000,5.30219287109375,9.591172218322754,0.1041477769613266,0.19871874153614044
1697842584019182000,5.31218212890625,9.53849983215332,0.1412578970193863,0.2561795711517334
1697842584029425000,5.3224248046875,9.48462963104248,0.12210428714752197,0.1628057211637497
1697842584039606000,5.33260595703125,9.405621528625488,0.08499415963888168,0.08140286058187485
1697842584049169000,5.3421689453125,9.288305282592773,0.05985504388809204,0.08259996026754379
1697842584059249000,5.352248779296875,9.257181167602539,0.08140286058187485,0.15083470940589905
1697842584069328000,5.362327880859375,9.229647636413574,0.12689268589019775,0.038307227194309235
1697842584079388000,5.372387939453125,9.17817211151123,0.1867477297782898,-0.05386953800916672
1697842584089326000,5.382326171875,9.132682800292969,0.16759411990642548,0.07062894850969315
1697842584099705000,5.392705078125,9.095572471618652,0.12689268589019775,0.23702596127986908
1697842584109226000,5.40222607421875,9.159018516540527,0.11611878126859665,0.07781155407428741
1697842584119728000,5.41272802734375,9.226056098937988,-0.02992752194404602,-0.08738835901021957
1697842584129455000,5.422455078125,9.295488357543945,-0.12090718746185303,0.04429273307323456
1697842584139376000,5.432376220703125,9.366117477416992,-0.11133038252592087,0.008379706181585789
1697842584149635000,5.442635009765625,9.44871711730957,-0.11013327538967133,-0.028730420395731926
1697842584159256000,5.452256103515625,9.475052833557129,-0.12449848651885986,-0.0035913025494664907
1697842584169712000,5.462712158203125,9.512163162231445,-0.08140286058187485,0.07302315533161163
1697842584179468000,5.472468017578125,9.585186958312988,-0.0694318488240242,-0.0933738648891449
1697842584189687000,5.48268701171875,9.659406661987305,-0.040701430290937424,-0.20709845423698425
1697842584200194000,5.493194091796875,9.706093788146973,-0.06823474913835526,-0.25019407272338867
1697842584209384000,5.502384033203125,9.768342971801758,-0.08978256583213806,-0.07541735470294952
1697842584220429000,5.513428955078125,9.803058624267578,-0.038307227194309235,0.031124621629714966
1697842584229612000,5.522612060546875,9.84615421295166,-0.0035913025494664907,-0.11611878126859665
1697842584240016000,5.533015869140625,9.877279281616211,0.02753331884741783,-0.0035913025494664907
1697842584249473000,5.54247314453125,9.860519409179688,0.005985504016280174,0.0011971008498221636
1697842584259388000,5.552387939453125,9.897629737854004,0.14006079733371735,-0.1256955862045288
1697842584270426000,5.563426025390625,9.946710586547852,0.19393034279346466,-0.2214636504650116
1697842584279345000,5.572344970703125,9.980229377746582,0.1975216418504715,-0.18914192914962769
1697842584289443000,5.582443115234375,9.908403396606445,0.1951274424791336,-0.0694318488240242
1697842584300433000,5.593432861328125,9.965864181518555,0.3196259140968323,0.06584054976701736
1697842584309541000,5.602541015625,9.987412452697754,0.35673606395721436,0.023942016065120697
1697842584319364000,5.612364013671875,9.95748519897461,0.47165772318840027,-0.07661445438861847
1697842584329539000,5.6225390625,9.885659217834473,0.4106055796146393,-0.0694318488240242
1697842584339858000,5.63285791015625,9.904812812805176,0.4800374507904053,0.011971008032560349
1697842584350568000,5.64356787109375,9.859322547912598,0.4836287498474121,-0.2585737705230713
1697842584359459000,5.652458984375,9.800664901733398,0.5602431893348694,-0.20350714027881622
1697842584370624000,5.6636240234375,9.709685325622559,0.6536170840263367,-0.0454898327589035
1697842584379828000,5.672827880859375,9.743204116821289,0.667982280254364,0.21428105235099792
1697842584389477000,5.68247705078125,9.792284965515137,0.729034423828125,-0.016759412363171577
1697842584400268000,5.69326806640625,9.651026725769043,0.5674257874488831,0.014365210197865963
1697842584409469000,5.702468994140625,9.604340553283691,0.48482584953308105,0.07541735470294952
1697842584419401000,5.71240087890625,9.425971984863281,0.5614402890205383,0.06344634294509888
1697842584429943000,5.722943115234375,9.441534042358398,0.365115761756897,-0.23942017555236816
1697842584439545000,5.732545166015625,9.429563522338867,0.34835633635520935,-0.043095629662275314
1697842584450603000,5.74360302734375,9.272743225097656,0.18794482946395874,0.0071826050989329815
1697842584459461000,5.752461181640625,9.210494041442871,0.14484919607639313,0.16519992053508759
1697842584470467000,5.763467041015625,9.240421295166016,0.1711854189634323,0.12689268589019775
1697842584479440000,5.77243994140625,9.095572471618652,0.02992752194404602,0.014365210197865963
1697842584489447000,5.782447021484375,9.271546363830566,-0.16759411990642548,-0.02274491637945175
1697842584500566000,5.79356591796875,9.329007148742676,-0.21547815203666687,0.17956513166427612
1697842584509452000,5.8024521484375,9.329007148742676,-0.1280897855758667,0.10295066982507706
1697842584520535000,5.81353515625,9.500192642211914,-0.12449848651885986,-0.08738835901021957
1697842584529561000,5.82256103515625,9.500192642211914,-0.12449848651885986,0.09457096457481384
1697842584539381000,5.832381103515625,9.503783226013184,-0.18555063009262085,-0.12210428714752197
1697842584549156000,5.842156005859375,9.68813705444336,-0.21787235140800476,-0.07182604819536209
1697842584559302000,5.852302001953125,9.801861763000488,-0.27653029561042786,-0.14245499670505524
1697842584569155000,5.862155029296875,9.974244117736816,-0.3016694188117981,0.13287819921970367
1697842584579355000,5.87235498046875,9.963470458984375,-0.17477671802043915,0.2059013396501541
1697842584589685000,5.88268505859375,10.014945983886719,-0.2298433631658554,0.04908113554120064
1697842584599470000,5.892469970703125,10.160991668701172,-0.28730419278144836,0.04908113554120064
1697842584609131000,5.902131103515625,10.204087257385254,-0.3076549172401428,0.09816227108240128
1697842584619127000,5.912126953125,10.200496673583984,-0.3519476354122162,0.22026655077934265
1697842584629169000,5.9221689453125,10.394426345825195,-0.31842881441116333,-0.16998831927776337
1697842584639365000,5.932365234375,10.383652687072754,-0.2346317619085312,-0.013168109580874443
1697842584650106000,5.943106201171875,10.348937034606934,-0.25019407272338867,0.0071826050989329815
1697842584659963000,5.952962890625,10.408791542053223,-0.23942017555236816,0.10175357013940811
1697842584669773000,5.96277294921875,10.523713111877441,-0.20709845423698425,-0.05267243832349777
1697842584680446000,5.973446044921875,10.468647003173828,-0.20949265360832214,-0.002394201699644327
1697842584689402000,5.982402099609375,10.447098731994629,-0.2537853717803955,-0.0011971008498221636
1697842584699663000,5.9926630859375,10.505757331848145,-0.2801215946674347,0.07062894850969315
1697842584709409000,6.002408935546875,10.503362655639648,-0.2513911724090576,-0.05027823522686958
1697842584720279000,6.013279052734375,10.439916610717773,-0.22505496442317963,-0.07541735470294952
1697842584729500000,6.0225,10.404003143310547,-0.25737667083740234,-0.19871874153614044
1697842584739918000,6.03291796875,10.384849548339844,-0.28371289372444153,0.013168109580874443
1697842584750407000,6.043406982421875,10.473435401916504,-0.2777273952960968,-0.02513911761343479
1697842584759655000,6.052655029296875,10.347740173339844,-0.24181437492370605,-0.10893617570400238
1697842584770437000,6.06343701171875,10.302249908447266,-0.23582886159420013,-0.09576806426048279
1697842584779473000,6.072472900390625,10.311826705932617,-0.3172317147254944,0.12449848651885986
1697842584790104000,6.08310400390625,10.269927978515625,-0.22026655077934265,0.02274491637945175
1697842584800295000,6.093294921875,10.273519515991211,-0.20709845423698425,-0.09457096457481384
1697842584809397000,6.10239697265625,10.230423927307129,-0.17836803197860718,-0.181959331035614
1697842584820361000,6.11336083984375,10.200496673583984,-0.25737667083740234,-0.1041477769613266
1697842584830143000,6.12314306640625,10.160991668701172,-0.22266076505184174,-0.0347159244120121
1697842584839414000,6.1324140625,10.099940299987793,-0.23343466222286224,-0.08259996026754379
1697842584850381000,6.143381103515625,10.002974510192871,-0.15442600846290588,-0.043095629662275314
1697842584859420000,6.152419921875,9.941922187805176,-0.17717093229293823,-0.10534487664699554
1697842584870212000,6.163212158203125,9.913191795349121,-0.090979665517807,0.040701430290937424
1697842584880428000,6.173427978515625,9.917980194091797,-0.10893617570400238,-0.05506663769483566
1697842584890461000,6.1834609375,9.818621635437012,-0.08738835901021957,-0.08140286058187485
1697842584899832000,6.19283203125,9.786299705505371,-0.16639702022075653,-0.011971008032560349
1697842584910304000,6.203303955078125,9.768342971801758,-0.14484919607639313,0.2082955539226532
1697842584919320000,6.212320068359375,9.739612579345703,-0.09457096457481384,0.06464344263076782
1697842584929758000,6.222758056640625,9.653421401977539,-0.05985504388809204,-0.03950432687997818
1697842584939637000,6.232636962890625,9.635464668273926,-0.08858546614646912,-0.03711012750864029
1697842584949227000,6.24222705078125,9.646238327026367,-0.10654197633266449,0.152031809091568
1697842584959219000,6.252218994140625,9.646238327026367,-0.05985504388809204,0.014365210197865963
1697842584969485000,6.262485107421875,9.603142738342285,-0.0802057534456253,-0.0347159244120121
1697842584979469000,6.272468994140625,9.585186958312988,-0.12449848651885986,0.15562310814857483
1697842584989933000,6.28293310546875,9.57201862335205,-0.09696517139673233,0.14844051003456116
1697842584999216000,6.292216064453125,9.564835548400879,-0.10055647045373917,0.05267243832349777
1697842585009638000,6.302637939453125,9.545681953430176,-0.0933738648891449,-0.04189852997660637
1697842585019792000,6.3127919921875,9.512163162231445,-0.12330138683319092,0.011971008032560349
1697842585029207000,6.32220703125,9.531316757202148,-0.12090718746185303,0.02274491637945175
1697842585039192000,6.332192138671875,9.570821762084961,-0.11851298063993454,-0.08259996026754379
1697842585049121000,6.34212109375,9.552865028381348,-0.09935937076807022,-0.0933738648891449
1697842585059278000,6.352278076171875,9.558850288391113,-0.17238251864910126,0.009576806798577309
1697842585069533000,6.362532958984375,9.551667213439941,-0.12449848651885986,0.18555063009262085
1697842585079317000,6.37231689453125,9.641449928283691,-0.1041477769613266,-0.028730420395731926
1697842585089298000,6.3822978515625,9.59715747833252,-0.040701430290937424,-0.03950432687997818
1697842585100172000,6.393172119140625,9.642647743225098,-0.10534487664699554,-0.05985504388809204
1697842585109417000,6.4024169921875,9.710882186889648,-0.152031809091568,0.03950432687997818
1697842585120048000,6.413048095703125,9.75397777557373,-0.09576806426048279,0.03950432687997818
1697842585129860000,6.422860107421875,9.68813705444336,-0.035913024097681046,-0.0347159244120121
1697842585139266000,6.43226611328125,9.767146110534668,-0.017956512048840523,-0.1711854189634323
1697842585149868000,6.442867919921875,9.822212219238281,-0.09576806426048279,0.021547814831137657
1697842585159227000,6.452226806640625,9.855731010437012,-0.06224924325942993,0.10534487664699554
1697842585169621000,6.46262109375,9.77791976928711,-0.07661445438861847,-0.06344634294509888
1697842585179739000,6.47273876953125,9.828198432922363,-0.07781155407428741,-0.11851298063993454
1697842585189424000,6.482424072265625,9.841365814208984,-0.12210428714752197,-0.04189852997660637
1697842585200242000,6.493241943359375,9.84376049041748,-0.03950432687997818,0.016759412363171577
1697842585209401000,6.502401123046875,9.916783332824707,-0.04429273307323456,-0.038307227194309235
1697842585219984000,6.51298388671875,9.90361499786377,-0.014365210197865963,-0.0694318488240242
1697842585229771000,6.52277099609375,9.923966407775879,-0.10654197633266449,0.0071826050989329815
1697842585239720000,6.532719970703125,9.946710586547852,-0.07661445438861847,0.08738835901021957
1697842585250343000,6.543343017578125,9.97065258026123,-0.0933738648891449,-0.05386953800916672
1697842585259410000,6.552409912109375,9.883264541625977,-0.06344634294509888,-0.06823474913835526
1697842585270188000,6.56318798828125,9.874884605407715,-0.10055647045373917,-0.04189852997660637
1697842585279658000,6.572657958984375,9.943120002746582,-0.17956513166427612,0.22505496442317963
1697842585289366000,6.582365966796875,9.977835655212402,-0.11611878126859665,0.090979665517807
1697842585299775000,6.59277490234375,9.914389610290527,-0.08619125932455063,-0.021547814831137657
1697842585309363000,6.602363037109375,9.910798072814941,-0.1256955862045288,-0.11971008777618408
1697842585320076000,6.613075927734375,9.976638793945312,-0.12689268589019775,0.15921440720558167
1697842585329582000,6.62258203125,9.951498985290527,-0.10295066982507706,-0.005985504016280174
1697842585339548000,6.6325478515625,9.873687744140625,-0.10055647045373917,-0.11252748221158981
1697842585350162000,6.643161865234375,9.877279281616211,-0.09935937076807022,-0.13287819921970367
1697842585359408000,6.652408203125,9.904812812805176,-0.1496376097202301,-0.004788403399288654
1697842585370052000,6.663052001953125,9.864110946655273,-0.09576806426048279,0.14245499670505524
1697842585379651000,6.672651123046875,9.864110946655273,-0.1041477769613266,-0.019153613597154617
1697842585389401000,6.682401123046875,9.873687744140625,-0.03711012750864029,-0.07422025501728058
1697842585400046000,6.693046142578125,9.932345390319824,-0.04908113554120064,0.15801730751991272
1697842585409454000,6.7024541015625,9.904812812805176,-0.04189852997660637,-0.019153613597154617
1697842585420148000,6.71314794921875,9.855731010437012,-0.017956512048840523,-0.038307227194309235
1697842585429764000,6.72276416015625,9.84495735168457,-0.09696517139673233,-0.016759412363171577
1697842585439903000,6.732903076171875,9.84615421295166,-0.04429273307323456,0.1472434103488922
1697842585450428000,6.743427978515625,9.884461402893066,0.002394201699644327,0.04189852997660637
1697842585459464000,6.7524638671875,9.848548889160156,0.0454898327589035,-0.1149216815829277
1697842585470284000,6.763283935546875,9.824606895446777,-0.015562310814857483,-0.11971008777618408
1697842585479728000,6.77272802734375,9.898826599121094,-0.05746084079146385,0.05027823522686958
1697842585489860000,6.782860107421875,9.93354320526123,-0.016759412363171577,0.08619125932455063
1697842585499361000,6.792361083984375,9.805453300476074,0.0347159244120121,-0.017956512048840523
1697842585509378000,6.8023779296875,9.830592155456543,-0.009576806798577309,-0.05506663769483566
1697842585519990000,6.812989990234375,9.84256362915039,-0.05626374110579491,0.06823474913835526
1697842585529720000,6.822719970703125,9.856928825378418,-0.043095629662275314,0.0933738648891449
1697842585539297000,6.832297119140625,9.805453300476074,-0.014365210197865963,-0.07661445438861847
1697842585549633000,6.842633056640625,9.829395294189453,-0.04668693244457245,-0.14365209639072418
1697842585560104000,6.85310400390625,9.75397777557373,-0.15801730751991272,-0.023942016065120697
1697842585569523000,6.86252294921875,9.800664901733398,-0.09457096457481384,0.19273324310779572
1697842585579334000,6.872333984375,9.827000617980957,-0.0454898327589035,0.015562310814857483
1697842585589446000,6.88244580078125,9.774328231811523,-0.09576806426048279,-0.09457096457481384
1697842585599138000,6.892137939453125,9.694122314453125,-0.17477671802043915,-0.038307227194309235
1697842585609207000,6.90220703125,9.801861763000488,-0.15562310814857483,0.30885201692581177
1697842585619182000,6.91218212890625,9.821015357971191,-0.1472434103488922,-0.033518824726343155
1697842585629149000,6.92214892578125,9.684545516967773,-0.35075053572654724,-0.16759411990642548
1697842585639218000,6.932218017578125,9.704896926879883,-0.29568392038345337,0.16160862147808075
1697842585649703000,6.942702880859375,9.828198432922363,-0.4345476031303406,0.19033902883529663
1697842585659253000,6.9522529296875,9.709685325622559,-0.5063736438751221,-0.3315969407558441
1697842585669326000,6.962326171875,9.68813705444336,-0.5602431893348694,0.12090718746185303
1697842585679474000,6.972473876953125,9.68694019317627,-0.6847416758537292,0.22026655077934265
1697842585689232000,6.98223193359375,9.738415718078613,-0.8906430602073669,-0.1472434103488922
1697842585699208000,6.9922080078125,9.728838920593262,-0.8248024582862854,0.22266076505184174
1697842585709481000,7.00248095703125,9.603142738342285,-1.1109095811843872,0.05506663769483566
1697842585720073000,7.013072998046875,9.742006301879883,-0.9840168952941895,-0.07182604819536209
1697842585729636000,7.022635986328125,9.75278091430664,-1.2509703636169434,0.11013327538967133
1697842585739453000,7.032452880859375,9.680954933166504,-1.313219666481018,0.020350715145468712
1697842585750176000,7.043176025390625,9.807847023010254,-1.4628572463989258,0.15083470940589905
1697842585759553000,7.052552978515625,9.62828254699707,-1.622071623802185,0.02753331884741783
1697842585770147000,7.06314697265625,9.798270225524902,-1.6903064250946045,0.14484919607639313
1697842585779952000,7.0729521484375,9.739612579345703,-1.821987509727478,0.05985504388809204
1697842585789653000,7.082653076171875,9.822212219238281,-1.8136078119277954,0.13287819921970367
1697842585800014000,7.09301416015625,9.865307807922363,-1.8950105905532837,0.13766659796237946
1697842585810025000,7.10302490234375,9.795876502990723,-1.9632453918457031,-0.04908113554120064
1697842585819717000,7.112717041015625,9.961075782775879,-2.2373814582824707,0.1149216815829277
1697842585829591000,7.122591064453125,9.827000617980957,-2.078166961669922,0.019153613597154617
1697842585839703000,7.132703125,9.939528465270996,-2.3546974658966064,0.2537853717803955
1697842585849709000,7.142708984375,9.828198432922363,-2.2218191623687744,0.16759411990642548
1697842585859243000,7.152242919921875,10.008959770202637,-2.5019407272338867,0.16160862147808075
1697842585869995000,7.1629951171875,9.84376049041748,-2.4372973442077637,0.033518824726343155
1697842585879426000,7.172426025390625,10.041281700134277,-2.456450939178467,0.38067805767059326
1697842585889851000,7.182850830078125,9.940725326538086,-2.7269957065582275,0.07661445438861847
1697842585899943000,7.19294287109375,10.02452278137207,-2.668337821960449,0.24420857429504395
1697842585909859000,7.202859130859375,9.891644477844238,-2.759317398071289,0.3196259140968323
1697842585919677000,7.212677001953125,9.915586471557617,-2.898181200027466,0.08619125932455063
1697842585929131000,7.222131103515625,10.122684478759766,-2.80361008644104,0.243011474609375
1697842585939304000,7.232303955078125,9.928754806518555,-2.8802247047424316,0.3878606855869293
1697842585949526000,7.242526123046875,10.044873237609863,-2.980781078338623,0.27413609623908997
1697842585959783000,7.252782958984375,10.046070098876953,-3.002328872680664,0.20949265360832214
1697842585969220000,7.26222021484375,9.84615421295166,-3.1244332790374756,0.2298433631658554
1697842585979244000,7.272244140625,10.165780067443848,-3.2740707397460938,0.24899697303771973
1697842585990348000,7.28334814453125,10.044873237609863,-3.02986216545105,0.243011474609375
1697842585999379000,7.29237890625,9.988609313964844,-3.2118215560913086,0.19153612852096558
1697842586009658000,7.302658203125,10.20528507232666,-3.1735143661499023,0.2106897532939911
1697842586025065000,7.31806494140625,9.859322547912598,-3.1926679611206055,-0.08379705995321274
1697842586039163000,7.332162841796875,10.190919876098633,-3.156754970550537,0.19393034279346466
1697842586049155000,7.342155029296875,9.90241813659668,-2.9975404739379883,0.038307227194309235
1697842586059193000,7.352193115234375,9.950302124023438,-3.1268274784088135,-0.07900865375995636
1697842586069077000,7.362076904296875,10.198101997375488,-3.1004912853240967,0.3998316824436188
1697842586079413000,7.3724130859375,10.036493301391602,-3.046621561050415,0.11013327538967133
1697842586089206000,7.3822060546875,9.758766174316406,-3.223792552947998,0.031124621629714966
1697842586099178000,7.392177978515625,10.110713958740234,-3.0849289894104004,-0.0454898327589035
1697842586109898000,7.40289794921875,9.859322547912598,-2.82515811920166,0.06823474913835526
1697842586119909000,7.4129091796875,9.737217903137207,-3.0609867572784424,-0.0035913025494664907
1697842586129967000,7.422967041015625,10.047266960144043,-3.2549171447753906,-0.04429273307323456
1697842586140123000,7.433122802734375,9.889249801635742,-3.111265182495117,0.08259996026754379
1697842586149979000,7.442978759765625,9.895236015319824,-3.2166099548339844,-0.12689268589019775
1697842586159271000,7.45227099609375,10.064026832580566,-3.1196448802948,-0.16879121959209442
1697842586170023000,7.46302294921875,9.852140426635742,-3.0538041591644287,0.4776432514190674
1697842586179694000,7.472694091796875,9.65222454071045,-3.141192674636841,-0.3579331636428833
1697842586189639000,7.482638916015625,9.921571731567383,-3.4356794357299805,-0.18914192914962769
1697842586199177000,7.492177001953125,9.785101890563965,-2.9664158821105957,0.2406172752380371
1697842586209319000,7.50231884765625,9.548076629638672,-3.3854012489318848,-0.16759411990642548
1697842586219586000,7.5125859375,9.964667320251465,-3.159149169921875,0.10055647045373917
1697842586229436000,7.522435791015625,9.63187313079834,-3.0885202884674072,-0.0011971008498221636
1697842586240048000,7.533048095703125,9.764751434326172,-3.2740707397460938,0.17238251864910126
1697842586250260000,7.543260009765625,9.708487510681152,-2.9065608978271484,0.035913024097681046
1697842586260438000,7.55343798828125,9.639056205749512,-3.242946147918701,0.1364694982767105
1697842586269640000,7.562639892578125,10.066421508789062,-2.962824583053589,-0.06224924325942993
1697842586279425000,7.572425048828125,9.870096206665039,-2.7964274883270264,-0.0586579404771328
1697842586290071000,7.583071044921875,9.702502250671387,-2.8131868839263916,0.14245499670505524
1697842586299771000,7.59277099609375,9.921571731567383,-2.935291290283203,-0.1256955862045288
1697842586309495000,7.6024951171875,9.854534149169922,-2.6659436225891113,-0.05267243832349777
1697842586319996000,7.612995849609375,9.798270225524902,-2.9053637981414795,-0.13287819921970367
1697842586329458000,7.6224580078125,10.022128105163574,-2.9065608978271484,0.23702596127986908
1697842586340036000,7.6330361328125,9.959878921508789,-2.6791117191314697,0.27054479718208313
1697842586350059000,7.64305908203125,9.68813705444336,-2.890998601913452,-0.27054479718208313
1697842586360350000,7.653349853515625,10.145429611206055,-2.8371291160583496,0.19033902883529663
1697842586369367000,7.662366943359375,9.975440979003906,-2.5701754093170166,-0.19871874153614044
1697842586380208000,7.6732080078125,9.763554573059082,-2.8586769104003906,0.021547814831137657
1697842586389566000,7.68256591796875,10.093954086303711,-2.9520506858825684,0.35075053572654724
1697842586400122000,7.6931220703125,9.740809440612793,-2.5019407272338867,0.2753331959247589
1697842586410101000,7.70310107421875,9.872490882873535,-2.8359320163726807,0.017956512048840523
1697842586420094000,7.713093994140625,10.053253173828125,-2.565387010574341,0.28371289372444153
1697842586430096000,7.723095947265625,9.642647743225098,-2.6443958282470703,0.002394201699644327
1697842586440058000,7.73305810546875,9.93474006652832,-2.740163803100586,-0.05147533491253853
1697842586450434000,7.74343408203125,9.953893661499023,-2.4444799423217773,0.2932897210121155
1697842586460102000,7.753101806640625,9.634267807006836,-2.4827871322631836,0.013168109580874443
1697842586469408000,7.762407958984375,9.928754806518555,-2.673126220703125,-0.16160862147808075
1697842586480212000,7.7732119140625,9.848548889160156,-2.559401512145996,-0.0071826050989329815
1697842586489441000,7.78244091796875,9.731232643127441,-2.513911724090576,0.47165772318840027
1697842586500429000,7.793428955078125,9.737217903137207,-2.6360161304473877,-0.30286651849746704
1697842586509456000,7.802455810546875,9.828198432922363,-2.343923568725586,0.23343466222286224
1697842586520233000,7.81323291015625,9.649829864501953,-2.5665841102600098,0.28371289372444153
1697842586530528000,7.823528076171875,9.78989028930664,-2.3511061668395996,-0.4225766062736511
1697842586539603000,7.83260302734375,9.824606895446777,-2.389413356781006,0.243011474609375
1697842586549932000,7.84293212890625,9.703699111938477,-2.3080103397369385,0.08259996026754379
1697842586559465000,7.85246484375,9.616311073303223,-2.455253839492798,-0.5913678407669067
1697842586569358000,7.862358154296875,9.758766174316406,-2.341529369354248,0.4381389021873474
1697842586580520000,7.87352001953125,9.537302017211914,-2.321178436279297,0.3998316824436188
1697842586589487000,7.882487060546875,9.503783226013184,-2.3570916652679443,-0.3064578175544739
1697842586600610000,7.893610107421875,9.894038200378418,-2.1942858695983887,0.45010992884635925
1697842586610075000,7.903074951171875,9.641449928283691,-2.539050817489624,-0.07302315533161163
1697842586620376000,7.9133759765625,9.831789016723633,-2.160767078399658,0.17238251864910126
1697842586629646000,7.92264599609375,9.59476375579834,-2.0925323963165283,0.3208230137825012
1697842586640130000,7.933130126953125,9.961075782775879,-2.278082847595215,0.1412578970193863
1697842586650218000,7.943218017578125,9.636661529541016,-2.2409727573394775,0.16160862147808075
1697842586659473000,7.952472900390625,9.9000244140625,-2.2409727573394775,-0.033518824726343155
1697842586670384000,7.963384033203125,9.727641105651855,-2.1284453868865967,0.05147533491253853
1697842586680209000,7.973208984375,9.824606895446777,-2.2170307636260986,0.13168109953403473
1697842586690107000,7.98310693359375,9.757569313049316,-2.2038626670837402,0.1735796183347702
1697842586700248000,7.993248046875,9.84376049041748,-1.965639591217041,0.10773907601833344
1697842586709596000,8.002595947265625,9.768342971801758,-1.9596540927886963,0.4465186297893524
1697842586720310000,8.01331005859375,10.000580787658691,-2.1775264739990234,-0.12689268589019775
1697842586730214000,8.0232138671875,9.90361499786377,-1.9345149993896484,0.4118026793003082
1697842586740113000,8.03311279296875,9.84495735168457,-2.383427858352661,0.38905778527259827
1697842586750294000,8.0432939453125,9.837775230407715,-1.8794482946395874,0.28730419278144836
1697842586760221000,8.053220947265626,10.072406768798828,-2.0003554821014404,0.3315969407558441
1697842586770317000,8.063317138671875,9.81263542175293,-1.702277421951294,0.1149216815829277
1697842586779600000,8.072599853515625,10.232817649841309,-1.9524714946746826,0.28371289372444153
1697842586790425000,8.083425048828126,9.86770248413086,-1.9919757843017578,0.2513911724090576
1697842586800494000,8.093494140625,9.904812812805176,-2.383427858352661,0.4405331015586853
1697842586810339000,8.103339111328125,9.834183692932129,-1.9057846069335938,0.3687070608139038
1697842586819484000,8.11248388671875,10.261548042297363,-1.8806453943252563,0.02753331884741783
1697842586830376000,8.1233759765625,9.712079048156738,-1.6496049165725708,0.32680854201316833
1697842586840437000,8.13343701171875,10.164583206176758,-1.764526605606079,0.7266402244567871
1697842586850224000,8.14322412109375,10.086771965026855,-2.322375535964966,-0.4357447028160095
1697842586859961000,8.152961181640626,10.348937034606934,-1.5670050382614136,-0.3256114423274994
1697842586870274000,8.163274169921875,10.016142845153809,-2.0027496814727783,-0.002394201699644327
1697842586879888000,8.172887939453124,10.285490036010742,-1.5490485429763794,-0.16879121959209442
1697842586890721000,8.183720947265625,9.86770248413086,-2.2469582557678223,-0.33997663855552673
1697842586900843000,8.193843017578125,9.955090522766113,-1.8926163911819458,0.009576806798577309
1697842586909756000,8.202755859375,9.896432876586914,-1.866280198097229,-0.31603461503982544
1697842586919414000,8.2124140625,10.019734382629395,-1.6927006244659424,-0.5566518902778625
1697842586929175000,8.222175048828126,9.947908401489258,-1.7417817115783691,-0.1628057211637497
1697842586939270000,8.232269775390625,10.061633110046387,-2.142810583114624,-0.4668693244457245
1697842586949316000,8.242316162109375,9.829395294189453,-1.8327614068984985,0.1364694982767105
1697842586959513000,8.25251318359375,9.874884605407715,-1.656787633895874,-0.29807811975479126
1697842586969576000,8.262575927734375,9.710882186889648,-1.8148049116134644,-0.3627215623855591
1697842586979139000,8.27213916015625,10.02691650390625,-1.5502456426620483,0.15921440720558167
1697842586989309000,8.282308837890625,9.66299819946289,-2.1763293743133545,-0.45848962664604187
1697842586999282000,8.292281982421875,10.335768699645996,-1.9261353015899658,-0.4836287498474121
1697842587009148000,8.30214794921875,9.907206535339355,-1.5634137392044067,-0.5231330990791321
1697842587019232000,8.31223193359375,9.971850395202637,-1.5897499322891235,-0.33997663855552673
1697842587029175000,8.322175048828125,9.974244117736816,-2.1547815799713135,-0.6500257849693298
1697842587039116000,8.332115966796875,10.103530883789062,-1.8195933103561401,-0.40222588181495667
1697842587049199000,8.34219921875,9.854534149169922,-1.9991583824157715,-0.4106055796146393
1697842587059168000,8.35216796875,10.014945983886719,-1.4520833492279053,-0.3064578175544739
1697842587069108000,8.36210791015625,9.801861763000488,-1.6268600225448608,-0.16400282084941864
1697842587079638000,8.372637939453124,10.137049674987793,-2.1499931812286377,-0.23822307586669922
1697842587089335000,8.3823349609375,10.137049674987793,-1.9716250896453857,-0.15083470940589905
1697842587099142000,8.392141845703126,10.023324966430664,-1.4760253429412842,0.009576806798577309
1697842587109415000,8.402414794921874,9.909601211547852,-2.100912094116211,0.1388636976480484
1697842587119628000,8.4126279296875,9.963470458984375,-1.88782799243927,0.333991140127182
1697842587129220000,8.42222021484375,9.775525093078613,-1.9800047874450684,0.43335050344467163
1697842587139620000,8.4326201171875,9.847352027893066,-1.4951789379119873,-0.21547815203666687
1697842587149572000,8.442572021484375,9.872490882873535,-1.5083470344543457,0.30286651849746704
1697842587159384000,8.452384033203124,9.8784761428833,-2.074575662612915,0.1951274424791336
1697842587169307000,8.462306884765624,9.709685325622559,-2.22660756111145,0.07062894850969315
1697842587179205000,8.472205078125,9.545681953430176,-1.7525556087493896,0.4489128291606903
1697842587189421000,8.482421142578126,9.361329078674316,-1.6065093278884888,-0.5315127968788147
1697842587200354000,8.49335400390625,9.838972091674805,-1.6711528301239014,0.06584054976701736
1697842587209747000,8.502746826171874,9.728838920593262,-1.922544002532959,0.6057330369949341
1697842587220144000,8.51314404296875,9.609128952026367,-1.8315643072128296,-0.06584054976701736
1697842587229683000,8.522682861328125,9.673771858215332,-2.0626046657562256,-0.3076549172401428
1697842587240407000,8.533406982421875,9.801861763000488,-1.5179238319396973,-0.05267243832349777
1697842587249522000,8.54252197265625,9.476250648498535,-1.6699557304382324,-0.05386953800916672
1697842587259201000,8.552200927734376,9.758766174316406,-1.8782511949539185,0.21308395266532898
1697842587269224000,8.562223876953125,9.561244010925293,-1.9512743949890137,0.0454898327589035
1697842587279199000,8.572198974609375,9.618705749511719,-1.7262194156646729,-0.03232172131538391
1697842587289327000,8.5823271484375,9.578003883361816,-1.655590534210205,-0.02992752194404602
1697842587299090000,8.59208984375,9.793481826782227,-1.890222191810608,-0.010773907415568829
1697842587309477000,8.60247705078125,9.838972091674805,-1.5143325328826904,-0.15442600846290588
1697842587319724000,8.61272412109375,9.607931137084961,-1.8267759084701538,-0.40940847992897034
1697842587329791000,8.622791015625,9.668983459472656,-1.8614917993545532,-0.07302315533161163
1697842587339304000,8.632303955078125,9.84495735168457,-1.7106571197509766,0.043095629662275314
1697842587349174000,8.642174072265625,9.532513618469238,-1.6112977266311646,-0.32680854201316833
1697842587359632000,8.6526318359375,9.828198432922363,-1.88782799243927,0.20470423996448517
1697842587369500000,8.6625,9.749189376831055,-1.6927006244659424,-0.013168109580874443
1697842587379172000,8.672172119140624,9.521739959716797,-1.4700398445129395,0.017956512048840523
1697842587389191000,8.68219091796875,9.667786598205566,-1.8136078119277954,-0.06823474913835526
1697842587399598000,8.69259814453125,9.96825885772705,-1.7537527084350586,-0.3076549172401428
1697842587409368000,8.7023681640625,9.618705749511719,-1.581370234489441,0.22744916379451752
1697842587419244000,8.712244140625,9.895236015319824,-1.7693150043487549,0.29807811975479126
1697842587429645000,8.72264501953125,9.87967300415039,-1.5957354307174683,0.12330138683319092
1697842587439249000,8.732248779296874,9.764751434326172,-1.8040310144424438,0.002394201699644327
1697842587449655000,8.742655029296875,9.946710586547852,-1.722628116607666,0.2777273952960968
1697842587459219000,8.752218994140625,10.542867660522461,-1.6065093278884888,-0.20709845423698425
1697842587469195000,8.762195068359375,9.204508781433105,-1.9632453918457031,0.706289529800415
1697842587479201000,8.772200927734374,10.709263801574707,-1.3623007535934448,0.3148375153541565
1697842587489141000,8.78214111328125,9.20091724395752,-1.780089020729065,0.1975216418504715
1697842587499185000,8.792184814453124,10.226832389831543,-1.920149803161621,0.48961424827575684
1697842587509085000,8.8020849609375,9.971850395202637,-1.8183962106704712,0.2885012924671173
1697842587519356000,8.81235595703125,9.956287384033203,-1.50355863571167,0.0933738648891449
1697842587529414000,8.822413818359376,10.26394271850586,-1.7741034030914307,0.4106055796146393
1697842587539074000,8.832073974609376,10.133459091186523,-1.1827356815338135,0.2322375625371933
1697842587549892000,8.84289208984375,10.200496673583984,-2.144007682800293,0.026336219161748886
1697842587559429000,8.85242919921875,10.453084945678711,-1.4305355548858643,-0.1472434103488922
1697842587569420000,8.862419921875,9.967061996459961,-1.6340426206588745,-0.15562310814857483
1697842587579118000,8.8721181640625,9.986215591430664,-1.4113819599151611,0.18914192914962769
1697842587589125000,8.882125,10.134655952453613,-1.6687586307525635,0.37828385829925537
1697842587599519000,8.89251904296875,9.998186111450195,-1.6519991159439087,-0.33039984107017517
1697842587609650000,8.90264990234375,10.254365921020508,-1.6496049165725708,0.46088382601737976
1697842587619693000,8.912693115234376,9.929951667785645,-1.2725181579589844,0.15801730751991272
1697842587629154000,8.922154052734374,10.090363502502441,-1.9153614044189453,-0.507570743560791
1697842587639204000,8.9322041015625,10.377667427062988,-1.5837644338607788,0.44173020124435425
1697842587649153000,8.942153076171875,9.800664901733398,-1.4532804489135742,0.0933738648891449
1697842587659121000,8.952120849609376,9.927556991577148,-1.382651448249817,0.04668693244457245
1697842587669102000,8.96210205078125,10.079588890075684,-1.6915035247802734,0.18076223134994507
1697842587679122000,8.972121826171875,10.049661636352539,-1.50355863571167,-0.0011971008498221636
1697842587689082000,8.98208203125,9.86650562286377,-1.5275006294250488,0.3256114423274994
1697842587699085000,8.9920849609375,10.14902114868164,-1.5418659448623657,0.2777273952960968
1697842587709127000,9.002126953125,9.989806175231934,-1.4688427448272705,0.3232172429561615
1697842587719116000,9.012115966796875,9.848548889160156,-1.6603789329528809,0.19033902883529663
1697842587729934000,9.02293408203125,9.691728591918945,-1.404199242591858,1.0259153842926025
1697842587739531000,9.032531005859376,9.775525093078613,-1.8124107122421265,-0.035913024097681046
1697842587749091000,9.042091064453125,9.951498985290527,-1.2665326595306396,0.5063736438751221
1697842587759364000,9.052364013671875,9.824606895446777,-1.523909330368042,1.3886369466781616
1697842587769102000,9.06210205078125,9.987412452697754,-1.2773065567016602,0.44173020124435425
1697842587779408000,9.072407958984375,10.119093894958496,-1.6735470294952393,0.26815059781074524
1697842587789406000,9.082406005859376,9.815030097961426,-1.557428240776062,0.6272808313369751
1697842587799526000,9.09252587890625,9.815030097961426,-1.2318167686462402,0.7565677165985107
1697842587809442000,9.102442138671876,9.470264434814453,-1.236605167388916,0.4668693244457245
1697842587819244000,9.112244140625,9.78989028930664,-1.581370234489441,0.7254431247711182
1697842587829116000,9.122115966796875,9.558850288391113,-1.6268600225448608,0.5410895943641663
1697842587839241000,9.132240966796875,9.258378028869629,-1.4317326545715332,0.363918662071228
1697842587849508000,9.142508056640626,9.837775230407715,-1.4329297542572021,1.016338586807251
1697842587859219000,9.152218994140625,9.825803756713867,-1.1073182821273804,0.3196259140968323
1697842587869608000,9.16260791015625,9.725247383117676,-1.3108254671096802,0.6392518281936646
1697842587879728000,9.17272802734375,9.696516990661621,-1.216254472732544,0.4381389021873474
1697842587889382000,9.1823818359375,10.053253173828125,-1.3958195447921753,0.13287819921970367
1697842587899480000,9.19247998046875,10.022128105163574,-1.3766659498214722,0.41778820753097534
1697842587909494000,9.202493896484375,9.841365814208984,-1.3455413579940796,0.31842881441116333
