time,seconds_elapsed,z,y,x
1700516042515638800,0.064638671875,-0.03218068182468414,-0.059429511427879333,-0.23807041347026825
1700516042525647600,0.074647705078125,0.04228262975811958,-0.03854500129818916,-0.02146461233496666
1700516042535657700,0.08465771484375,0.021727504208683968,-0.06307626515626907,-0.04705926775932312
1700516042545666800,0.094666748046875,-0.03859416022896767,0.07411222159862518,-0.04445869103074074
1700516042555675600,0.104675537109375,-0.02342546544969082,-0.01549207977950573,0.09191141277551651
1700516042565685800,0.114685791015625,0.03611615672707558,-0.014536804519593716,0.14190639555454254
1700516042575694800,0.12469482421875,-0.0076567744836211205,0.11816544830799103,0.15220285952091217
1700516042585703700,0.13470361328125,0.0013582920655608177,-0.1358433961868286,-0.09172806143760681
1700516042595713500,0.144713623046875,-0.0019163308897987008,-0.010233805514872074,-0.1613055318593979
1700516042605722600,0.15472265625,-0.04142991825938225,-0.023897685110569,-0.09602294117212296
1700516042615732700,0.164732666015625,0.04793917015194893,0.05176164582371712,0.10679847002029419
1700516042625741800,0.174741943359375,0.017878472805023193,-0.08124513924121857,-0.008385643362998962
1700516042635750700,0.184750732421875,-0.041087206453084946,0.053738079965114594,-0.06791676580905914
1700516042645760800,0.1947607421875,-0.011305077001452446,-0.025752486661076546,0.05799908936023712
1700516042655769900,0.204769775390625,0.02801244705915451,-0.012181787751615047,0.09104254096746445
1700516042665778700,0.21477880859375,-0.020717540755867958,0.09984994679689407,0.09977531433105469
1700516042675788500,0.22478857421875,0.00932928454130888,-0.1339915692806244,-0.08960805088281631
1700516042685797600,0.234797607421875,0.0015296846395358443,0.020205730572342873,-0.13180024921894073
1700516042695806700,0.244806640625,-0.04548054561018944,0.0023107570596039295,-0.12897954881191254
1700516042705816800,0.25481689453125,0.06520628184080124,-0.026327811181545258,0.07479887455701828
1700516042715826000,0.264825927734375,0.0013897172175347805,-0.04977056384086609,-0.005141766741871834
1700516042725835800,0.274835693359375,-0.01983967050909996,0.06513232737779617,-0.04289739951491356
1700516042735844600,0.2848447265625,-0.02842150814831257,-0.010961809195578098,0.04540807008743286
1700516042745853700,0.294853759765625,0.04294242337346077,-0.05951416492462158,0.08577093482017517
1700516042755863600,0.304863525390625,-0.014002935960888863,0.12498967349529266,0.12871336936950684
1700516042765872000,0.3148720703125,0.005179547239094973,-0.11356005817651749,-0.06550910323858261
1700516042775881200,0.324881103515625,-0.002841468434780836,0.0049372222274541855,-0.1328665018081665
1700516042785891300,0.334891357421875,-0.05097704008221626,0.0196533165872097,-0.12228735536336899
1700516042795900400,0.344900390625,0.07322146743535995,-0.035907626152038574,0.09311794489622116
1700516042805910300,0.35491015625,-0.00017844344256445765,-0.02925824373960495,-0.014317436143755913
1700516042815919400,0.36491943359375,-0.029507819563150406,0.07010144740343094,-0.0626678392291069
1700516042825928400,0.374928466796875,-0.0253884419798851,-0.04332231730222702,0.03499746322631836
1700516042835938600,0.3849384765625,0.03662554547190666,-0.04103798791766167,0.08831781148910522
1700516042845947400,0.394947509765625,-0.014673596248030663,0.1578250527381897,0.13546055555343628
1700516042855956200,0.404956298828125,0.009796418249607086,-0.14830543100833893,-0.07444898784160614
1700516042865966300,0.41496630859375,-0.014179755002260208,0.028049882501363754,-0.1458137035369873
1700516042875975400,0.424975341796875,-0.038664259016513824,0.009122692979872227,-0.08975560963153839
1700516042885984500,0.434984619140625,0.06872504949569702,-0.012102700769901276,0.1114635169506073
1700516042895994400,0.444994384765625,-0.008216213434934616,-0.046787410974502563,-0.03535078838467598
1700516042906003200,0.455003173828125,-0.030780909582972527,0.06700201332569122,-0.04941307753324509
1700516042916013300,0.465013427734375,-0.013934027403593063,-0.048962585628032684,0.0725303590297699
1700516042926022400,0.4750224609375,0.03651982545852661,-0.03070475347340107,0.13816183805465698
1700516042936031200,0.48503125,-0.01675114966928959,0.15365134179592133,0.1362159699201584
1700516042946041300,0.495041259765625,0.008488958701491356,-0.1747949719429016,-0.09474773705005646
1700516042956050400,0.505050537109375,-0.016906246542930603,0.016083737835288048,-0.12563391029834747
1700516042966059500,0.5150595703125,-0.027632661163806915,0.015619014389812946,-0.04970717802643776
1700516042976069400,0.5250693359375,0.07818374037742615,-0.02239794097840786,0.11262506246566772
1700516042986078200,0.535078125,-0.024718407541513443,-0.058649152517318726,-0.11616044491529465
1700516042996088300,0.54508837890625,-0.016064731404185295,0.059464432299137115,-0.0772726982831955
1700516043006097400,0.555097412109375,0.00023461284581571817,-0.04616399109363556,0.0406281054019928
1700516043016106200,0.565106201171875,0.03204691410064697,-0.018373094499111176,0.1433134824037552
1700516043026116400,0.575116455078125,-0.020401382818818092,0.13456612825393677,0.14087030291557312
1700516043036125400,0.58512548828125,0.017208818346261978,-0.15319742262363434,-0.09404360502958298
1700516043046134300,0.59513427734375,-0.029394902288913727,0.029024848714470863,-0.13408397138118744
1700516043056144100,0.60514404296875,-0.009405178017914295,0.028316454961895943,-0.028466463088989258
1700516043066153200,0.6151533203125,0.08502732217311859,-0.048874735832214355,0.10008485615253448
1700516043076163300,0.625163330078125,-0.043704450130462646,-0.023356197401881218,-0.15897560119628906
1700516043086172400,0.63517236328125,-0.018296826630830765,0.064315065741539,-0.027512121945619583
1700516043096181500,0.645181396484375,0.0020629484206438065,-0.021776555106043816,0.08791912347078323
1700516043106191400,0.65519140625,0.04277096688747406,0.057233307510614395,0.1895916908979416
1700516043116200400,0.665200439453125,-0.017557233572006226,0.0739326998591423,0.03163924813270569
1700516043126209300,0.675209228515625,-0.00870861392468214,-0.1481056958436966,-0.09403852373361588
1700516043136219100,0.68521923828125,-0.0264343973249197,0.15157532691955566,0.13161273300647736
1700516043146228200,0.695228271484375,0.00828949548304081,0.012868841178715229,0.12876634299755096
1700516043156238300,0.70523828125,0.047509100288152695,-0.08134378492832184,-0.09860672801733017
1700516043166247400,0.715247314453125,-0.007753355428576469,0.2573445439338684,-0.07656534016132355
1700516043176256500,0.725256591796875,-0.019786864519119263,-0.22331377863883972,0.15058545768260956
1700516043186266400,0.735266357421875,0.011886908672749996,0.21313224732875824,0.15943805873394012
1700516043196275200,0.745275146484375,-0.0074812276288867,-0.06706985831260681,0.1366049349308014
1700516043206284300,0.7552841796875,0.015525021590292454,-0.12258877605199814,-0.2615360617637634
1700516043216294400,0.76529443359375,-0.006916948594152927,0.07252073287963867,-0.046602923423051834
1700516043226303200,0.77530322265625,-0.019277211278676987,0.09850785881280899,0.1361578404903412
1700516043236313300,0.785313232421875,0.0024053319357335567,-0.02898019179701805,0.11843330413103104
1700516043246322400,0.795322509765625,0.02289622649550438,-0.1376531422138214,-0.2069631814956665
1700516043256331500,0.80533154296875,0.016884582117199898,0.241735577583313,-0.17329470813274384
1700516043266341400,0.81534130859375,-0.019845468923449516,-0.2699340879917145,0.08215837180614471
1700516043276350200,0.82535009765625,0.02490849606692791,0.2736237943172455,0.17597240209579468
1700516043286359300,0.835359375,-0.02498556114733219,-0.07357330620288849,0.13867324590682983
1700516043296369400,0.845369384765625,0.004358975682407618,-0.10325903445482254,-0.20955610275268555
1700516043306378200,0.855378173828125,0.01597461849451065,-0.043111275881528854,-0.3207816779613495
1700516043316388400,0.865388427734375,-0.042938683182001114,0.02936156652867794,0.07450701296329498
1700516043326397400,0.8753974609375,0.025494704023003578,-0.01842086762189865,0.16417591273784637
1700516043336406300,0.88540625,0.00982652883976698,-0.027332870289683342,-0.05464111641049385
1700516043346416000,0.895416015625,-0.01137755997478962,-0.054970890283584595,-0.23648254573345184
1700516043356425200,0.90542529296875,-0.01565634272992611,0.07798382639884949,0.0212806835770607
1700516043366434300,0.915434326171875,0.031112760305404663,-0.026006486266851425,0.06527318060398102
1700516043376444400,0.9254443359375,-0.022811591625213623,0.10952982306480408,0.1790091097354889
1700516043386453500,0.93545361328125,0.0035459790378808975,-0.11923278123140335,-0.03523953631520271
1700516043396463400,0.94546337890625,0.00743168406188488,-0.04232561215758324,-0.16516464948654175
1700516043406472400,0.955472412109375,-0.04710372909903526,0.011737091466784477,-0.14921604096889496
1700516043416481300,0.965481201171875,0.04594261199235916,0.04457544907927513,0.07538816332817078
1700516043426491100,0.9754912109375,0.01760285161435604,-0.08015716075897217,-0.003037403803318739
1700516043436500200,0.985500244140625,-0.031114894896745682,0.009204769507050514,-0.07716626673936844
1700516043446509300,0.99550927734375,-0.018198562785983086,0.0379762277007103,0.07010441273450851
1700516043456519400,1.00551953125,0.03047495149075985,-0.03114299662411213,0.0830925703048706
1700516043466528500,1.015528564453125,-0.006640725769102573,0.10613949596881866,0.09765606373548508
1700516043476538400,1.025538330078125,-0.0013454006984829903,-0.11189425736665726,-0.08716580271720886
1700516043486547200,1.035547119140625,0.0043518999591469765,-0.04188001900911331,-0.11317423731088638
1700516043496556300,1.045556396484375,-0.04509306326508522,0.0465073399245739,-0.06745471060276031
1700516043506566400,1.05556640625,0.054769087582826614,0.037579894065856934,0.11520937830209732
1700516043516575200,1.0655751953125,0.0037423581816256046,-0.09243568778038025,-0.035521458834409714
1700516043526585300,1.07558544921875,-0.026060013100504875,0.026129843667149544,-0.11986536532640457
1700516043536594400,1.085594482421875,-0.019629357382655144,-0.0094758914783597,0.014028308913111687
1700516043546603500,1.095603515625,0.033866625279188156,-0.041848212480545044,0.0783337950706482
1700516043556613400,1.10561328125,-0.01548156887292862,0.14165186882019043,0.14121238887310028
1700516043566622200,1.115622314453125,0.005821323022246361,-0.1350468397140503,-0.04553033411502838
1700516043576631300,1.12563134765625,-0.004136841744184494,-0.006593959406018257,-0.10878004878759384
1700516043586641400,1.135641357421875,-0.03738667443394661,0.05680445209145546,-0.054687246680259705
1700516043596650200,1.145650146484375,0.07198809087276459,-0.007000991143286228,0.12062295526266098
1700516043606660400,1.155660400390625,-0.0194651260972023,-0.09045007079839706,-0.09872857481241226
1700516043616669400,1.16566943359375,-0.021108752116560936,0.06090019643306732,-0.12431792169809341
1700516043626678300,1.17567822265625,-0.01268464233726263,0.008671079762279987,0.10078949481248856
1700516043636688100,1.185688232421875,0.04144175723195076,-0.08753637224435806,0.10804051905870438
1700516043646697200,1.195697265625,-0.032908905297517776,0.1888648420572281,0.10423991829156876
1700516043656707300,1.205707275390625,0.016889244318008423,-0.1868417114019394,-0.09745903313159943
1700516043666716400,1.21571630859375,-0.01412166841328144,0.009080653078854084,-0.14729928970336914
1700516043676725500,1.2257255859375,-0.020150911062955856,0.16725614666938782,0.042417753487825394
1700516043686735400,1.2357353515625,0.07655033469200134,-0.11920864135026932,0.1780133992433548
1700516043696744400,1.245744384765625,-0.039562124758958817,-0.036123115569353104,-0.1401289403438568
1700516043706754600,1.255754638671875,-0.007249725982546806,0.12901683151721954,-0.12057947367429733
1700516043716763100,1.26576318359375,-0.020670210942626,-0.1622011363506317,0.14221343398094177
1700516043726772200,1.275772216796875,0.050656165927648544,0.04628203436732292,0.17170287668704987
1700516043736782300,1.2857822265625,-0.04605252668261528,0.11314619332551956,0.03726974129676819
1700516043746791400,1.29579150390625,0.02182931825518608,-0.19719436764717102,-0.16289158165454865
1700516043756801300,1.30580126953125,-0.013814282603561878,0.17639589309692383,-0.03553837910294533
1700516043766810600,1.315810546875,0.0007332343375310302,-0.045470986515283585,0.10822225362062454
1700516043776819500,1.3258193359375,0.03143550083041191,-0.030953852459788322,0.1025673970580101
1700516043786829600,1.33582958984375,-0.0165402814745903,-0.027068300172686577,-0.23023584485054016
1700516043796838400,1.34583837890625,-0.0061107506044209,0.32955414056777954,0.1702798753976822
1700516043806848500,1.3558486328125,-0.014567885547876358,-0.32129234075546265,0.0855623260140419
1700516043816857600,1.365857666015625,0.027356065809726715,0.23475487530231476,0.18468379974365234
1700516043826866700,1.37586669921875,-0.03994574397802353,-0.10623200237751007,-0.015894301235675812
1700516043836876500,1.38587646484375,0.0359933041036129,-0.12495305389165878,-0.2882430851459503
1700516043846885400,1.395885498046875,-0.04218139126896858,0.08477301150560379,0.017011625692248344
1700516043856895500,1.4058955078125,0.027653872966766357,-0.02761662006378174,0.17807897925376892
1700516043866904600,1.415904541015625,0.026393931359052658,-0.024469563737511635,0.05784417688846588
1700516043876913700,1.42591357421875,-0.02059592306613922,-0.0456974022090435,-0.35778316855430603
1700516043886923500,1.435923583984375,-0.010149141773581505,0.21230430901050568,0.1908266693353653
1700516043896932600,1.4459326171875,-0.00932817067950964,-0.18241538107395172,0.09161731600761414
1700516043906942700,1.455942626953125,0.017160428687930107,0.13187624514102936,0.16470244526863098
1700516043916951600,1.46595166015625,-0.04951920360326767,-0.117547407746315,-0.08801605552434921
1700516043926960400,1.47596044921875,0.04310500621795654,0.0647590234875679,-0.20090052485466003
1700516043936970500,1.485970458984375,-0.030154546722769737,-0.043785955756902695,-0.010504351928830147
1700516043946979600,1.4959794921875,0.019338438287377357,-0.024481499567627907,0.21068422496318817
1700516043956989400,1.505989501953125,0.018852489069104195,-0.055889587849378586,0.02318720892071724
1700516043966998500,1.51599853515625,-0.00762092974036932,-0.02094305492937565,-0.38294485211372375
1700516043977007600,1.526007568359375,-0.016705702990293503,-0.0038270587101578712,0.15763425827026367
1700516043987017700,1.536017822265625,0.012679616920650005,0.060865651816129684,0.1468532383441925
1700516043997026600,1.546026611328125,0.008033578284084797,0.04962487891316414,0.15138648450374603
1700516044007036400,1.556036376953125,-0.03885430470108986,-0.1130516529083252,-0.10730312764644623
1700516044017045500,1.56604541015625,0.0456278994679451,0.1213909462094307,-0.20293284952640533
1700516044027054600,1.5760546875,-0.046227455139160156,-0.029961558058857918,0.016396846622228622
1700516044037064400,1.586064453125,0.029272735118865967,-0.07400649040937424,0.21052812039852142
1700516044047073500,1.596073486328125,0.014588062651455402,-0.03171602636575699,-0.010314781218767166
1700516044057083600,1.606083740234375,-0.005813445430248976,-0.0018776539945974946,-0.3974282145500183
1700516044067092700,1.6160927734375,-0.019254419952630997,-0.07354465126991272,0.17058567702770233
1700516044077101600,1.6261015625,0.0158867035061121,0.11615873128175735,0.15686403214931488
1700516044087111400,1.636111328125,0.006214102264493704,0.03658613935112953,0.14342518150806427
1700516044097120500,1.64612060546875,-0.047137632966041565,-0.12866589426994324,-0.13031961023807526
1700516044107130600,1.656130615234375,0.04741736873984337,0.16082637012004852,-0.18522973358631134
1700516044117139500,1.666139404296875,-0.04281560331583023,0.00684316223487258,0.02691671811044216
1700516044127149600,1.676149658203125,0.028547795489430428,-0.10373900830745697,0.2154535949230194
1700516044137158700,1.68615869140625,0.007391380146145821,-0.033129651099443436,-0.012152622453868389
1700516044147167500,1.69616748046875,0.0015920798759907484,0.019932767376303673,-0.39008796215057373
1700516044157177300,1.70617724609375,-0.017547616735100746,-0.11460299044847488,0.16293606162071228
1700516044167186400,1.7161865234375,0.02046075090765953,0.14321498572826385,0.16163191199302673
1700516044177196500,1.726196533203125,-0.003165297210216522,0.061950743198394775,0.18252266943454742
1700516044187205600,1.73620556640625,-0.04029295593500137,-0.16917915642261505,-0.1084899976849556
1700516044197214700,1.746214599609375,0.04590655490756035,0.15635405480861664,-0.25596949458122253
1700516044207224600,1.756224609375,-0.04922555387020111,-0.06163712218403816,0.02648511528968811
1700516044217233700,1.766233642578125,0.03235949948430061,-0.10371780395507812,0.21335145831108093
1700516044227243800,1.776243896484375,0.017981626093387604,-0.013129315339028835,-0.04250961169600487
1700516044237252400,1.78625244140625,-0.0073667000979185104,0.0567152313888073,-0.3707517385482788
1700516044247261400,1.796261474609375,-0.008830639533698559,-0.19029802083969116,0.15427584946155548
1700516044257271600,1.806271484375,0.01709078811109066,0.20677398145198822,0.1650061458349228
1700516044267280600,1.81628076171875,-0.002052547177299857,0.011989044025540352,0.16568125784397125
1700516044277290500,1.82629052734375,-0.04651455953717232,-0.14903593063354492,-0.1349460780620575
1700516044287299600,1.836299560546875,0.05365331843495369,0.20648010075092316,-0.2035299390554428
1700516044297309700,1.846309814453125,-0.0519818477332592,-0.020713219419121742,0.057218972593545914
1700516044307318500,1.856318603515625,0.02734253741800785,-0.10295535624027252,0.2230774462223053
1700516044317327600,1.86632763671875,0.016400491818785667,-0.025884538888931274,-0.05391724407672882
1700516044327337500,1.87633740234375,0.012617205269634724,0.14899885654449463,-0.32914429903030396
1700516044337346600,1.8863466796875,-0.020517215132713318,-0.282982736825943,0.12824419140815735
1700516044347356700,1.896356689453125,0.018663477152585983,0.21108666062355042,0.16764646768569946
1700516044357365500,1.906365478515625,-0.009890144690871239,0.02480248548090458,0.18898515403270721
1700516044367374600,1.91637451171875,-0.03789195045828819,-0.19731153547763824,-0.16612739861011505
1700516044377384700,1.926384765625,0.04156443476676941,0.2875674068927765,-0.1728939712047577
1700516044387393500,1.9363935546875,-0.04759287089109421,-0.020672466605901718,0.10311524569988251
1700516044397403400,1.9464033203125,0.025377029553055763,-0.11681177467107773,0.20477519929409027
1700516044407412500,1.95641259765625,0.010847089812159538,-0.03500372916460037,-0.13326036930084229
1700516044417422600,1.966422607421875,0.012873312458395958,0.3698367476463318,-0.17529088258743286
1700516044427431700,1.976431640625,-0.02370254136621952,-0.3971472680568695,0.11129508167505264
1700516044437440500,1.9864404296875,0.014725551009178162,0.2523033916950226,0.15851637721061707
1700516044447450600,1.99645068359375,-0.013192632235586643,-0.053853072226047516,0.1548958122730255
1700516044457459500,2.00645947265625,-0.027199184522032738,-0.18067514896392822,-0.2458001971244812
1700516044467469600,2.016469482421875,0.03427056595683098,0.18736998736858368,-0.17593245208263397
1700516044477478400,2.026478515625,-0.041066259145736694,0.05437624081969261,0.14465200901031494
1700516044487488500,2.036488525390625,0.018928105011582375,-0.106150321662426,0.1971714049577713
1700516044497497600,2.04649755859375,0.0037075106520205736,-0.07213716953992844,-0.171763077378273
1700516044507506700,2.056506591796875,0.020073700696229935,0.4347454607486725,-0.13719284534454346
1700516044517516500,2.0665166015625,-0.03154732286930084,-0.4089849591255188,0.11526301503181458
1700516044527525600,2.076525634765625,0.0211798045784235,0.24879053235054016,0.16939973831176758
1700516044537535500,2.086535400390625,-0.019668826833367348,-0.053754523396492004,0.16798509657382965
1700516044547544600,2.096544677734375,-0.014437579549849033,-0.22315473854541779,-0.2759292423725128
1700516044557554400,2.106554443359375,0.022795451804995537,0.22216597199440002,-0.1593446433544159
1700516044567563500,2.1165634765625,-0.038230620324611664,0.037957776337862015,0.18413415551185608
1700516044577572600,2.126572509765625,0.03008088655769825,-0.10800391435623169,0.18453212082386017
1700516044587582500,2.13658251953125,0.004343031905591488,-0.07585689425468445,-0.23790009319782257
1700516044597591600,2.146591552734375,0.00032353028655052185,0.4860025942325592,-0.025500044226646423
1700516044607601700,2.1566015625,-0.020162036642432213,-0.358845591545105,0.13584676384925842
1700516044617610500,2.166610595703125,0.021996241062879562,0.2681511640548706,0.1725338250398636
1700516044627620400,2.176620361328125,-0.027759598568081856,-0.11860665678977966,0.11123291403055191
1700516044637629400,2.18662939453125,0.007951880805194378,-0.09995727241039276,-0.2879922688007355
1700516044647638500,2.196638427734375,0.01211599912494421,0.047027647495269775,-0.16189344227313995
1700516044657648600,2.206648681640625,-0.036599162966012955,0.05386862903833389,0.17940448224544525
1700516044667657700,2.21665771484375,0.015195855870842934,-0.09148377180099487,0.15450605750083923
1700516044677667600,2.22666748046875,0.004423378501087427,-0.11780063062906265,-0.27947452664375305
1700516044687676400,2.236676513671875,-0.005512875504791737,0.466187447309494,0.003526539308950305
1700516044697686500,2.2466865234375,-0.02616613544523716,-0.2905734181404114,0.1752045899629593
1700516044707695400,2.2566953125,0.02612636424601078,0.24923919141292572,0.18049921095371246
1700516044717705500,2.26670556640625,-0.03250720724463463,-0.10860873013734818,0.12228567898273468
1700516044727714600,2.276714599609375,0.0233848188072443,-0.11869784444570541,-0.29474377632141113
1700516044737723600,2.2867236328125,0.01076448429375887,0.034715671092271805,-0.1563008725643158
1700516044747733500,2.2967333984375,-0.03251028433442116,0.05050821602344513,0.18598990142345428
1700516044757742600,2.30674267578125,0.02857215143740177,-0.09577414393424988,0.15380853414535522
1700516044767756800,2.3167568359375,0.0014907335862517357,-0.11018876731395721,-0.27843767404556274
1700516044777765600,2.326765625,-0.005410782992839813,0.4439229965209961,-0.007366362493485212
1700516044787775700,2.336775634765625,-0.021001460030674934,-0.3245864808559418,0.13841001689434052
1700516044797784800,2.346784912109375,0.02693837322294712,0.2276795506477356,0.15569041669368744
1700516044807794700,2.356794677734375,-0.0407373420894146,-0.0975898802280426,0.13014990091323853
1700516044817803800,2.3668037109375,0.01917819306254387,-0.18821902573108673,-0.28404170274734497
1700516044827812900,2.376812744140625,0.014410335570573807,0.24796521663665771,-0.18514388799667358
1700516044837823000,2.386822998046875,-0.03936643525958061,0.005014379043132067,0.12494634836912155
1700516044847831800,2.396831787109375,0.03858322277665138,-0.1174476221203804,0.18617135286331177
1700516044857841700,2.406841552734375,0.0038625493180006742,-0.009783233515918255,-0.11815163493156433
1700516044867850800,2.416850830078125,0.010546817444264889,-0.005341346841305494,-0.35891684889793396
1700516044877860900,2.42686083984375,-0.008844011463224888,-0.10433731228113174,0.09032779932022095
1700516044887870000,2.436869873046875,0.03908915817737579,0.11918339133262634,0.1038108542561531
1700516044897879800,2.4468798828125,-0.014237798750400543,0.04340433329343796,0.15083162486553192
1700516044907889000,2.456888916015625,-0.01933322474360466,-0.1617802381515503,-0.05757405608892441
1700516044917897700,2.466897705078125,0.03419853001832962,0.002467963146045804,-0.27121973037719727
1700516044927907600,2.476907470703125,-0.03983441740274429,0.019389687106013298,-0.29617035388946533
1700516044937916700,2.486916748046875,0.07263922691345215,-0.014312000013887882,0.1416362226009369
1700516044947926800,2.4969267578125,0.0030537573620676994,-0.17978137731552124,0.1479090303182602
1700516044957935900,2.506935791015625,-0.02294587902724743,0.12615279853343964,-0.09889837354421616
1700516044967945700,2.51694580078125,-0.008589044213294983,0.06361459195613861,-0.03706802800297737
1700516044977954800,2.526954833984375,0.011964602395892143,-0.13995113968849182,-0.023508509621024132
1700516044987965000,2.53696484375,0.007993030361831188,0.07724776118993759,0.06736786663532257
1700516044997973800,2.546973876953125,-0.0014096705708652735,0.009045768529176712,0.03723888471722603
1700516045007983600,2.556983642578125,0.027804141864180565,-0.08358243852853775,-0.017368968576192856
1700516045017992700,2.56699267578125,-0.06048312783241272,0.11822627484798431,-0.069661945104599
1700516045028001800,2.577001708984375,0.054803516715765,-0.02357613295316696,0.042716797441244125
1700516045038012000,2.587011962890625,0.04604589194059372,-0.12764090299606323,0.06332246214151382
1700516045048020700,2.597020751953125,-0.04245654493570328,0.05870288610458374,-0.1386048048734665
1700516045058030800,2.60703076171875,-0.006111679598689079,0.07746700197458267,0.003465803572908044
1700516045068040000,2.6170400390625,0.0135333938524127,-0.07987388223409653,0.0811329036951065
1700516045078049800,2.6270498046875,0.0057137031108140945,0.0577915795147419,0.16443775594234467
1700516045088058600,2.63705859375,-0.016321025788784027,0.03433552011847496,0.04986962676048279
1700516045098068700,2.64706884765625,0.020851705223321915,-0.11712181568145752,-0.10683444142341614
1700516045108077800,2.657077880859375,-0.06265649944543839,0.08198782056570053,-0.15101468563079834
1700516045118087700,2.667087646484375,0.040059179067611694,0.0064364210702478886,-0.009975137189030647
1700516045128096800,2.6770966796875,0.04201687127351761,-0.1484042853116989,0.040646228939294815
1700516045138107000,2.68710693359375,-0.046179935336112976,0.0724778026342392,-0.1410079300403595
1700516045148116000,2.697115966796875,-0.011499183252453804,0.08639868348836899,0.009574116207659245
1700516045158125800,2.707125732421875,0.011859573423862457,-0.07311265915632248,0.061872221529483795
1700516045168134700,2.717134765625,0.0077082389034330845,0.06319271773099899,0.1412283033132553
1700516045178143700,2.727143798828125,-0.02139141596853733,0.03024943172931671,0.005561552941799164
1700516045188153900,2.73715380859375,0.022500406950712204,-0.09372683614492416,-0.11436431854963303
1700516045198162700,2.74716259765625,-0.05622384697198868,0.07612080872058868,-0.12422632426023483
1700516045208172800,2.7571728515625,0.03594869002699852,0.027335431426763535,0.03859880566596985
1700516045218182000,2.767181884765625,0.03534284234046936,-0.12317194789648056,0.06890332698822021
1700516045228191700,2.777191650390625,-0.04168509319424629,0.0764082744717598,-0.10132672637701035
1700516045238200800,2.787200927734375,-0.01634596474468708,0.08820272982120514,0.04091127961874008
1700516045248211000,2.7972109375,0.01928180456161499,-0.05833690986037254,0.08916029334068298
1700516045258219800,2.8072197265625,0.006553509272634983,0.06982287019491196,0.15846584737300873
1700516045268229600,2.817229736328125,-0.017767010256648064,0.021829772740602493,0.0039947726763784885
1700516045278238700,2.82723876953125,0.025000935420393944,-0.07258546352386475,-0.09707587212324142
1700516045288248800,2.837248779296875,-0.057374630123376846,0.0817500501871109,-0.11396697163581848
1700516045298258000,2.8472578125,0.04467170313000679,0.020714258775115013,0.04115649312734604
1700516045308267800,2.857267822265625,0.030398491770029068,-0.11946628242731094,0.04376639425754547
1700516045318276900,2.86727685546875,-0.03785328567028046,0.09197491407394409,-0.12188246846199036
1700516045328287000,2.877286865234375,-0.01693175733089447,0.06846612691879272,0.007248095702379942
1700516045338295800,2.8872958984375,0.02228260226547718,-0.07433371245861053,0.059827376157045364
1700516045348305700,2.8973056640625,0.0075678396970033646,0.09015457332134247,0.1618591994047165
1700516045358314800,2.907314697265625,-0.019777243956923485,-0.010113914497196674,0.0065842983312904835
1700516045368324900,2.917324951171875,0.023738542571663857,-0.05068317800760269,-0.10422131419181824
1700516045378333700,2.927333740234375,-0.06524788588285446,0.0703713595867157,-0.14614824950695038
1700516045388342800,2.9373427734375,0.05587640777230263,-0.026909654960036278,0.015680864453315735
1700516045398353000,2.947352783203125,0.026971863582730293,-0.11264236271381378,0.03097914531826973
1700516045408362000,2.957362060546875,-0.038977328687906265,0.08374019712209702,-0.0923241451382637
1700516045418371800,2.967371826171875,-0.019096460193395615,0.051740001887083054,0.026238292455673218
1700516045428380700,2.977380615234375,0.020991303026676178,-0.1001208946108818,0.08991286903619766
1700516045438390800,2.987390869140625,-0.00017375912284478545,0.09449436515569687,0.172612726688385
1700516045448400000,2.99739990234375,-0.014002222567796707,-0.05461922287940979,-0.01897347718477249
1700516045458409700,3.00740966796875,0.01628769561648369,-0.040472742170095444,-0.1053907573223114
1700516045468418800,3.017418701171875,-0.053948383778333664,0.045928992331027985,-0.13386021554470062
1700516045478429000,3.027428955078125,0.06437774002552032,-0.016147322952747345,0.0401935949921608
1700516045488438000,3.03743798828125,0.013451972976326942,-0.11503369361162186,0.0271502323448658
1700516045498448000,3.04744775390625,-0.03450334072113037,0.07568188011646271,-0.07528582960367203
1700516045508456700,3.057456787109375,-0.023111402988433838,0.06002488732337952,0.03680768236517906
1700516045518466800,3.067466796875,0.030861129984259605,-0.11121441423892975,0.08399622142314911
1700516045528475600,3.0774755859375,-0.007207959890365601,0.10344089567661285,0.15726962685585022
1700516045538485800,3.08748583984375,-0.005978450179100037,-0.0539836511015892,-0.0260421484708786
1700516045548494800,3.097494873046875,0.01293052639812231,-0.04065053537487984,-0.10240989178419113
1700516045558504700,3.107504638671875,-0.05381890758872032,0.07551306486129761,-0.14070342481136322
1700516045568513800,3.117513671875,0.07065511494874954,-0.03452927991747856,0.03675443306565285
1700516045578524000,3.12752392578125,0.007708515040576458,-0.11121619492769241,0.02258104272186756
1700516045588532700,3.13753271484375,-0.02648434229195118,0.09904703497886658,-0.05648501217365265
1700516045598542600,3.14754248046875,-0.027768366038799286,0.0537974089384079,0.049393974244594574
1700516045608551700,3.1575517578125,0.03242919594049454,-0.11184029281139374,0.09105700254440308
1700516045618561800,3.167561767578125,-0.005098655819892883,0.12000666558742523,0.14450211822986603
1700516045628571000,3.17757080078125,0.00001301534939557314,-0.07189539819955826,-0.05456358194351196
1700516045638580700,3.187580810546875,0.0065316068939864635,-0.034250762313604355,-0.1279624104499817
1700516045648590800,3.1975908203125,-0.05420098081231117,0.0822388306260109,-0.14124919474124908
1700516045658600000,3.207599853515625,0.0763581395149231,-0.03192949667572975,0.049870409071445465
1700516045668609800,3.21760986328125,-0.00020881160162389278,-0.11637593060731888,0.028871119022369385
1700516045678619000,3.227618896484375,-0.028525587171316147,0.10888901352882385,-0.04310320317745209
1700516045688629000,3.23762890625,-0.02775859646499157,0.035804152488708496,0.050126075744628906
1700516045698637800,3.247637939453125,0.03452256694436073,-0.11642792075872421,0.08912885189056396
1700516045708647700,3.257647705078125,-0.01580505259335041,0.13514147698879242,0.13438954949378967
1700516045718656800,3.26765673828125,0.006132950074970722,-0.09624586999416351,-0.06466098874807358
1700516045728667000,3.2776669921875,0.0011965148150920868,-0.02819172292947769,-0.13710589706897736
1700516045738675700,3.28767578125,-0.052657563239336014,0.07749660313129425,-0.1376800835132599
1700516045748685800,3.297685791015625,0.08657436072826385,-0.039864908903837204,0.0649273544549942
1700516045758695000,3.30769482421875,-0.007555016782134771,-0.11459474265575409,0.019303131848573685
1700516045768704300,3.317704345703125,-0.027501028031110764,0.11917966604232788,-0.033704958856105804
1700516045778713300,3.32771337890625,-0.026728294789791107,0.013921593315899372,0.05713440477848053
1700516045788723200,3.33772314453125,0.03639687970280647,-0.12931731343269348,0.10317646712064743
1700516045798732300,3.347732177734375,-0.021602408960461617,0.15490984916687012,0.13772352039813995
1700516045808742400,3.357742431640625,0.011030634865164757,-0.12307169288396835,-0.08698708564043045
1700516045818751000,3.3677509765625,-0.0077149230055511,-0.010735283605754375,-0.14544400572776794
1700516045828761000,3.377760986328125,-0.0464191734790802,0.06726550310850143,-0.12334907799959183
1700516045838770200,3.387770263671875,0.0873638242483139,-0.05355449765920639,0.08340433984994888
1700516045848780000,3.397780029296875,-0.018659813329577446,-0.10059763491153717,-0.00795486569404602
1700516045858789000,3.4077890625,-0.022793371230363846,0.13896751403808594,-0.0280593391507864
1700516045868799200,3.41779931640625,-0.027199571952223778,-0.018623976036906242,0.05599774792790413
1700516045878809000,3.42780908203125,0.040961071848869324,-0.10941029340028763,0.11873064190149307
1700516045888818200,3.437818115234375,-0.022279417142271996,0.1660337895154953,0.13484756648540497
1700516045898828300,3.447828369140625,0.013592717237770557,-0.1378839612007141,-0.11010094732046127
1700516045908837000,3.457837158203125,-0.01734868809580803,0.016660606488585472,-0.1474645733833313
1700516045918847000,3.467846923828125,-0.02848370000720024,0.05139622092247009,-0.1067938432097435
1700516045928856000,3.47785595703125,0.08886503428220749,-0.06919730454683304,0.10156575590372086
1700516045938866200,3.4878662109375,-0.034590791910886765,-0.056495897471904755,-0.039225444197654724
1700516045948875300,3.497875244140625,-0.019063496962189674,0.15220671892166138,-0.008891775272786617
1700516045958885000,3.507885009765625,-0.021116580814123154,-0.05119893327355385,0.06402131915092468
1700516045968894200,3.517894287109375,0.04425150528550148,-0.07552770525217056,0.1429651379585266
1700516045978904300,3.527904296875,-0.028363509103655815,0.15442954003810883,0.1041058748960495
1700516045988913200,3.5379130859375,0.018340347334742546,-0.13352900743484497,-0.12972526252269745
1700516045998923000,3.547923095703125,-0.03200859576463699,0.030548227950930595,-0.14373642206192017
1700516046008933000,3.55793310546875,-0.005131442565470934,0.030015328899025917,-0.07271656394004822
1700516046018942200,3.567942138671875,0.0786360576748848,-0.08945348858833313,0.1139526516199112
1700516046028952000,3.5779521484375,-0.05071927234530449,-0.006780450232326984,-0.06476783007383347
1700516046038961200,3.587961181640625,-0.01293114386498928,0.1471528857946396,0.007603573612868786
1700516046048971300,3.59797119140625,-0.0118485689163208,-0.06792081147432327,0.06536886841058731
1700516046058980400,3.60798046875,0.044124871492385864,-0.031917937099933624,0.15846526622772217
1700516046068990200,3.617990234375,-0.03323463350534439,0.12282636761665344,0.05370182543992996
1700516046078999300,3.627999267578125,0.025702515617012978,-0.11179196834564209,-0.12989036738872528
1700516046089009400,3.638009521484375,-0.044897884130477905,0.04343570023775101,-0.13477860391139984
1700516046099018000,3.64801806640625,0.013141617178916931,0.010639004409313202,-0.04356958344578743
1700516046109028000,3.658028076171875,0.061660684645175934,-0.09550420939922333,0.1086559072136879
1700516046119038200,3.6680380859375,-0.04171530902385712,0.024300910532474518,-0.07367344200611115
1700516046129047000,3.678047119140625,-0.010004250332713127,0.13875611126422882,0.027315493673086166
1700516046139057200,3.68805712890625,-0.003390716854482889,-0.070102259516716,0.0653395801782608
1700516046149066200,3.698066162109375,0.038172438740730286,-0.011279960162937641,0.14692312479019165
1700516046159076000,3.708076171875,-0.03351186588406563,0.09521665424108505,0.02580362558364868
1700516046169085200,3.718085205078125,0.032213617116212845,-0.10373638570308685,-0.12383833527565002
1700516046179095300,3.72809521484375,-0.058268096297979355,0.06301736831665039,-0.13337697088718414
1700516046189104000,3.738104248046875,0.032704684883356094,-0.0018367271404713392,-0.02431545965373516
1700516046199114000,3.748114013671875,0.05492056533694267,-0.10685743391513824,0.10510936379432678
1700516046209124000,3.7581240234375,-0.042303990572690964,0.05270665884017944,-0.07240710407495499
1700516046219133200,3.76813330078125,-0.01695430465042591,0.13478216528892517,0.03272866830229759
1700516046229143000,3.77814306640625,0.0032838566694408655,-0.07881427556276321,0.06795083731412888
1700516046239152000,3.788152099609375,0.029745522886514664,0.016231657937169075,0.14596733450889587
1700516046249162200,3.798162353515625,-0.030529001727700233,0.07443823665380478,0.0014543470460921526
1700516046259171300,3.80817138671875,0.03278740867972374,-0.0945967435836792,-0.11550742387771606
1700516046269181200,3.81818115234375,-0.05760454013943672,0.06793224811553955,-0.13060729205608368
1700516046279191300,3.82819140625,0.04176171496510506,-0.008278701454401016,-0.010096830315887928
1700516046289200000,3.8382001953125,0.04231911525130272,-0.10254288464784622,0.09269958734512329
1700516046299210000,3.8482099609375,-0.0365629568696022,0.05506300553679466,-0.07233540713787079
1700516046309219000,3.858218994140625,-0.01716688834130764,0.12614278495311737,0.0372917577624321
1700516046319229200,3.868229248046875,0.00648516183719039,-0.08019419759511948,0.06269428879022598
1700516046329238300,3.87823828125,0.023736586794257164,0.01485535316169262,0.13206884264945984
1700516046339248000,3.888248046875,-0.024594679474830627,0.05887949466705322,0.007145557552576065
1700516046349258200,3.89825830078125,0.03527238219976425,-0.0974387377500534,-0.11096163839101791
1700516046359267300,3.908267333984375,-0.06583032757043839,0.0852527767419815,-0.13251464068889618
1700516046369277200,3.918277099609375,0.04598861560225487,-0.01949840411543846,-0.005855492316186428
1700516046379286300,3.928286376953125,0.04293395206332207,-0.10888034850358963,0.09272704273462296
1700516046389296000,3.938296142578125,-0.03948315978050232,0.062338266521692276,-0.07116309553384781
1700516046399305200,3.94830517578125,-0.016214776784181595,0.1269725263118744,0.04221539571881294
1700516046409315000,3.958315185546875,0.010796601884067059,-0.08227948844432831,0.07082600146532059
1700516046419325200,3.9683251953125,0.020313642919063568,0.023782316595315933,0.13607825338840485
1700516046429334300,3.978334228515625,-0.02335447631776333,0.05432824045419693,0.00321314949542284
1700516046439344000,3.98834423828125,0.034200672060251236,-0.09665552526712418,-0.11574041098356247
1700516046449353200,3.998353271484375,-0.06889961659908295,0.08876679837703705,-0.14157813787460327
1700516046459363300,4.00836328125,0.047894325107336044,-0.006598630920052528,-0.008775067515671253
1700516046469372200,4.0183720703125,0.044049251824617386,-0.12198780477046967,0.09329351037740707
1700516046479382300,4.02838232421875,-0.041623253375291824,0.07161471247673035,-0.06933935731649399
1700516046489392400,4.038392333984375,-0.015255028381943703,0.12902899086475372,0.04582851380109787
1700516046499401200,4.048401123046875,0.011516925878822803,-0.09364169090986252,0.07640029489994049
1700516046509411000,4.0584111328125,0.01596706733107567,0.041099611669778824,0.1438877135515213
1700516046519420200,4.068420166015625,-0.022454356774687767,0.039658840745687485,-0.010526614263653755
1700516046529430300,4.07843017578125,0.02663409151136875,-0.08762934058904648,-0.12478234618902206
1700516046539440000,4.088440185546875,-0.06984992325305939,0.08267801254987717,-0.14317837357521057
1700516046549449200,4.09844921875,0.05140300840139389,-0.007879851385951042,0.00025123078376054764
1700516046559459300,4.108459228515625,0.03507397323846817,-0.12449909746646881,0.08501703292131424
1700516046569468200,4.11846826171875,-0.03762366622686386,0.07730512320995331,-0.0634739026427269
1700516046579478300,4.128478271484375,-0.02122613415122032,0.11684686690568924,0.04638119414448738
1700516046589487000,4.138487060546875,0.012498006224632263,-0.09405045956373215,0.07263650000095367
1700516046599497000,4.1484970703125,0.014937222935259342,0.04922026768326759,0.14193888008594513
1700516046609507000,4.158507080078125,-0.021431704983115196,0.022586790844798088,-0.015975113958120346
1700516046619516200,4.16851611328125,0.028056221082806587,-0.08030949532985687,-0.11905089765787125
1700516046629526000,4.178526123046875,-0.06526920199394226,0.08349781483411789,-0.14161266386508942
1700516046639535000,4.18853515625,0.055792298167943954,-0.010212736204266548,0.012057606130838394
1700516046649545200,4.198545166015625,0.0315287709236145,-0.12489165365695953,0.08046969026327133
1700516046659555000,4.20855517578125,-0.03856613114476204,0.0827263742685318,-0.06122112274169922
1700516046669564200,4.218564208984375,-0.023496901616454124,0.11179771274328232,0.046394288539886475
1700516046679574300,4.22857421875,0.016589531674981117,-0.10322725027799606,0.07242828607559204
1700516046689583000,4.2385830078125,0.004089186899363995,0.07089342176914215,0.1417389214038849
1700516046699593000,4.248593017578125,-0.011578320525586605,-0.0016168974107131362,-0.019130641594529152
1700516046709603000,4.25860302734375,0.02236553281545639,-0.07452412694692612,-0.12818920612335205
1700516046719612200,4.268612060546875,-0.06432701647281647,0.08951647579669952,-0.14613066613674164
1700516046729622000,4.2786220703125,0.062313467264175415,-0.0172018650919199,0.02210593968629837
1700516046739631000,4.288631103515625,0.027733320370316505,-0.1311206966638565,0.07089032977819443
1700516046749641200,4.29864111328125,-0.041754141449928284,0.10128910094499588,-0.061916183680295944
1700516046759651000,4.308651123046875,-0.023778142407536507,0.0850319117307663,0.04742739722132683
1700516046769660400,4.318660400390625,0.01819593831896782,-0.10835885256528854,0.08116618543863297
1700516046779670500,4.32867041015625,0.004969015717506409,0.08848398923873901,0.14869828522205353
1700516046789679600,4.3386796875,-0.009818986058235168,-0.0330970361828804,-0.04389592632651329
1700516046799689500,4.348689453125,0.017446322366595268,-0.05081461742520332,-0.13603626191616058
1700516046809699600,4.358699462890625,-0.05847667157649994,0.07427458465099335,-0.14771342277526855
1700516046819708400,4.36870849609375,0.06518416106700897,-0.009375784546136856,0.031928837299346924
1700516046829718300,4.37871826171875,0.018146077170968056,-0.1318465769290924,0.05626826733350754
1700516046839728400,4.388728271484375,-0.03583502396941185,0.10983821004629135,-0.0560942180454731
1700516046849737500,4.398737548828125,-0.027251921594142914,0.05194934457540512,0.042672038078308105
1700516046859747300,4.408747314453125,0.026770904660224915,-0.10745369642972946,0.07289700210094452
1700516046869756400,4.41875634765625,-0.0036676949821412563,0.11132605373859406,0.13687385618686676
1700516046879766500,4.4287666015625,0.00015867501497268677,-0.07230129092931747,-0.06236671656370163
1700516046889776400,4.4387763671875,0.002337407087907195,-0.03142602741718292,-0.15183959901332855
1700516046899785500,4.448785400390625,-0.05416346713900566,0.07850475609302521,-0.14157141745090485
1700516046909795600,4.458795654296875,0.08139409869909286,-0.034261204302310944,0.05697816237807274
1700516046919804400,4.468804443359375,0.0022509321570396423,-0.11789549142122269,0.03259236738085747
1700516046929814300,4.478814208984375,-0.0336812362074852,0.12269394844770432,-0.04714400693774223
1700516046939824400,4.488824462890625,-0.02651272714138031,-0.004405539017170668,0.04540030285716057
1700516046949833500,4.49883349609375,0.02812947891652584,-0.09654664993286133,0.09958045184612274
1700516046959843300,4.50884326171875,-0.005835365504026413,0.11950630694627762,0.14107941091060638
1700516046969853400,4.518853515625,-0.0006227603880688548,-0.09730270504951477,-0.08425944298505783
1700516046979862500,4.528862548828125,0.000249534728936851,-0.003959449008107185,-0.12490379065275192
1700516046989872400,4.538872314453125,-0.042513906955718994,0.05099887400865555,-0.11174245178699493
1700516046999881500,4.548881591796875,0.07971958816051483,-0.029099276289343834,0.08989758789539337
1700516047009891600,4.5588916015625,-0.017495909705758095,-0.09246253222227097,0.00941739697009325
1700516047019901400,4.5689013671875,-0.02042614296078682,0.1270245611667633,-0.022709671407938004
1700516047029910300,4.57891015625,-0.024837668985128403,-0.026531171053647995,0.06286275386810303
1700516047039920400,4.58892041015625,0.03708645701408386,-0.08571302890777588,0.10815288126468658
1700516047049930200,4.59893017578125,-0.015384473837912083,0.1351647675037384,0.13418607413768768
1700516047059939300,4.608939208984375,0.008242135867476463,-0.11115820705890656,-0.07055746763944626
1700516047069949400,4.618949462890625,-0.01615455001592636,0.010937602259218693,-0.10107356309890747
1700516047079958500,4.62895849609375,-0.028493788093328476,0.05240738019347191,-0.0932512879371643
1700516047089968400,4.638968505859375,0.08700564503669739,-0.05880596116185188,0.11044645309448242
1700516047099978500,4.648978515625,-0.03196130320429802,-0.03186183422803879,-0.027143366634845734
1700516047109987600,4.658987548828125,-0.017058517783880234,0.0944465696811676,-0.04026103392243385
1700516047119997400,4.66899755859375,-0.02576621249318123,-0.046776965260505676,0.029721103608608246
1700516047130007600,4.679007568359375,0.03982984274625778,-0.0652337297797203,0.09190911054611206
1700516047140016400,4.689016357421875,-0.02468310482800007,0.13820913434028625,0.10923323780298233
1700516047150026200,4.699026123046875,0.013566279783844948,-0.13812418282032013,-0.08175589144229889
1700516047160035300,4.709035400390625,-0.025511138141155243,0.033689841628074646,-0.11347075551748276
1700516047170045400,4.71904541015625,-0.018716350197792053,0.019680552184581757,-0.09752960503101349
1700516047180055300,4.72905517578125,0.07781854271888733,-0.07183452695608139,0.09796595573425293
1700516047190064400,4.739064453125,-0.039505161345005035,-0.03791011497378349,-0.030525706708431244
1700516047200074500,4.749074462890625,-0.014865361154079437,0.11277700960636139,-0.0023393617011606693
1700516047210084400,4.75908447265625,-0.024910803884267807,-0.06219267472624779,0.04929719865322113
1700516047220093400,4.769093505859375,0.043432820588350296,-0.06842799484729767,0.11760151386260986
1700516047230103600,4.779103515625,-0.03296821191906929,0.13856886327266693,0.10681251436471939
1700516047240113400,4.789113525390625,0.02278514951467514,-0.13199734687805176,-0.07783754169940948
1700516047250122200,4.799122314453125,-0.03235507011413574,0.03750912472605705,-0.10839944332838058
1700516047260132400,4.80913232421875,-0.00020622945157811046,0.0780932828783989,-0.03886454924941063
1700516047270141400,4.819141357421875,0.07897434383630753,-0.12022459506988525,0.12649831175804138
1700516047280151300,4.8291513671875,-0.05045102536678314,-0.009956677444279194,-0.09455683827400208
1700516047290161400,4.839161376953125,-0.0051248217932879925,0.1323714405298233,-0.040048059076070786
1700516047300170500,4.84917041015625,-0.021893002092838287,-0.08653203397989273,0.018905574455857277
1700516047310180400,4.859180419921875,0.04272354021668434,-0.062122832983732224,0.10090483725070953
1700516047320190500,4.8691904296875,-0.03310517966747284,0.17135687172412872,0.09015130996704102
1700516047330199600,4.879199462890625,0.024669436737895012,-0.12795953452587128,-0.06598636507987976
1700516047340209400,4.88920947265625,-0.038055650889873505,0.048957325518131256,-0.11089339107275009
1700516047350219500,4.899219482421875,-0.00824848935008049,0.034275852143764496,-0.09451202303171158
1700516047360228600,4.909228515625,0.0674913227558136,-0.08311664313077927,0.072291798889637
1700516047370238200,4.91923828125,-0.04357633739709854,0.0048326547257602215,-0.10368642210960388
1700516047380248300,4.929248291015625,-0.01110956259071827,0.11201988905668259,-0.02049342356622219
1700516047390257400,4.93925732421875,-0.027453383430838585,-0.056612528860569,0.039484694600105286
1700516047400267300,4.949267333984375,0.045570001006126404,-0.03917573019862175,0.1291077584028244
1700516047410276400,4.9592763671875,-0.040291376411914825,0.15261341631412506,0.0955418050289154
1700516047420286500,4.969286376953125,0.032993827015161514,-0.12437843531370163,-0.07645995169878006
1700516047430296300,4.97929638671875,-0.04140796884894371,0.05216437950730324,-0.12098054587841034
1700516047440306400,4.989306396484375,-0.005908029153943062,0.012027130462229252,-0.08025291562080383
1700516047450315500,4.9993154296875,0.06939764320850372,-0.06964616477489471,0.10493398457765579
1700516047460325400,5.009325439453125,-0.03970194607973099,0.014908991754055023,-0.04434909671545029
1700516047470334500,5.01933447265625,-0.017135120928287506,0.11994406580924988,0.032511863857507706
1700516047480344600,5.029344482421875,-0.007024163380265236,-0.040377434343099594,0.0787573903799057
1700516047490354400,5.0393544921875,0.05223330110311508,-0.04265257343649864,0.12440796196460724
1700516047500363300,5.04936328125,-0.037508416920900345,0.15311667323112488,0.06907438486814499
1700516047510373400,5.059373291015625,0.03514128550887108,-0.12222728133201599,-0.10639490932226181
1700516047520383200,5.06938330078125,-0.039053697139024734,0.048687420785427094,-0.1394805908203125
1700516047530392300,5.079392333984375,-0.016128672286868095,0.0867176279425621,-0.03662371635437012
1700516047540402400,5.08940234375,0.07652277499437332,-0.12288466840982437,0.17290621995925903
1700516047550412500,5.09941259765625,-0.04943648725748062,0.017099596560001373,-0.10689613968133926
1700516047560421400,5.10942138671875,-0.006901809014379978,0.4198872148990631,0.2473749816417694
1700516047570431500,5.119431396484375,-0.0032338369637727737,-0.26935750246047974,0.1723760962486267
1700516047580441600,5.129441650390625,0.03360258787870407,0.17448174953460693,0.11246100068092346
1700516047590450400,5.139450439453125,-0.07148361951112747,-0.09813325852155685,-0.12531054019927979
1700516047600460500,5.14946044921875,0.05733390152454376,0.07285164296627045,-0.130666121840477
1700516047610470700,5.159470703125,-0.021335076540708542,0.052675534039735794,-0.009017188102006912
1700516047620479200,5.169479248046875,0.00433992687612772,0.004226617980748415,0.16791078448295593
1700516047630489300,5.1794892578125,-0.022022703662514687,-0.19342201948165894,0.03983590006828308
1700516047640499500,5.18949951171875,0.004167352337390184,0.0035257297568023205,-0.38446009159088135
1700516047650508300,5.19950830078125,-0.024359362199902534,0.19703102111816406,0.07628034055233002
1700516047660518400,5.209518310546875,0.012199980206787586,-0.23189324140548706,0.081281878054142
1700516047670528500,5.219528564453125,0.005069100297987461,0.14965039491653442,0.12581126391887665
1700516047680537300,5.229537353515625,-0.05412935093045235,-0.07159388810396194,0.04882390797138214
1700516047690547500,5.23954736328125,0.04129543900489807,-0.15522219240665436,-0.23038457334041595
1700516047700557600,5.2495576171875,-0.02685164287686348,0.012588849291205406,-0.35553011298179626
1700516047710566400,5.25956640625,-0.035246461629867554,0.09594579041004181,-0.14600883424282074
1700516047720576500,5.269576416015625,0.06221034377813339,-0.14468298852443695,0.17769262194633484
1700516047730586600,5.279586669921875,-0.029003454372286797,-0.0438687689602375,0.11391711980104446
1700516047740595500,5.289595458984375,-0.03631013631820679,0.17387749254703522,0.06258265674114227
1700516047750605300,5.299605224609375,-0.02362949214875698,-0.1482936292886734,0.029565053060650826
1700516047760615400,5.309615478515625,0.020700683817267418,-0.039411451667547226,0.013614252209663391
1700516047770624500,5.31962451171875,-0.0314011350274086,0.12156305462121964,0.04025358706712723
1700516047780634400,5.32963427734375,0.023170996457338333,-0.19578403234481812,-0.15037597715854645
1700516047790644500,5.33964453125,-0.03401186689734459,0.018210018053650856,-0.19408831000328064
1700516047800653600,5.349653564453125,-0.04797967150807381,0.02981322444975376,-0.11626820266246796
1700516047810663400,5.359663330078125,0.07508207112550735,-0.07862589508295059,0.11729662120342255
1700516047820673500,5.369673583984375,0.00629120459780097,-0.041180502623319626,0.021741008386015892
1700516047830682600,5.3796826171875,-0.05538121610879898,0.12264730781316757,-0.017774710431694984
1700516047840692500,5.3896923828125,-0.0023283546324819326,-0.11934357136487961,0.010952972806990147
1700516047850702600,5.39970263671875,0.03448904678225517,-0.014424883760511875,0.08706292510032654
1700516047860711700,5.409711669921875,-0.017844347283244133,0.12751732766628265,0.13100109994411469
1700516047870721500,5.419721435546875,0.022165918722748756,-0.14580848813056946,-0.11782975494861603
1700516047880731600,5.429731689453125,-0.018292900174856186,0.005336427129805088,-0.21463803946971893
1700516047890741200,5.4397412109375,-0.02818015217781067,0.02999570220708847,-0.14657430350780487
1700516047900750300,5.449750244140625,0.0868438184261322,-0.06913789361715317,0.08314638584852219
1700516047910760400,5.459760498046875,0.00527359452098608,-0.0385269857943058,0.002083759056404233
1700516047920770300,5.469770263671875,-0.0499940849840641,0.12266359478235245,0.008024443872272968
1700516047930779400,5.479779296875,-0.0025221738032996655,-0.0846531093120575,0.0541679710149765
1700516047940789500,5.48978955078125,0.044602639973163605,-0.011513954028487206,0.13163688778877258
1700516047950799400,5.49979931640625,-0.017372312024235725,0.10270955413579941,0.1071493849158287
1700516047960808400,5.509808349609375,0.014862705953419209,-0.14988861978054047,-0.2034287005662918
1700516047970818600,5.519818603515625,-0.020928315818309784,-0.0551445297896862,-0.26242226362228394
1700516047980828400,5.529828369140625,-0.03932752087712288,-0.03116477094590664,-0.0496540293097496
1700516047990837500,5.53983740234375,0.06740611791610718,0.11757250875234604,0.13385027647018433
1700516048000847600,5.54984765625,-0.014715077355504036,-0.15560218691825867,-0.07972002774477005
1700516048010857500,5.559857421875,-0.050870951265096664,-0.035317312926054,0.10505355149507523
1700516048020866300,5.5698662109375,-0.010488183237612247,0.1872362643480301,0.15855912864208221
1700516048030876400,5.57987646484375,-0.011733210645616055,-0.09036631882190704,0.13019166886806488
1700516048040886500,5.589886474609375,0.039854809641838074,0.19734522700309753,-0.015803340822458267
1700516048050895400,5.599895263671875,-0.01667824201285839,-0.3375434875488281,-0.20870675146579742
1700516048060905500,5.609905517578125,0.017250023782253265,-0.022661130875349045,0.03578077256679535
1700516048070915600,5.61991552734375,-0.10530571639537811,0.28407323360443115,0.2566404342651367
1700516048080925400,5.629925537109375,0.10791291296482086,0.10139299929141998,0.06180886924266815
1700516048090934500,5.6399345703125,0.0055686975829303265,-0.4434407353401184,-0.19178372621536255
1700516048100944600,5.649944580078125,0.006254855077713728,0.22630521655082703,0.12675945460796356
1700516048110954500,5.65995458984375,-0.0727614015340805,-0.021685684099793434,0.1313456892967224
1700516048120963600,5.669963623046875,-0.015227923169732094,0.3201887905597687,0.3447505533695221
1700516048130973700,5.6799736328125,0.0015262897359207273,0.09015238285064697,-0.08457418531179428
1700516048140983600,5.689983642578125,0.0512857548892498,-0.040515705943107605,-0.14969579875469208
1700516048150992400,5.699992431640625,-0.03321235254406929,0.02647903747856617,0.10464699566364288
1700516048161002500,5.71000244140625,-0.09443283826112747,0.20143263041973114,0.24207882583141327
1700516048171012400,5.720012451171875,0.07471916824579239,-0.18116959929466248,-0.10271478444337845
1700516048181021400,5.730021484375,-0.03139250725507736,0.01878371648490429,-0.13362528383731842
1700516048191031600,5.740031494140625,-0.039115939289331436,-0.000829131924547255,-0.07039890438318253
1700516048201041400,5.75004150390625,0.0019818025175482035,0.21179646253585815,0.2695807218551636
1700516048211050500,5.760050537109375,0.02111421711742878,0.026431933045387268,0.36089304089546204
1700516048221060600,5.770060546875,0.01303770300000906,0.0641140267252922,-0.11543849855661392
1700516048231070500,5.780070556640625,-0.029916688799858093,-0.08744966238737106,-0.22394074499607086
1700516048241080600,5.79008056640625,-0.015758078545331955,0.1551387757062912,-0.06492265313863754
1700516048251089700,5.800089599609375,0.03529072180390358,-0.15495598316192627,0.11889591068029404
1700516048261099500,5.810099609375,0.06836953014135361,-0.07279258221387863,-0.2561744749546051
1700516048271109600,5.820109619140625,-0.005508952774107456,0.13138824701309204,-0.15573255717754364
1700516048281118500,5.830118408203125,0.0024455864913761616,-0.0649106577038765,0.0038239702116698027
1700516048291128300,5.84012841796875,0.03646799921989441,0.23108504712581635,0.19542162120342255
1700516048301138400,5.850138427734375,-0.03059588000178337,-0.18650537729263306,0.23031271994113922
1700516048311147500,5.8601474609375,0.02758779749274254,0.068147674202919,-0.15938682854175568
1700516048321157400,5.870157470703125,-0.02328948676586151,0.08465752005577087,-0.1131441742181778
1700516048331167500,5.88016748046875,0.012311916798353195,0.1376112848520279,0.2473522126674652
1700516048341176600,5.890176513671875,0.023247037082910538,-0.0324523039162159,0.2886466085910797
1700516048351186400,5.9001865234375,0.006529309321194887,0.03924345225095749,-0.06244936212897301
1700516048361196500,5.910196533203125,-0.010603838600218296,0.09390298277139664,-0.08097168803215027
1700516048371205600,5.92020556640625,0.023913390934467316,-0.06358224898576736,0.03311972692608833
1700516048381215500,5.930215576171875,-0.0003243547398597002,0.2768523693084717,0.25482431054115295
1700516048391225600,5.9402255859375,-0.03381413593888283,-0.09196453541517258,0.1972462236881256
1700516048401235500,5.9502353515625,0.01892760582268238,0.41347095370292664,-0.3760417401790619
1700516048411244300,5.960244384765625,-0.016500424593687057,0.12679575383663177,-0.2692897319793701
1700516048421254400,5.97025439453125,-0.0120058823376894,0.3648047149181366,0.09810586273670197
1700516048431264500,5.980264404296875,-0.11844471096992493,0.5340986847877502,-0.3265860378742218
1700516048441273300,5.9902734375,0.23590940237045288,-1.4581362009048462,0.6650658845901489
1700516048451283500,6.000283447265625,0.06963814795017242,0.37008100748062134,0.24284648895263672
1700516048461293600,6.01029345703125,0.6174504160881042,-1.9186383485794067,-1.2071911096572876
1700516048471302400,6.020302490234375,-0.40859654545783997,2.1073787212371826,-0.18506398797035217
1700516048481312500,6.0303125,-0.12331197410821915,-1.2517280578613281,1.0803943872451782
1700516048491322600,6.040322509765625,0.09875784069299698,-0.21056416630744934,0.02304014563560486
1700516048501331500,6.05033154296875,0.0015739756636321545,0.9607710242271423,-0.3122621178627014
1700516048511341600,6.060341552734375,0.11163336783647537,-1.0401498079299927,-0.10239225625991821
1700516048521351700,6.0703515625,0.052078235894441605,0.07465974986553192,-0.4441167712211609
1700516048531361500,6.080361572265625,-0.16884934902191162,0.3118339478969574,-0.09052781015634537
1700516048541370400,6.090370361328125,-0.051294177770614624,-0.007529806811362505,0.405685693025589
1700516048551380500,6.10038037109375,0.04644862562417984,-0.27771812677383423,0.29905831813812256
1700516048561390300,6.110390380859375,0.21850301325321198,-0.35225775837898254,-0.36715617775917053
1700516048571399400,6.1203994140625,-0.1176249235868454,0.6953909397125244,-0.28445518016815186
1700516048581409500,6.130409423828125,-0.0056333355605602264,-0.3541252911090851,0.21803084015846252
1700516048591419400,6.14041943359375,0.022542908787727356,-0.14103059470653534,0.03868690878152847
1700516048601428500,6.150428466796875,-0.08277229219675064,0.2841063141822815,0.003793334122747183
1700516048611438600,6.1604384765625,-0.04386378079652786,0.03241416811943054,0.13756951689720154
1700516048621448400,6.170448486328125,-0.03412853926420212,0.0195662472397089,0.40010055899620056
1700516048631458600,6.18045849609375,0.12208476662635803,-0.5004993081092834,-0.23663939535617828
1700516048641467600,6.190467529296875,-0.061705779284238815,0.7904152274131775,0.041532400995492935
1700516048651477500,6.2004775390625,-0.07530228048563004,-0.19220276176929474,0.36361801624298096
1700516048661487600,6.210487548828125,0.03287830948829651,-0.17110171914100647,-0.05460087209939957
1700516048671496400,6.220496337890625,-0.03984702751040459,0.08772212266921997,-0.11193447560071945
1700516048681506300,6.23050634765625,-0.18851971626281738,0.5873422026634216,0.49223196506500244
1700516048691516400,6.240516357421875,-0.0862940177321434,-0.405670166015625,0.20540177822113037
1700516048701525500,6.250525390625,0.15102390944957733,0.30264174938201904,-0.37709712982177734
1700516048711535400,6.260535400390625,-0.0783538967370987,-0.11883092671632767,0.3041674494743347
1700516048721545500,6.27054541015625,-0.007189909927546978,-0.5630522966384888,-0.031378164887428284
1700516048731554600,6.280554443359375,0.014838426373898983,0.525451123714447,-0.3102199137210846
1700516048741564400,6.290564453125,-0.08262790739536285,-0.07594360411167145,0.4856846332550049
1700516048751574500,6.300574462890625,0.01020455826073885,-0.3484848737716675,0.14767968654632568
1700516048761583600,6.31058349609375,0.1436542570590973,0.5939995646476746,-0.6069965362548828
1700516048771593500,6.320593505859375,0.10275716334581375,-0.6212239861488342,0.13529568910598755
1700516048781599700,6.330599853515625,0.027222709730267525,-0.11876547336578369,-0.24728772044181824
1700516048791609900,6.34060986328125,0.06836748868227005,0.1619436889886856,-0.6760361194610596
1700516048801618700,6.35061865234375,0.023367376998066902,-0.25902798771858215,0.4281061887741089
1700516048811628500,6.360628662109375,0.10761088877916336,-0.03631661832332611,0.0672561302781105
1700516048821638700,6.370638671875,0.034776847809553146,-0.26125240325927734,-0.7192238569259644
1700516048831647700,6.380647705078125,0.34878110885620117,0.1280042827129364,0.27232295274734497
1700516048841657600,6.39065771484375,0.2356243133544922,-0.1574748009443283,0.21027301251888275
1700516048851667700,6.400667724609375,-0.17898352444171906,0.11273829638957977,-0.2556494474411011
1700516048861676800,6.4106767578125,0.21777869760990143,-0.3125276565551758,-0.011560884304344654
1700516048871686700,6.420686767578125,0.3033071756362915,0.17609265446662903,-0.1150774285197258
1700516048881696800,6.43069677734375,0.33774322271347046,0.0825263187289238,-0.031519077718257904
1700516048891705900,6.440705810546875,0.46929696202278137,-0.19772396981716156,0.2804127335548401
1700516048901715700,6.4507158203125,-0.15300430357456207,0.6330050230026245,0.043679144233465195
1700516048911725800,6.460725830078125,0.10747520625591278,-0.12735678255558014,0.20201818645000458
1700516048921735700,6.470735595703125,0.3601585030555725,-0.32561197876930237,0.1944284588098526
1700516048931744500,6.48074462890625,-0.017600229009985924,0.28535205125808716,-0.16046544909477234
1700516048941754600,6.490754638671875,0.2744152545928955,-0.32653266191482544,-0.11861282587051392
1700516048951764500,6.500764404296875,-0.07353071868419647,0.03762746602296829,-0.36860883235931396
1700516048961773600,6.510773681640625,-0.017835969105362892,0.19468742609024048,-0.13434313237667084
1700516048971783700,6.52078369140625,0.19139449298381805,-0.37543705105781555,0.25314173102378845
1700516048981793500,6.53079345703125,-0.019993867725133896,0.4162622094154358,0.22775053977966309
1700516048991802600,6.540802734375,0.07513025403022766,-0.10171408206224442,0.41793563961982727
1700516049001812700,6.550812744140625,-0.059996772557497025,-0.01866775192320347,0.22905775904655457
1700516049011822600,6.560822509765625,-0.09738115966320038,0.135459765791893,-0.03606206551194191
1700516049021831700,6.570831787109375,0.22017379105091095,-0.33513081073760986,0.10834363102912903
1700516049031841800,6.580841796875,0.07757163792848587,0.12755349278450012,-0.16338536143302917
1700516049041851600,6.5908515625,-0.03308718279004097,-0.09823200106620789,-0.21958817541599274
1700516049051860500,6.600860595703125,0.1568843573331833,-0.0909583792090416,0.012033870443701744
1700516049061870600,6.61087060546875,-0.0713631883263588,0.12403751164674759,-0.13610513508319855
1700516049071880700,6.620880615234375,-0.02891639806330204,0.01931641809642315,0.010428642854094505
1700516049081889500,6.6308896484375,0.2049180567264557,-0.07150393724441528,0.24599596858024597
1700516049091899600,6.640899658203125,-0.033465754240751266,0.22766226530075073,-0.09919709712266922
1700516049101909800,6.65090966796875,0.07228831946849823,-0.2775885760784149,-0.046454913914203644
1700516049111918600,6.660918701171875,-0.003187265247106552,-0.06322620809078217,-0.1564597189426422
1700516049121928700,6.6709287109375,-0.10160579532384872,0.30290839076042175,-0.36917123198509216
1700516049131938800,6.680938720703125,0.03570998087525368,-0.12413880974054337,0.21414919197559357
1700516049141948700,6.69094873046875,-0.016291650012135506,-0.06595665216445923,0.1426183432340622
1700516049151957800,6.700957763671875,0.013338146731257439,0.215559720993042,0.12992385029792786
1700516049161967900,6.7109677734375,-0.03651870787143707,-0.31036436557769775,0.18190650641918182
1700516049171977700,6.720977783203125,-0.009322507306933403,0.3738565742969513,0.19224968552589417
1700516049181986600,6.730986572265625,-0.016852546483278275,0.10719674080610275,0.4942150115966797
1700516049191996700,6.74099658203125,0.08496356755495071,-0.5799379348754883,0.298025518655777
1700516049202006500,6.751006591796875,-0.019092781469225883,0.877436101436615,0.02144147828221321
1700516049212015600,6.761015625,-0.06392043828964233,-0.4212016463279724,0.008175209164619446
1700516049222025700,6.771025634765625,-0.007812971249222755,-0.23074418306350708,-0.22920146584510803
1700516049232035600,6.78103564453125,-0.08395674079656601,0.32573771476745605,-0.16437293589115143
1700516049242044700,6.791044677734375,0.12120719999074936,-0.7526541948318481,0.0008390499278903008
1700516049252054800,6.8010546875,0.09640412032604218,0.6101995706558228,-0.3099060356616974
1700516049262064600,6.811064697265625,-0.018871480599045753,0.05238153412938118,0.33154362440109253
1700516049272073700,6.82107373046875,0.02603527344763279,-0.48555514216423035,0.24150985479354858
1700516049282083800,6.831083740234375,-0.08918658643960953,0.994951069355011,0.2668277323246002
1700516049292093700,6.84109375,-0.05649947747588158,-0.43388625979423523,0.21907858550548553
1700516049302102500,6.8511025390625,0.13396459817886353,0.09881334751844406,-0.21644383668899536
1700516049312112600,6.861112548828125,-0.005437506828457117,-0.18467934429645538,0.21951402723789215
1700516049322122500,6.87112255859375,-0.033932946622371674,-0.4284675121307373,-0.07379452884197235
1700516049332131600,6.881131591796875,-0.06948002427816391,0.9984067678451538,0.14786116778850555
1700516049342141700,6.8911416015625,-0.03722675144672394,-0.7332373857498169,0.19946223497390747
1700516049352151600,6.901151611328125,0.1252250075340271,0.22800369560718536,-0.25429487228393555
1700516049362160600,6.91116064453125,-0.11086394637823105,-0.2720171809196472,0.23578143119812012
1700516049372170800,6.921170654296875,0.016368040814995766,-0.34174033999443054,-0.08094777911901474
1700516049382180600,6.9311806640625,0.01659226417541504,0.7470334768295288,0.030968502163887024
1700516049392189700,6.941189697265625,0.0499238558113575,-0.336978018283844,0.050464969128370285
1700516049402199800,6.95119970703125,0.2378854900598526,-0.7353023290634155,-0.5611556172370911
1700516049412209700,6.961209716796875,0.15616559982299805,-0.0855024978518486,0.08061029762029648
1700516049422218500,6.971218505859375,0.006704677827656269,0.0836826041340828,0.2387761026620865
1700516049432228600,6.981228515625,-0.08278313279151917,-0.14711812138557434,0.6800704002380371
1700516049442238500,6.991238525390625,0.05550938472151756,-0.4079156219959259,0.48823171854019165
1700516049452248600,7.00124853515625,0.11283658444881439,0.30237820744514465,-0.05808648467063904
1700516049462257700,7.011257568359375,0.08151629567146301,-0.2588830888271332,-0.0743943601846695
1700516049472267500,7.021267578125,0.16162657737731934,-0.25426357984542847,-0.6372334957122803
1700516049482277600,7.031277587890625,0.16155493259429932,-0.19286149740219116,-0.4483080208301544
1700516049492286700,7.04128662109375,0.21661072969436646,-0.21375878155231476,-0.31575050950050354
1700516049502296600,7.051296630859375,-0.1863938868045807,0.32844555377960205,0.6242599487304688
1700516049512306700,7.061306640625,-0.13721275329589844,0.09849998354911804,0.5043902397155762
1700516049522315800,7.071315673828125,0.17610758543014526,0.13389578461647034,0.5226878523826599
1700516049532325600,7.08132568359375,-0.06124718487262726,0.07224120199680328,0.04918470233678818
1700516049542335700,7.091335693359375,0.06839840859174728,0.10120312124490738,0.0776519924402237
1700516049552344600,7.101344482421875,-0.1436225026845932,0.043045274913311005,0.36797913908958435
1700516049562354700,7.111354736328125,-0.1346297413110733,0.4528578519821167,0.29820773005485535
1700516049572364500,7.121364501953125,-0.20414622128009796,0.014838168397545815,0.1529511958360672
1700516049582373600,7.13137353515625,-0.23309773206710815,0.03716547042131424,-0.30015429854393005
1700516049592383700,7.1413837890625,0.05520490184426308,-0.4552205204963684,-0.18930767476558685
1700516049602393600,7.1513935546875,-0.07256247848272324,-0.06431832164525986,-0.3251708745956421
1700516049612402700,7.161402587890625,-0.07305356860160828,-0.10066141188144684,0.18677924573421478
1700516049622412800,7.171412841796875,-0.20623251795768738,-0.32568126916885376,-0.17835605144500732
1700516049632422700,7.181422607421875,0.16998718678951263,-0.08458901941776276,-0.24679610133171082
1700516049642431700,7.191431640625,0.01178232952952385,-0.18290643393993378,-0.27844876050949097
1700516049652441900,7.20144189453125,-0.00825502909719944,-0.19418412446975708,-0.6165053248405457
1700516049662451700,7.21145166015625,-0.008957997895777225,0.04278068244457245,0.12867359817028046
1700516049672460500,7.22146044921875,0.08022647351026535,-0.5228448510169983,-0.18283449113368988
1700516049682470700,7.231470703125,-0.023338258266448975,0.6260635852813721,0.09766153246164322
1700516049692480500,7.24148046875,-0.01247735507786274,-0.12472889572381973,0.00939025729894638
1700516049702489600,7.251489501953125,-0.08413355052471161,0.08192867785692215,0.1587059646844864
1700516049712499700,7.261499755859375,0.07553627341985703,-0.09721231460571289,-0.07286122441291809
1700516049722509600,7.271509521484375,0.04382578283548355,0.4287782609462738,0.2885728180408478
1700516049732518700,7.2815185546875,-0.05148741975426674,0.17304103076457977,0.09588275104761124
1700516049742528800,7.29152880859375,0.0908433198928833,0.05896306782960892,0.3912951946258545
1700516049752538600,7.30153857421875,0.003672732273116708,0.3169112503528595,-0.08585058897733688
1700516049762547700,7.311547607421875,0.1405261754989624,0.30962640047073364,0.4656240940093994
1700516049772558000,7.32155810546875,0.0043395827524363995,0.34535402059555054,0.40528246760368347
1700516049782568000,7.33156787109375,0.12756653130054474,0.445728063583374,0.5427465438842773
1700516049792577000,7.341576904296875,-0.031215928494930267,0.23668403923511505,-0.09798549115657806
1700516049802587100,7.351587158203125,0.1323687732219696,-0.19811512529850006,0.1522531658411026
1700516049812597000,7.361596923828125,0.062446411699056625,-0.06993052363395691,-0.2947741150856018
1700516049822606000,7.371606201171875,0.07097715884447098,0.05503026023507118,0.20412394404411316
1700516049832616200,7.3816162109375,-0.056532055139541626,-0.14634385704994202,-0.2742202579975128
1700516049842626000,7.3916259765625,0.019663602113723755,-0.16600674390792847,-0.008590267039835453
1700516049852635100,7.40163525390625,-0.07188095897436142,-0.24264293909072876,-0.3594153821468353
1700516049862645200,7.411645263671875,-0.3430418372154236,-0.028113096952438354,-0.24544267356395721
1700516049872655000,7.421655029296875,-0.02677043527364731,-0.9175207614898682,-0.37565794587135315
1700516049882664200,7.431664306640625,0.03706321492791176,-0.3392258286476135,-0.8199216723442078
1700516049892674300,7.44167431640625,-0.03334064409136772,0.25077804923057556,-0.29370954632759094
1700516049902684000,7.451683837890625,-0.21463510394096375,-0.4311479330062866,0.01813312992453575
1700516049912693000,7.46169287109375,-0.06955433636903763,-0.025929342955350876,0.15053272247314453
1700516049922703000,7.471703125,0.15857994556427002,-0.21812058985233307,-0.1871758997440338
1700516049932713000,7.481712890625,-0.09808486700057983,0.734989583492279,0.14953209459781647
1700516049942722000,7.49172216796875,-0.112801194190979,-0.25568073987960815,0.4964010715484619
1700516049952732200,7.501732177734375,-0.018556447699666023,0.12333501130342484,0.22278524935245514
1700516049962742000,7.511741943359375,0.032813798636198044,0.4427596628665924,0.5028993487358093
1700516049972751000,7.521751220703125,-0.09462778270244598,0.4118883013725281,0.34667086601257324
1700516049982761200,7.53176123046875,-0.13175202906131744,0.19819879531860352,0.4041557013988495
1700516049992771000,7.54177099609375,-0.04095926508307457,-0.03843104839324951,-0.20960119366645813
1700516050002780200,7.5517802734375,0.027509845793247223,0.02303014136850834,-0.05923983454704285
1700516050012790300,7.561790283203125,0.048097413033246994,0.5030854344367981,0.09056323766708374
1700516050022800100,7.571800048828125,0.05635899305343628,-0.23397377133369446,-0.012101193889975548
1700516050032809000,7.58180908203125,0.10223700106143951,0.07190971821546555,-0.09373506903648376
1700516050042819000,7.591819091796875,-0.10093852132558823,0.020874375477433205,0.12273569405078888
1700516050052829000,7.601828857421875,0.03345444053411484,0.03648369386792183,0.3259865343570709
1700516050062838000,7.611838134765625,-0.07048991322517395,-0.06132983788847923,-0.05244886875152588
1700516050072848100,7.62184814453125,0.06221592798829079,-0.18168260157108307,0.11122502386569977
1700516050082858000,7.63185791015625,-0.09332047402858734,-0.23065918684005737,-0.2636772692203522
1700516050092867000,7.6418671875,0.008039170876145363,-0.27695584297180176,0.12564972043037415
1700516050102877200,7.651877197265625,-0.016206324100494385,-0.20647303760051727,-0.19854725897312164
1700516050112886300,7.66188623046875,-0.009781979955732822,0.04407769814133644,0.1759331226348877
1700516050122896100,7.671896240234375,-0.14777398109436035,0.3699093759059906,0.08751371502876282
1700516050132906200,7.68190625,0.019276535138487816,-0.26106032729148865,-0.14186301827430725
1700516050142915000,7.6919150390625,0.10405705124139786,-0.1750258505344391,-0.17989161610603333
1700516050152925000,7.701925048828125,-0.09728751331567764,0.2045813947916031,-0.1412094682455063
1700516050162935000,7.71193505859375,-0.05222040414810181,0.08548201620578766,0.07139123976230621
1700516050172944100,7.721944091796875,-0.07640083879232407,-0.3612256944179535,-0.4439442753791809
1700516050182954000,7.7319541015625,0.10520905256271362,-0.4157247841358185,-0.3064332604408264
1700516050192964000,7.741964111328125,0.00966894906014204,-0.25119733810424805,-0.8180631995201111
1700516050202973200,7.75197314453125,0.11001473665237427,-0.15791192650794983,-0.17310543358325958
1700516050212983000,7.761983154296875,0.08939255028963089,-0.009492093697190285,0.09188707917928696
1700516050222993200,7.7719931640625,0.020849773660302162,0.3854790925979614,0.3738107979297638
1700516050233002200,7.782002197265625,0.02511136420071125,0.3423457443714142,0.534400999546051
1700516050243012000,7.79201220703125,-0.041310228407382965,0.021548740565776825,0.2692355513572693
1700516050253022200,7.802022216796875,0.11231368780136108,0.35613390803337097,0.45285865664482117
1700516050263031000,7.812031005859375,-0.07547002285718918,0.1278243362903595,0.11776132136583328
1700516050273041000,7.822041015625,-0.02932063490152359,0.0853157564997673,0.2176184058189392
1700516050283051000,7.832051025390625,-0.057687822729349136,-0.20931199193000793,-0.1942054033279419
1700516050293060000,7.84206005859375,-0.027284642681479454,-0.03411433845758438,-0.07430856674909592
1700516050303070000,7.852070068359375,-0.1259811967611313,0.24984027445316315,-0.023731935769319534
1700516050313079000,7.8620791015625,-0.03280172497034073,-0.15925349295139313,-0.0998930111527443
1700516050323089200,7.872089111328125,0.16742609441280365,0.1084466278553009,0.09156835079193115
1700516050333099000,7.88209912109375,-0.0960923582315445,0.2764681279659271,0.16633446514606476
1700516050343108000,7.892108154296875,0.06017402559518814,0.019866997376084328,0.43899601697921753
1700516050353118200,7.9021181640625,-0.04970453679561615,0.09090761840343475,0.08878742158412933
1700516050363128000,7.912128173828125,0.010207322426140308,0.20292851328849792,0.18869845569133759
1700516050373137000,7.922136962890625,0.027058474719524384,0.11581917852163315,0.14099591970443726
1700516050383147000,7.93214697265625,-0.08221668004989624,0.18725065886974335,-0.009402263909578323
1700516050393157000,7.9421572265625,0.051115550100803375,0.16270111501216888,0.20862406492233276
1700516050403166000,7.952166015625,-0.11699250340461731,0.2211509495973587,0.05309418588876724
1700516050413176000,7.962176025390625,0.04359237849712372,-0.02012771926820278,0.08340095728635788
1700516050423186200,7.972186279296875,-0.11900711059570312,-0.10133641958236694,-0.2169269174337387
1700516050433195000,7.982195068359375,-0.04911111667752266,-0.10476017743349075,-0.12701568007469177
1700516050443205000,7.992205078125,-0.1598719358444214,-0.07798420637845993,-0.2556343972682953
1700516050453214200,8.002214111328126,-0.08109962940216064,-0.5825075507164001,-0.39609140157699585
1700516050463224000,8.01222412109375,0.14155399799346924,-0.1885100156068802,-0.3112926483154297
1700516050473234200,8.022234130859376,-0.011440346017479897,-0.19575780630111694,-0.10164143890142441
1700516050483243000,8.032242919921876,0.01873478852212429,0.2283659130334854,0.17210809886455536
1700516050493253000,8.042253173828126,-0.028235116973519325,-0.7559975385665894,-0.3934447765350342
1700516050503263000,8.052262939453126,0.16769513487815857,0.14184434711933136,-0.1809099018573761
1700516050513272000,8.06227197265625,-0.12751999497413635,-0.10984354466199875,-0.4834023714065552
1700516050523282200,8.0722822265625,-0.10586559772491455,-0.03669418767094612,-0.14579911530017853
1700516050533292000,8.0822919921875,0.20740097761154175,-0.10992046445608139,-0.12816739082336426
1700516050543301000,8.092301025390626,-0.049958523362874985,0.7083192467689514,0.4251802861690521
1700516050553311200,8.102311279296876,-0.06171318143606186,0.31009647250175476,1.0467710494995117
1700516050563320000,8.112320068359375,-0.15891295671463013,0.26502013206481934,0.33619895577430725
1700516050573330200,8.122330078125,-0.0540885329246521,0.3086901307106018,0.4611573815345764
1700516050583340300,8.13234033203125,-0.1041077971458435,0.33615633845329285,0.4435166120529175
1700516050593348900,8.142348876953125,-0.20574894547462463,0.062319204211235046,0.09939546883106232
1700516050603359000,8.15235888671875,-0.0613010935485363,-0.0820428803563118,-0.13110116124153137
1700516050613369000,8.162369140625,-0.1039327085018158,-0.0922321304678917,-0.4347364008426666
1700516050623378000,8.1723779296875,0.003118665423244238,-0.3518126308917999,-0.3153811991214752
1700516050633388000,8.182387939453125,-0.1408877819776535,-0.35494130849838257,-0.6370031833648682
1700516050643397000,8.192397216796875,0.19281618297100067,-0.4211503565311432,-0.613311231136322
1700516050653407000,8.202406982421875,0.05549507588148117,-0.09480339288711548,-0.9010082483291626
1700516050663417000,8.2124169921875,0.14356723427772522,-0.16759845614433289,-0.3163831830024719
1700516050673426200,8.22242626953125,0.154957577586174,0.027475683018565178,-0.034324340522289276
1700516050683436000,8.23243603515625,-0.07116755843162537,0.44102609157562256,0.3541363477706909
1700516050693446100,8.242446044921875,-0.1459919959306717,0.5054290294647217,0.8597129583358765
1700516050703455000,8.252455078125,-0.053798455744981766,-0.04673490673303604,0.31330445408821106
1700516050713465000,8.262465087890625,0.025691840797662735,0.26474466919898987,0.40355658531188965
1700516050723474000,8.272473876953125,-0.16563908755779266,0.32729285955429077,0.22963730990886688
1700516050733484000,8.282484130859375,-0.14867767691612244,-0.05926630645990372,-0.21452602744102478
1700516050743494100,8.292494140625,-0.0026888721622526646,-0.1571214199066162,-0.13470745086669922
1700516050753503000,8.3025029296875,-0.028785986825823784,-0.25852978229522705,-0.16432659327983856
1700516050763513000,8.31251318359375,-0.03573373705148697,-0.0965287983417511,-0.04560988396406174
1700516050773522700,8.322522705078125,-0.11487622559070587,-0.13775958120822906,-0.2890249490737915
1700516050783531800,8.33253173828125,0.07693841308355331,-0.15115876495838165,-0.12024058401584625
1700516050793541600,8.342541748046875,-0.030971547588706017,-0.05849328264594078,-0.37538206577301025
1700516050803550700,8.35255078125,0.10501617938280106,-0.2838505208492279,-0.13030143082141876
1700516050813560800,8.362560791015625,0.20880915224552155,-0.19273315370082855,-0.2566995918750763
1700516050823570700,8.37257080078125,0.034244097769260406,0.39611443877220154,-0.26107466220855713
1700516050833579800,8.382579833984375,-0.16251210868358612,0.19064703583717346,-0.26270586252212524
1700516050843590000,8.39258984375,0.11321945488452911,-0.4259280264377594,-0.19692417979240417
1700516050853599700,8.402599853515625,0.36739152669906616,-0.47172585129737854,-0.4075639843940735
1700516050863608600,8.412608642578125,0.165663942694664,0.6697815656661987,-0.8073249459266663
1700516050873618700,8.42261865234375,0.21473267674446106,-0.30075985193252563,-0.6187680959701538
1700516050883627800,8.432627685546874,0.24800251424312592,-0.43751972913742065,0.05378955975174904
1700516050893637600,8.4426376953125,-0.08233784139156342,0.3848963677883148,0.5325217843055725
1700516050903647700,8.452647705078125,-0.07790886610746384,0.5202082395553589,0.8559781908988953
1700516050913656800,8.46265673828125,-0.07260464876890182,0.13115955889225006,0.6919072270393372
1700516050923666700,8.472666748046874,0.1931757926940918,0.5995485782623291,0.678951621055603
1700516050933676800,8.4826767578125,0.09128297865390778,0.848732590675354,0.7938073873519897
1700516050943686000,8.492685791015624,-0.22191296517848969,0.44534358382225037,0.8602170348167419
1700516050953695700,8.50269580078125,-0.0007808576337993145,0.08468205481767654,0.2745751142501831
1700516050963704600,8.51270458984375,-0.07823844999074936,0.09965453296899796,0.15039291977882385
1700516050973714700,8.522714599609374,-0.13943098485469818,0.21144764125347137,0.23020893335342407
1700516050983724500,8.532724609375,-0.19569216668605804,-0.21846669912338257,-0.48235058784484863
1700516050993733600,8.542733642578124,0.007250029593706131,-0.2457209676504135,-0.39557787775993347
1700516051003743700,8.55274365234375,-0.08245309442281723,-0.3051319718360901,-0.43248674273490906
1700516051013752600,8.562752685546876,0.10044241696596146,-0.5526999235153198,-0.4479317367076874
1700516051023762700,8.5727626953125,0.1782969981431961,-0.1153649240732193,-0.16179178655147552
1700516051033772800,8.582772705078124,0.027086177840828896,-0.07456396520137787,0.16247470676898956
1700516051043781600,8.59278173828125,0.08958499133586884,0.1580425500869751,0.2443183958530426
1700516051053791700,8.602791748046876,-0.0042131394147872925,-0.14317108690738678,-0.22462299466133118
1700516051063800600,8.612800537109376,0.11249084025621414,-0.246168315410614,-0.1998545229434967
1700516051073810700,8.622810791015626,-0.10863381624221802,-0.14032922685146332,-0.503152072429657
1700516051083820500,8.632820556640626,-0.1595674604177475,-0.31680232286453247,-0.3672364056110382
1700516051093829600,8.64282958984375,0.10993511974811554,-0.9703630805015564,-0.7028154134750366
1700516051103839700,8.65283984375,0.11659474670886993,0.20486609637737274,-0.6633836627006531
1700516051113848600,8.6628486328125,0.11412865668535233,0.15589243173599243,-0.4614928662776947
1700516051123858700,8.672858642578126,0.27809733152389526,-0.5595895648002625,-0.12092511355876923
1700516051133868800,8.682868896484376,0.2271513044834137,-0.41416260600090027,0.49051907658576965
1700516051143877600,8.692877685546875,0.04340851679444313,0.8031566739082336,0.41195690631866455
1700516051153887700,8.7028876953125,0.0005649161757901311,-0.059015050530433655,0.4056369662284851
1700516051163897900,8.71289794921875,0.26500263810157776,0.8977024555206299,0.9813271164894104
1700516051173906700,8.72290673828125,0.13167306780815125,0.8262400031089783,1.2909941673278809
1700516051183916500,8.73291650390625,-0.18844422698020935,0.7542622685432434,1.2666939496994019
1700516051193925600,8.742925537109375,-0.14520514011383057,-0.0848718211054802,0.42976975440979004
1700516051203935700,8.752935791015625,0.15536390244960785,0.11999799311161041,0.03229789808392525
1700516051213945600,8.762945556640625,0.06466222554445267,0.04706147313117981,0.13563574850559235
1700516051223954700,8.77295458984375,-0.07904105633497238,-0.13387659192085266,-0.23898492753505707
1700516051233964800,8.78296484375,0.17544156312942505,-0.1783713549375534,-0.23073206841945648
1700516051243973600,8.7929736328125,-0.16261038184165955,-0.21189165115356445,-0.28870105743408203
1700516051253983700,8.802983642578125,-0.0358862541615963,-0.2849717438220978,-0.2998456060886383
1700516051263993900,8.812993896484375,-0.09943478554487228,-0.8944122791290283,-0.7650480270385742
1700516051274002700,8.823002685546875,-0.01206552516669035,-0.4416351914405823,-0.48796528577804565
1700516051284012500,8.833012451171875,-0.12003783881664276,-0.0034358478151261806,-0.3675578534603119
1700516051294021600,8.843021728515625,0.09034362435340881,-0.9418373703956604,-0.5519317388534546
1700516051304031500,8.853031494140625,0.20283348858356476,0.40885576605796814,0.16921553015708923
1700516051314041600,8.86304150390625,-0.08926201611757278,0.07372597604990005,0.6662341356277466
1700516051324050700,8.87305078125,-0.13044287264347076,0.3124164938926697,0.6140347719192505
1700516051334060500,8.883060546875,0.0222939383238554,-0.06500484049320221,0.037164799869060516
1700516051344069600,8.893069580078125,-0.06753027439117432,0.013832158409059048,0.03854220360517502
1700516051354079700,8.903079833984375,-0.1535666286945343,0.2965829074382782,0.2772780656814575
1700516051364089600,8.913089599609375,-0.23604005575180054,0.002716552698984742,0.08850336074829102
1700516051374098700,8.9230986328125,-0.05368436872959137,-0.03927617147564888,0.11695577204227448
1700516051384108800,8.93310888671875,-0.22049929201602936,0.017331400886178017,-0.05577203631401062
1700516051394117600,8.94311767578125,-0.2234008014202118,-0.12974272668361664,-0.1939578652381897
1700516051404127500,8.95312744140625,0.035111624747514725,-0.2450416386127472,-0.621446430683136
1700516051414137600,8.9631376953125,0.1837804615497589,-0.11607114970684052,-0.20714883506298065
1700516051424146700,8.973146728515625,0.048015519976615906,0.453870952129364,0.24595476686954498
1700516051434156500,8.983156494140625,0.015473556704819202,-0.14289550483226776,-0.003426042851060629
1700516051444165600,8.99316552734375,0.22556471824645996,-0.0873546451330185,-0.10367485880851746
1700516051454175700,9.00317578125,0.2107705920934677,-0.013059111312031746,-0.4536206126213074
1700516051464185600,9.013185546875,0.1166723296046257,-0.1055169329047203,-0.008512351661920547
1700516051474194700,9.023194580078124,0.07879845052957535,-0.05359514430165291,-0.12015925347805023
1700516051484204800,9.033204833984374,-0.03142360597848892,-0.12632077932357788,-0.03759298101067543
1700516051494213600,9.043213623046874,-0.03362977132201195,0.2702973783016205,0.31011196970939636
1700516051504223500,9.053223388671874,0.06874226778745651,-0.046696096658706665,-0.0073450845666229725
1700516051514232600,9.063232666015624,0.16311459243297577,0.17360857129096985,0.5070066452026367
1700516051524242700,9.07324267578125,-0.041331421583890915,0.4970962405204773,0.6401532292366028
1700516051534252500,9.08325244140625,-0.12502765655517578,0.24917805194854736,0.34700900316238403
1700516051544261600,9.09326171875,0.08774029463529587,-0.06436799466609955,-0.13284684717655182
1700516051554271700,9.103271728515624,-0.07522119581699371,0.08184674382209778,-0.13002042472362518
1700516051564280800,9.11328076171875,0.04294934123754501,0.04878144711256027,0.0940004289150238
1700516051574290700,9.123290771484376,0.0035161818377673626,-0.012150081805884838,-0.3124123215675354
1700516051584300800,9.13330078125,-0.05928816646337509,0.08216121792793274,0.11541163921356201
1700516051594309600,9.1433095703125,-0.1994498074054718,0.09520431607961655,0.09144505858421326
1700516051604319500,9.153319580078126,-0.1733543872833252,-0.12625674903392792,-0.46970266103744507
1700516051614328600,9.16332861328125,0.11586277186870575,-0.3362259566783905,-0.621755063533783
1700516051624338700,9.173338623046876,0.046907566487789154,-0.2844109535217285,-0.4117373526096344
1700516051634348500,9.1833486328125,0.0462321899831295,0.05511545389890671,0.06308107823133469
1700516051644357600,9.193357666015626,0.15796267986297607,-0.12004822492599487,-0.3309224247932434
1700516051654367700,9.20336767578125,0.1673111766576767,0.08417442440986633,0.048980168998241425
1700516051664376800,9.213376953125,0.015712574124336243,-0.31910577416419983,-0.4597903788089752
1700516051674386700,9.22338671875,0.145180806517601,-0.06811590492725372,-0.2917819321155548
1700516051684396800,9.233396728515626,0.20973613858222961,-0.17624619603157043,-0.30037546157836914
1700516051694405600,9.243405517578125,0.08234009891748428,0.20119617879390717,0.22901834547519684
1700516051704415500,9.25341552734375,-0.04382723569869995,0.19467516243457794,0.15829338133335114
1700516051714424600,9.263424560546875,0.0501735620200634,-0.25466641783714294,-0.23340673744678497
1700516051724434700,9.2734345703125,0.1077326238155365,0.34471413493156433,0.5190131664276123
1700516051734443800,9.28344384765625,-0.08698839694261551,0.7258455157279968,0.8357911109924316
1700516051744453600,9.29345361328125,-0.19961795210838318,0.18779343366622925,0.270425945520401
1700516051754463700,9.303463623046875,0.17606699466705322,0.11511418223381042,-0.0009669307619333267
1700516051764472800,9.313472900390625,-0.021006792783737183,0.35120889544487,0.2752803564071655
1700516051774483200,9.323483154296875,-0.14950723946094513,0.22129590809345245,0.33445072174072266
1700516051784492300,9.3334921875,0.05304338037967682,-0.029411878436803818,-0.1949467658996582
1700516051794502100,9.343502197265625,-0.07829307019710541,-0.021213602274656296,-0.013730378821492195
1700516051804511200,9.35351123046875,-0.14172343909740448,-0.10294335335493088,-0.1348099261522293
1700516051814521300,9.363521240234375,-0.15070921182632446,-0.5743481516838074,-0.69273442029953
1700516051824531200,9.37353125,0.1269521713256836,-0.2631617486476898,-0.45486706495285034
1700516051834540000,9.3835400390625,0.020993251353502274,-0.46516889333724976,-0.5136944055557251
1700516051844550100,9.393550048828125,-0.03348679840564728,-0.029781190678477287,-0.17016547918319702
1700516051854559200,9.403559326171875,0.22329919040203094,-0.8763649463653564,-0.6717846989631653
1700516051864569000,9.413569091796875,0.10756053030490875,0.7924663424491882,0.6098884344100952
1700516051874579200,9.4235791015625,0.004458116367459297,-0.1833251714706421,0.518224835395813
1700516051884588300,9.43358837890625,-0.14194972813129425,0.19956491887569427,0.4589674174785614
1700516051894598100,9.44359814453125,0.03327535092830658,0.27848851680755615,0.50431889295578
1700516051904607200,9.453607177734375,-0.06508581340312958,0.5194531679153442,0.6278848052024841
1700516051914617300,9.463617431640625,-0.20799316465854645,0.15500834584236145,0.4685145318508148
1700516051924626200,9.473626220703125,-0.0008793101878836751,-0.2585875689983368,-0.1309846192598343
1700516051934636000,9.483635986328125,-0.12059399485588074,-0.125450000166893,-0.2242051064968109
1700516051944646100,9.493646240234375,-0.045532211661338806,-0.2879994809627533,-0.00702193146571517
1700516051954655200,9.5036552734375,-0.0335162952542305,-0.22700190544128418,-0.45513367652893066
1700516051964665000,9.5136650390625,0.08306355029344559,-0.07297416776418686,0.04485645890235901
1700516051974674200,9.523674072265624,0.07278241217136383,0.11038394272327423,0.1302856057882309
1700516051984684300,9.533684326171874,0.16613546013832092,-0.14346252381801605,-0.09320875257253647
1700516051994693400,9.543693359375,0.11351992189884186,0.22185340523719788,0.25408315658569336
1700516052004703200,9.553703125,-0.1474970132112503,-0.030112946406006813,0.1298496425151825
1700516052014713300,9.56371337890625,0.025593284517526627,0.07718048989772797,0.09081275761127472
1700516052024722200,9.57372216796875,-0.0033951657824218273,-0.08327121287584305,-0.2885441482067108
1700516052034732000,9.58373193359375,-0.006003732327371836,-0.18781493604183197,-0.23732517659664154
1700516052044741000,9.5937412109375,-0.10208432376384735,0.17827081680297852,0.08796608448028564
1700516052054751200,9.603751220703124,-0.2098885476589203,-0.19573180377483368,0.02379615232348442
1700516052064761000,9.613760986328124,0.07284995913505554,0.010867483913898468,0.12252382189035416
1700516052074770200,9.623770263671876,-0.1049240306019783,0.04764413833618164,0.15255974233150482
1700516052084780300,9.6337802734375,-0.06142079085111618,0.08454984426498413,0.1545744240283966
1700516052094789400,9.643789306640626,0.06407908350229263,-0.2822742164134979,-0.32096120715141296
1700516052104799200,9.65379931640625,0.054248642176389694,-0.1391347050666809,-0.3466748595237732
1700516052114808300,9.663808349609376,0.02961440198123455,-0.39427804946899414,-0.8118749856948853
1700516052124818400,9.673818359375,0.178045392036438,-0.24876947700977325,-0.8074461817741394
1700516052134828300,9.683828369140626,0.12908343970775604,-0.44333046674728394,-0.4324531853199005
1700516052144837000,9.693837158203126,0.09885388612747192,0.6477950811386108,0.4032425880432129
1700516052154847200,9.70384716796875,0.03863342106342316,0.13877496123313904,0.5633134841918945
1700516052164856300,9.713856201171875,0.05964522436261177,-0.336510568857193,-0.01588069461286068
1700516052174866200,9.7238662109375,-0.04491980001330376,-0.22437073290348053,-0.15266837179660797
1700516052184875300,9.733875244140625,-0.03735897317528725,0.3483577370643616,0.203703373670578
1700516052194885400,9.743885498046875,-0.1955893486738205,0.39819347858428955,0.5137763023376465
1700516052204894200,9.753894287109375,0.0729028731584549,-0.7820180058479309,-0.15991297364234924
1700516052214904300,9.763904296875,-0.07370174676179886,0.5524805784225464,0.4024749994277954
1700516052224914400,9.77391455078125,-0.10340054333209991,0.3100169003009796,0.2873851954936981
1700516052234923000,9.783923095703125,0.05432410165667534,-0.8225666284561157,-0.6096851825714111
1700516052244933000,9.79393310546875,-0.04332844540476799,0.47258439660072327,0.3194376826286316
1700516052254942200,9.803942138671875,0.09765663743019104,0.13790389895439148,0.24853792786598206
1700516052264952000,9.8139521484375,-0.008794515393674374,-0.026464659720659256,0.14271055161952972
1700516052274961200,9.823961181640625,-0.04959307983517647,0.3020959198474884,0.5228652954101562
1700516052284971300,9.83397119140625,0.040496475994586945,0.32217440009117126,0.2964438796043396
1700516052294981000,9.843981201171875,-0.4316902458667755,-0.0786513015627861,-0.06424371898174286
1700516052304990200,9.853990234375,0.07975253462791443,-0.15515032410621643,-0.6221988201141357
1700516052315000300,9.864000244140625,0.0059206523001194,-0.3557489514350891,-0.6234033703804016
1700516052325009200,9.874009033203125,0.12847645580768585,0.02255025878548622,-0.5225063562393188
1700516052335019000,9.88401904296875,0.09015890210866928,0.2809751629829407,-0.5725844502449036
1700516052345028000,9.894028076171875,0.10988707840442657,-0.7133735418319702,-0.3623012602329254
1700516052355038200,9.9040380859375,0.21450616419315338,0.9210891127586365,0.28676968812942505
1700516052365048000,9.914048095703125,0.265419065952301,0.6356697678565979,0.33438488841056824
1700516052375057200,9.92405712890625,0.05697530135512352,-0.912991464138031,-0.454094260931015
1700516052385067300,9.9340673828125,0.0046135615557432175,0.17745955288410187,-0.5322074294090271
1700516052395076400,9.944076416015625,0.2789444625377655,0.31983184814453125,-0.28759318590164185
1700516052405086200,9.954086181640625,0.4061969518661499,-0.02137306146323681,-0.14632819592952728
1700516052415095300,9.96409521484375,0.22631268203258514,0.0133114168420434,-0.04904638230800629
1700516052425105400,9.97410546875,0.09836030751466751,0.01844652183353901,-0.3843309283256531
1700516052435114200,9.9841142578125,-0.054456666111946106,0.2229892760515213,-0.33690693974494934
1700516052445124000,9.9941240234375,0.11026390641927719,-0.9123281836509705,-0.34612414240837097
1700516052455134200,10.00413427734375,-0.143695667386055,0.5873987674713135,0.08487547188997269
1700516052465143300,10.014143310546874,-0.17200176417827606,-0.14354951679706573,0.599544107913971
1700516052475153200,10.024153076171874,-0.111454539000988,-0.296951562166214,0.3462540805339813
1700516052485162200,10.034162353515624,-0.13785973191261292,0.08428527414798737,0.5615597367286682
1700516052495172400,10.04417236328125,0.1095559373497963,0.3443586826324463,0.8070813417434692
1700516052505181400,10.054181396484376,-0.46506935358047485,0.10890373587608337,0.4439159333705902
1700516052515191300,10.06419140625,0.09508877992630005,0.4859761595726013,0.13847105205059052
1700516052525200100,10.0742001953125,0.06949204951524734,0.18513581156730652,0.08057872205972672
1700516052535210200,10.084210205078126,-0.0892331451177597,-0.03848077356815338,-0.11095476150512695
1700516052545220000,10.09422021484375,0.024275345727801323,-0.37501728534698486,-0.795510470867157
1700516052555229200,10.104229248046876,0.05596749857068062,-0.25513777136802673,-0.6221847534179688
1700516052565239300,10.1142392578125,0.2694135904312134,-0.516676664352417,-0.6931401491165161
1700516052575248100,10.124248046875,0.08960866928100586,0.1894088238477707,-0.22304189205169678
1700516052585258200,10.13425830078125,0.011046094819903374,-0.20810474455356598,0.24705079197883606
1700516052595267300,10.144267333984375,-0.038998428732156754,0.575173020362854,0.7502185702323914
1700516052605277200,10.154277099609375,-0.039130523800849915,0.47531431913375854,0.6268050074577332
1700516052615287300,10.164287353515626,0.02521410956978798,-0.5414139628410339,-0.16001364588737488
1700516052625296100,10.174296142578125,0.06314241886138916,-0.7442212104797363,-0.37339410185813904
1700516052635306200,10.18430615234375,-0.002445646096020937,0.5836252570152283,0.19476574659347534
1700516052645315000,10.194315185546875,-0.04920092225074768,-0.07083066552877426,0.16035343706607819
1700516052655325200,10.2043251953125,-0.11936749517917633,-0.7183766961097717,0.030385319143533707
1700516052665334300,10.214334228515625,-0.05698384717106819,0.5729517936706543,0.6323977112770081
1700516052675344100,10.22434423828125,-0.27855005860328674,0.43872687220573425,0.32736799120903015
1700516052685353200,10.234353271484375,0.03307897970080376,-0.7694246768951416,-0.7015535831451416
1700516052695363300,10.24436328125,-0.061705585569143295,0.03794962167739868,-0.12002575397491455
1700516052705373200,10.254373291015625,0.07909239828586578,0.3786100149154663,0.328503280878067
1700516052715382000,10.264382080078125,0.0006378029938787222,-0.10788320004940033,0.10458284616470337
1700516052725392100,10.27439208984375,-0.08441567420959473,0.435774564743042,0.7754603028297424
1700516052735401200,10.284401123046875,-0.009297220967710018,0.3128499686717987,0.5649597644805908
1700516052745411000,10.2944111328125,-0.18770112097263336,-0.05625474825501442,0.06349453330039978
1700516052755420200,10.304420166015625,0.01488446444272995,0.009130649268627167,-0.24616451561450958
1700516052765430300,10.31443017578125,-0.05384305492043495,-0.18280339241027832,-0.2597232162952423
1700516052775442400,10.3244423828125,-0.04771006107330322,0.08413137495517731,0.06987415254116058
1700516052785452300,10.334452392578125,-0.01272780355066061,-0.3825643062591553,-0.5499646067619324
1700516052795461400,10.34446142578125,0.13318786025047302,-0.15538281202316284,-0.3032917380332947
1700516052805471200,10.35447119140625,0.2607567608356476,0.3661995828151703,-0.24347259104251862
1700516052815481000,10.364481201171875,0.19370128214359283,0.26836782693862915,-0.33793729543685913
1700516052825490200,10.374490234375,0.11265236884355545,-0.714898943901062,-0.7103806734085083
1700516052835500300,10.384500244140625,0.10608847439289093,0.2571708559989929,-0.35834112763404846
1700516052845509400,10.39450927734375,0.05233197286725044,0.31594225764274597,0.035790733993053436
1700516052855519200,10.404519287109375,0.09163330495357513,-0.11795379221439362,0.011748516000807285
1700516052865528300,10.4145283203125,0.03440217673778534,-0.3309533894062042,-0.14184236526489258
1700516052875538400,10.424538330078125,-0.1430666148662567,0.3984086513519287,-0.10779758542776108
1700516052885547500,10.434547607421875,-0.18481580913066864,0.08324223011732101,0.2569691836833954
1700516052895557400,10.444557373046875,0.08683062344789505,-0.8052972555160522,-0.31817930936813354
1700516052905566200,10.454566162109375,-0.11642160266637802,0.48854583501815796,0.23988500237464905
1700516052915576300,10.464576416015625,-0.19849437475204468,0.5224468111991882,0.7729859948158264
1700516052925586200,10.474586181640625,-0.17229072749614716,0.10820408165454865,0.019595254212617874
1700516052935595300,10.48459521484375,-0.05425357446074486,-0.16473796963691711,-0.03585042804479599
1700516052945605400,10.49460546875,-0.00005097244866192341,0.5215931534767151,0.5636178255081177
1700516052955614200,10.5046142578125,-0.15554122626781464,-0.042536020278930664,0.128349170088768
1700516052965624300,10.514624267578125,0.015340419486165047,0.0671708956360817,0.16450423002243042
1700516052975633400,10.52463330078125,-0.07108981162309647,-0.06724283844232559,-0.032088179141283035
1700516052985643300,10.534643310546874,-0.061103880405426025,-0.15923704206943512,-0.19630028307437897
1700516052995652000,10.544652099609374,0.14333128929138184,-0.20030590891838074,-0.4498446583747864
1700516053005662200,10.554662109375,0.07067874073982239,0.025761678814888,0.027332806959748268
1700516053015672300,10.56467236328125,0.13673526048660278,0.06555543094873428,0.14841236174106598
1700516053025681200,10.57468115234375,-0.021342415362596512,0.33668115735054016,0.044844966381788254
1700516053035691300,10.584691162109374,0.09490589797496796,-0.677861213684082,-0.25276699662208557
1700516053045700400,10.594700439453124,-0.009120019152760506,0.6137088537216187,0.3151693642139435
1700516053055710200,10.604710205078124,-0.005655246786773205,0.49309825897216797,0.27753758430480957
1700516053065719300,10.61471923828125,0.09773210436105728,-0.5052228569984436,-0.524514377117157
1700516053075729400,10.6247294921875,-0.02653631381690502,0.18453209102153778,-0.09968240559101105
1700516053085738200,10.63473828125,0.007711770944297314,0.14655382931232452,0.14675723016262054
1700516053095748000,10.644748046875,-0.078739233314991,0.003708008211106062,-0.013612749055027962
1700516053105757200,10.654757080078125,-0.02264818176627159,-0.5284264087677002,0.003610961139202118
1700516053115767300,10.664767333984376,-0.028266651555895805,0.3648100793361664,0.4270772635936737
1700516053125776400,10.6747763671875,-0.11508797854185104,0.08094565570354462,0.15359540283679962
1700516053135786200,10.6847861328125,0.07260762155056,-0.15796013176441193,0.08520995080471039
1700516053145796400,10.69479638671875,-0.06799943000078201,0.13954004645347595,0.4756852984428406
1700516053155805400,10.704805419921875,-0.11014821380376816,0.4257211983203888,0.6982831954956055
1700516053165815300,10.714815185546875,0.004895707592368126,0.028802132233977318,-0.08672532439231873
1700516053175824400,10.724824462890625,0.025907516479492188,0.16694508492946625,-0.07687642425298691
1700516053185834500,10.73483447265625,0.12709775567054749,0.16602596640586853,-0.09917746484279633
1700516053195843300,10.74484326171875,-0.040417734533548355,-0.5094427466392517,-0.54282146692276
1700516053205853200,10.754853271484375,0.005516332574188709,0.02525368705391884,-0.348299115896225
1700516053215862300,10.7648623046875,-0.05226653814315796,-0.3404678404331207,-0.32642337679862976
1700516053225872400,10.774872314453125,0.010739140212535858,0.29597267508506775,-0.11769388616085052
1700516053235881200,10.784881103515625,0.11079436540603638,-0.44064730405807495,-0.635398805141449
1700516053245891300,10.794891357421875,0.04354385286569595,-0.31939804553985596,-0.3026781380176544
1700516053255900400,10.804900390625,-0.006958738900721073,0.34384408593177795,0.21563640236854553
1700516053265910300,10.81491015625,-0.02679268643260002,0.1536000669002533,0.2881644070148468
1700516053275920400,10.82492041015625,0.028076155111193657,-0.5511679649353027,-0.10634030401706696
1700516053285929200,10.83492919921875,-0.08704950660467148,0.3627043664455414,0.2856977880001068
1700516053295939300,10.844939208984375,-0.08058308064937592,0.1860603243112564,0.3829020857810974
1700516053305948200,10.8549482421875,0.08324319869279861,-0.31904807686805725,-0.2017187476158142
1700516053315958300,10.864958251953125,-0.08954722434282303,0.40832191705703735,0.5423897504806519
1700516053325967400,10.87496728515625,-0.07147538661956787,0.1463841050863266,0.48853665590286255
1700516053335977200,10.884977294921875,-0.18113850057125092,0.03315688669681549,-0.06638995558023453
1700516053345986300,10.894986328125,0.03080407716333866,-0.22800196707248688,-0.33933600783348083
1700516053355996400,10.904996337890625,0.05975423380732536,-0.2095894068479538,-0.29905569553375244
1700516053366005200,10.915005126953124,-0.11561304330825806,0.26978984475135803,0.07822928577661514
1700516053376015000,10.92501513671875,0.11132929474115372,-0.4868192970752716,-0.608127236366272
1700516053386024200,10.935024169921874,-0.04019996151328087,0.41174057126045227,0.35018599033355713
1700516053396034300,10.945034423828124,0.043395064771175385,0.267744243144989,0.2731039822101593
1700516053406043400,10.95504345703125,-0.008779836818575859,-0.08566064387559891,-0.25508928298950195
1700516053416053200,10.96505322265625,-0.02948538027703762,-0.38980376720428467,-0.40761569142341614
1700516053426063400,10.9750634765625,0.10756675899028778,0.03280685096979141,-0.2994072139263153
1700516053436072400,10.985072509765626,-0.11091684550046921,-0.038059063255786896,-0.06395845860242844
1700516053446082300,10.995082275390626,0.1076229065656662,-0.409890353679657,-0.1639002561569214
1700516053456091400,11.00509130859375,-0.0634780079126358,0.22352920472621918,0.4560130536556244
1700516053466101500,11.0151015625,0.029251284897327423,0.07505202293395996,0.23050963878631592
1700516053476110300,11.0251103515625,-0.004021984059363604,-0.21178880333900452,-0.22664566338062286
1700516053486120200,11.0351201171875,-0.02187158539891243,0.2719964385032654,0.6004213690757751
1700516053496129300,11.04512939453125,0.07561315596103668,0.6010584831237793,0.8440657258033752
1700516053506139400,11.055139404296876,-0.288859099149704,0.1432114541530609,0.43737900257110596
1700516053516148200,11.065148193359375,0.03068535588681698,0.022212587296962738,-0.11044469475746155
1700516053526158300,11.075158447265625,-0.05158793553709984,-0.1659506857395172,-0.4584892690181732
1700516053536167400,11.08516748046875,0.005002371035516262,-0.3376321494579315,-0.36189669370651245
1700516053546177300,11.09517724609375,0.01666235364973545,-0.3025168478488922,-0.6164472103118896
1700516053556186000,11.10518603515625,-0.06277520954608917,-0.10893939435482025,-0.052302613854408264
1700516053566196200,11.1151962890625,0.06951270252466202,-0.08244001865386963,-0.23019059002399445
1700516053576205300,11.125205322265625,0.029528269544243813,0.1304011344909668,-0.2490478903055191
1700516053586215200,11.135215087890625,0.18433299660682678,-0.8372345566749573,-0.5967376828193665
1700516053596225300,11.145225341796875,0.01619565859436989,0.30616089701652527,-0.11048118770122528
1700516053606234400,11.155234375,-0.02417994849383831,0.1246979609131813,0.32634618878364563
1700516053616244200,11.165244140625,0.07031380385160446,-0.11807633191347122,0.16414715349674225
1700516053626253300,11.17525341796875,0.01761428825557232,-0.19522665441036224,0.18683889508247375
1700516053636263400,11.185263427734375,-0.05273204669356346,0.2872057557106018,0.35815897583961487
1700516053646272300,11.195272216796875,-0.21913224458694458,0.15627816319465637,0.2788521945476532
1700516053656282000,11.2052822265625,0.03540949523448944,-0.00408568000420928,0.27506223320961
1700516053666291200,11.215291259765625,-0.15444469451904297,0.22012320160865784,0.504349410533905
1700516053676301300,11.22530126953125,-0.22310897707939148,0.2387525588274002,0.4252282381057739
1700516053686310400,11.235310302734375,-0.06824719160795212,-0.09726585447788239,-0.4118245840072632
1700516053696320300,11.2453203125,-0.07498925179243088,-0.11785022914409637,-0.18238312005996704
1700516053706329300,11.255329345703124,-0.03444187343120575,-0.11099850386381149,0.09008756279945374
1700516053716339500,11.26533935546875,-0.11596523225307465,-0.42187729477882385,-0.4786531329154968
1700516053726348300,11.275348388671874,0.0976705402135849,-0.16812664270401,-0.44969791173934937
1700516053736358400,11.2853583984375,0.1325763314962387,-0.3173070549964905,-0.485708087682724
1700516053746367200,11.2953671875,0.03138246387243271,0.40852195024490356,-0.008265385404229164
1700516053756377300,11.30537744140625,0.20938068628311157,-0.4938400983810425,-0.3489827513694763
1700516053766386200,11.31538623046875,-0.006294158287346363,0.019607489928603172,-0.22595854103565216
1700516053776392700,11.325392822265625,-0.021188152953982353,0.29475170373916626,0.09207695722579956
1700516053786401800,11.33540185546875,0.08474242687225342,-0.09098143130540848,0.03211749345064163
1700516053796411600,11.34541162109375,-0.0025381501764059067,-0.4814740717411041,-0.1313401460647583
1700516053806421800,11.355421875,-0.06259925663471222,0.401007741689682,0.10346464067697525
1700516053816430800,11.365430908203125,-0.1368338018655777,0.15850508213043213,0.33390477299690247
1700516053826440700,11.375440673828125,0.10715393722057343,-0.7687177658081055,-0.39936840534210205
1700516053836449800,11.38544970703125,-0.1617121398448944,0.10626620054244995,0.09557954221963882
1700516053846460000,11.3954599609375,-0.04666773974895477,0.4327368438243866,0.32054585218429565
1700516053856469000,11.405468994140625,-0.023515017703175545,-0.1941414475440979,-0.2959415912628174
1700516053866478600,11.415478515625,0.005192937795072794,-0.6241005063056946,-0.50054532289505
1700516053876487700,11.42548779296875,0.004128738772124052,0.3740650415420532,-0.045325908809900284
1700516053886497800,11.435497802734375,-0.007286245934665203,0.21310143172740936,0.03977196663618088
1700516053896507000,11.4455068359375,0.040743064135313034,-0.6956932544708252,-0.4141651690006256
1700516053906516700,11.455516845703125,-0.07419037818908691,0.46035557985305786,0.32162147760391235
1700516053916525800,11.46552587890625,0.019049547612667084,0.5867111682891846,0.43086299300193787
1700516053926536000,11.475535888671875,-0.015480807051062584,-0.3050403892993927,-0.37212449312210083
1700516053936544800,11.485544677734374,-0.06968092918395996,-0.44607579708099365,-0.24240325391292572
1700516053946555000,11.495554931640624,0.02137467823922634,0.40198814868927,0.4620784819126129
1700516053956563700,11.505563720703124,-0.15610504150390625,0.08264343440532684,0.28455376625061035
1700516053966573800,11.51557373046875,0.035435061901807785,-0.30955052375793457,-0.038933780044317245
1700516053976582700,11.525582763671874,-0.006970982067286968,-0.0932706817984581,0.2827651798725128
1700516053986592800,11.5355927734375,-0.13621510565280914,0.2623285949230194,0.37089794874191284
1700516053996601900,11.545601806640626,0.049237582832574844,-0.6123498678207397,-0.5578256249427795
1700516054006611700,11.55561181640625,-0.040658820420503616,0.3176112771034241,0.3234129846096039
1700516054016620800,11.565620849609376,0.12546516954898834,-0.07149094343185425,0.0269341841340065
1700516054026631000,11.575630859375,-0.07131074368953705,0.04982709884643555,-0.2534636855125427
1700516054036639700,11.5856396484375,0.10189619660377502,-0.05659068748354912,-0.12248595803976059
1700516054046649600,11.595649658203126,-0.09078148007392883,0.047238387167453766,0.02452882193028927
1700516054056658700,11.60565869140625,-0.11638377606868744,0.1489306539297104,-0.021988345310091972
1700516054066668800,11.615668701171876,0.13283078372478485,-0.09802895784378052,-0.43748536705970764
1700516054076678700,11.6256787109375,0.028651654720306396,-0.013214204460382462,-0.10918686538934708
1700516054086687700,11.635687744140625,0.06580910086631775,0.28447383642196655,0.08456846326589584
1700516054096697900,11.64569775390625,-0.012152541428804398,0.17915993928909302,-0.1027577593922615
1700516054106707000,11.65570703125,0.029104601591825485,-0.772096574306488,-0.3675062954425812
1700516054116716800,11.665716796875,-0.0532001256942749,0.38248687982559204,0.1876775324344635
1700516054126726000,11.675725830078125,-0.03093409352004528,0.31842511892318726,0.4180537760257721
1700516054136736000,11.685736083984375,0.08794542402029037,-0.9654616117477417,-0.45744895935058594
1700516054146744800,11.695744873046875,-0.11264058947563171,0.19223694503307343,0.13717414438724518
1700516054156754700,11.705754638671875,-0.0492568202316761,0.4321070909500122,0.7246975898742676
1700516054166763800,11.715763671875,-0.0533607043325901,-0.1896408498287201,-0.043319497257471085
1700516054176774000,11.72577392578125,0.0582268089056015,0.48378708958625793,0.5680863857269287
1700516054186782700,11.73578271484375,0.12209003418684006,0.2079523503780365,0.4914371967315674
1700516054196792800,11.745792724609375,-0.25487402081489563,0.0570099763572216,-0.07945450395345688
1700516054206802000,11.755802001953125,0.17172963917255402,0.1440010815858841,-0.27430397272109985
1700516054216811800,11.765811767578125,-0.0891387015581131,-0.0619259849190712,-0.014969602227210999
1700516054226820600,11.775820556640625,-0.06533780694007874,0.10080894827842712,0.023100346326828003
1700516054236830700,11.785830810546875,0.09219136834144592,-0.35381317138671875,-0.6215516328811646
1700516054246839800,11.79583984375,-0.00756221916526556,-0.08237256854772568,-0.2562340795993805
1700516054256849700,11.805849609375,0.08580873906612396,-0.09373041987419128,-0.13822461664676666
1700516054266858800,11.815858642578124,0.00661909906193614,0.11668339371681213,0.07869486510753632
1700516054276868900,11.825868896484375,0.12652021646499634,-0.3768858313560486,-0.06289742141962051
1700516054286878000,11.8358779296875,0.0835195854306221,0.29380181431770325,0.03853922709822655
1700516054296887800,11.8458876953125,0.0190053079277277,0.2275855392217636,-0.0032393806613981724
1700516054306896600,11.855896728515624,0.13077113032341003,-0.5961245894432068,-0.46549227833747864
1700516054316906800,11.86590673828125,-0.1023702472448349,0.036214280873537064,-0.21471010148525238
1700516054326915800,11.875915771484374,-0.12051025778055191,0.2764914631843567,0.49636244773864746
1700516054336925700,11.88592578125,-0.09265998750925064,0.11505808681249619,0.4439122974872589
1700516054346934800,11.895934814453126,-0.03223983943462372,-0.030746452510356903,0.63260817527771
1700516054356945000,11.90594482421875,-0.06642231345176697,0.2635810375213623,0.7395005226135254
1700516054366953700,11.91595361328125,-0.25741058588027954,0.15929065644741058,0.5114473700523376
1700516054376963800,11.9259638671875,-0.015244037844240665,-0.18109488487243652,-0.23582898080348969
1700516054386973000,11.935972900390626,-0.011950296349823475,-0.31886035203933716,-0.5932134389877319
1700516054396982800,11.945982666015626,0.19564470648765564,-0.1868152618408203,-0.5768845081329346
1700516054406991600,11.95599169921875,0.1755157709121704,-0.15851937234401703,-0.7446937561035156
1700516054417001700,11.966001708984376,0.2379503846168518,-0.11471570283174515,-0.32904013991355896
1700516054427010800,11.9760107421875,0.16461844742298126,0.6217464804649353,0.08738100528717041
1700516054437020700,11.986020751953125,0.20755207538604736,0.21441814303398132,0.2994037866592407
1700516054447029800,11.99602978515625,0.13477657735347748,-0.45930907130241394,0.09652402251958847
1700516054457040000,12.006039794921875,-0.08417201787233353,0.5981475114822388,-0.1491914540529251
1700516054467049000,12.016049072265625,-0.3007093667984009,0.028747374191880226,0.2329510748386383
1700516054477058800,12.026058837890625,-0.007339266128838062,-0.12655699253082275,0.006755768321454525
1700516054487067600,12.036067626953125,-0.0847650095820427,-0.29092636704444885,0.03702626749873161
1700516054497077800,12.046077880859375,-0.05914033204317093,0.1588524878025055,0.6251571774482727
1700516054507087600,12.056087646484375,-0.21585041284561157,0.215594083070755,0.18964670598506927
1700516054517096700,12.0660966796875,0.015976423397660255,-0.8670833706855774,-0.4815143644809723
1700516054527105800,12.076105712890625,0.21405412256717682,0.3340035378932953,0.07174594700336456
1700516054537116000,12.086115966796875,-0.18592284619808197,0.4962528944015503,0.039365097880363464
1700516054547125800,12.096125732421875,0.18911334872245789,-0.36778098344802856,-0.5242242813110352
1700516054557134800,12.106134765625,0.10753779113292694,0.4617856740951538,0.11942072957754135
1700516054567145000,12.11614501953125,0.1774187982082367,0.6820652484893799,0.35600483417510986
1700516054577153800,12.12615380859375,0.04313821718096733,0.08780240267515182,-0.30757448077201843
1700516054587163600,12.13616357421875,0.0648353099822998,-0.40558797121047974,-0.3163703978061676
1700516054597172700,12.1461728515625,0.07838733494281769,0.664084255695343,0.2741597294807434
1700516054607182800,12.156182861328125,0.07318966090679169,0.30355706810951233,0.15864297747612
1700516054617191700,12.166191650390624,0.08946263790130615,-1.0052014589309692,-0.5379941463470459
1700516054627201800,12.176201904296875,-0.040298499166965485,0.40698665380477905,0.17060519754886627
1700516054637211000,12.1862109375,-0.014070090837776661,0.515040397644043,0.6820165514945984
1700516054647220700,12.196220703125,0.01557629182934761,-0.38497450947761536,-0.15718817710876465
1700516054657229800,12.206229736328124,0.06343995779752731,-0.4416140615940094,-0.32899272441864014
1700516054667240000,12.216239990234374,0.055955518037080765,0.47463566064834595,0.13872921466827393
1700516054677248800,12.226248779296874,0.048974573612213135,0.20500551164150238,-0.20580554008483887
