time,seconds_elapsed,z,y,x
1700516968599620000,0.0576201171875,2.094704334318638,0.9458557131689042,-0.4093667636368423
1700516968609629000,0.06762890625,0.6701029085993766,-2.3109935078546404,0.5167893197406083
1700516968619639000,0.07763916015625,-2.082209594404697,0.4079750900827348,-0.4603756143296137
1700516968629648000,0.08764794921875,-0.7672790882378816,0.5922147092115133,0.47295602323301134
1700516968639658000,0.097657958984375,0.4895353290468454,0.7893382137022912,-0.7001832087602466
1700516968649667000,0.1076669921875,0.1293167002648115,-0.9612194326478988,0.5674008051462471
1700516968659677000,0.117677001953125,1.8466455192953346,-0.6798734111811965,-0.2040003314577043
1700516968669686000,0.12768603515625,-1.14386432993114,0.20185389401353895,-0.6438949928924441
1700516968679696100,0.137696044921875,-1.105993156698346,0.9112414228402078,0.6886717077299952
1700516968689706000,0.1477060546875,2.269665764427185,-0.189205790168792,-0.3955970718836412
1700516968699714800,0.15771484375,0.25397943724393846,-2.153135334368795,-0.015311697030812501
1700516968709725000,0.167724853515625,-1.6315829649448395,0.2476893241237849,-0.09036891077645122
1700516968719734000,0.177734130859375,0.012464344775676726,0.548667901495099,0.15815003257188945
1700516968729744000,0.187743896484375,-0.005557634127140045,0.2051149416361004,-0.4781494636902585
1700516968739756300,0.19775634765625,1.0163643236994744,-1.4449895492315292,0.6949993033163249
1700516968749766400,0.207766357421875,1.7030080327332018,0.030615356885641813,-0.7078980939865112
1700516968759775500,0.217775390625,-2.3068413566112516,0.2623085088457912,0.06356310224160551
1700516968769785300,0.227785400390625,0.10363514651954174,1.3697142357558012,0.3188466078214347
1700516968779794400,0.23779443359375,1.9704045854330061,-0.8590000712104141,-0.03932144510634243
1700516968789804500,0.247804443359375,-0.6186854405730963,-0.6184921099580823,-0.4764052503714338
1700516968799813400,0.2578134765625,-2.359689734223485,0.5544133863445371,0.616917846378684
1700516968809823200,0.2678232421875,0.5410889906734228,1.1229580277636646,-0.24552410891391335
1700516968819832300,0.277832275390625,-0.47340720106661316,-0.25814408264271915,0.054864649338088926
1700516968829842400,0.287842529296875,1.4998030894368886,-0.46430816800557073,0.5901352725889534
1700516968839851300,0.297851318359375,-0.49739656394124027,0.22083923805579542,-0.7294106184188276
1700516968849861400,0.307861328125,-2.061620395362377,0.582326206273213,0.6674684684425592
1700516968859870500,0.317870361328125,1.2135083595216274,1.4393620647385716,-0.3885975683851167
1700516968869880300,0.32788037109375,1.4049234963029622,-1.6900610190071164,0.3781458786061033
1700516968879889400,0.337889404296875,-1.4645423909634352,-0.16301555624902248,-0.4942691526357084
1700516968889899500,0.3478994140625,-1.433165840446949,0.07648468926548957,0.4896297293320298
1700516968899908400,0.357908447265625,1.4693471608966588,0.8312387885816395,-0.5599751851901412
1700516968909918200,0.367918212890625,-0.5769874025285243,-0.8863670938245951,0.18729907976463436
1700516968919927300,0.37792724609375,1.99906252464056,-0.6556885257344692,0.33213600524440406
1700516968929937400,0.3879375,-0.5789490579903125,-0.13641425731033086,-0.7472282338559627
1700516968939947300,0.397947265625,-1.4422902271449565,0.37173940909728403,0.4925621660547331
1700516968949956400,0.407956298828125,1.8748393481224774,0.9310309959374368,-0.3482507988190278
1700516968959966500,0.417966552734375,1.197326455527544,-2.2043583027362823,0.20771701389327643
1700516968969975600,0.4279755859375,-1.724004059010744,0.06840674288049339,-0.4409905669126659
1700516968979985400,0.4379853515625,-0.9735258834481239,0.2485388536252081,0.5089675400737673
1700516968989994200,0.447994140625,0.9563239887565373,0.7706251837953925,-0.34045725886598227
1700516969000004400,0.45800439453125,-0.4791963058620691,-0.9218291600890457,0.288969136756286
1700516969010013400,0.468013427734375,1.7797130867511033,-0.04401077196635306,0.11143328958246856
1700516969020023300,0.478023193359375,-1.2864859174489973,-0.2324601908098906,-0.4298992275232449
1700516969030032400,0.488032470703125,-1.2531623245179653,1.1116779974017292,0.32466808051653206
1700516969040042500,0.49804248046875,1.6768027473747729,0.606515840960294,-0.2216068248948082
1700516969050051300,0.50805126953125,0.9140256467312574,-1.7914207679405807,0.05907784658633172
1700516969060061400,0.5180615234375,-1.897190296140313,0.26328568331487473,-0.30942616078630086
1700516969070070500,0.528070556640625,-0.4199105886787176,0.20200418920442462,0.2628991682153195
1700516969080080400,0.538080322265625,1.0999918704569338,0.6603412469111383,-0.4506488047590479
1700516969090089200,0.548089111328125,-0.6117167706042528,-0.9756023243959993,0.5122004210477694
1700516969100099300,0.558099365234375,1.9378554840058086,-0.026821225299686193,-0.12807612561918794
1700516969110108400,0.5681083984375,-1.6120201863408088,-0.2317768116556108,-0.2356856191297993
1700516969120118300,0.5781181640625,-0.7309633277535438,1.1033058903757482,0.15279394889883696
1700516969130127400,0.58812744140625,1.888960227933526,0.28298896636813875,-0.17894070900306105
1700516969140137500,0.598137451171875,0.49840895585417744,-1.7811342055954038,0.2780224665345624
1700516969150147300,0.608147216796875,-2.0908628564596174,0.27283421370908617,-0.25542306018099187
1700516969160156400,0.618156494140625,0.10845043784677982,0.5080481602065264,0.15756459736675024
1700516969170166500,0.62816650390625,0.6821265238702297,0.40163675390668213,-0.3365491820441559
1700516969180175400,0.63817529296875,-0.40118601446449753,-0.9375375282872468,0.626362258811295
1700516969190185200,0.648185302734375,1.8796581465810536,0.056306701372563835,-0.34949261557366695
1700516969200194300,0.6581943359375,-2.0023551364451646,-0.33011355950608845,0.03263301685098558
1700516969210204400,0.668204345703125,-0.30354923157691954,1.286341978933662,0.049217473763972515
1700516969220213500,0.678213623046875,1.6932897717952726,-0.04369761436395347,0.0006944120049476623
1700516969230223400,0.688223388671875,0.34989480316638943,-1.4879188826367258,0.06025675417259335
1700516969240232400,0.698232421875,-2.2807354399740696,0.23662995077520607,0.06323653716836124
1700516969250242600,0.70824267578125,0.08141513140499591,0.6080476536374538,0.15375647378806023
1700516969260251400,0.71825146484375,0.6823936503738165,0.2440296325724572,-0.3475708537308499
1700516969270261200,0.72826123046875,-0.21363748998343943,-0.9665428926929831,0.5715402430385351
1700516969280270300,0.738270263671875,1.8081261112868785,0.09103621557876466,-0.3561445112109184
1700516969290280400,0.748280517578125,-2.005017633652687,-0.4442786486726254,0.000865275059826672
1700516969300289300,0.758289306640625,-0.08201426634192466,1.4455992055624722,-0.06893259338550269
1700516969310299400,0.76829931640625,1.6761749708652496,-0.2378817044019699,0.011451806732267141
1700516969320309500,0.7783095703125,0.3863046716749668,-1.5124197021648287,-0.0620176994305104
1700516969330318300,0.788318359375,-1.9809768328517674,0.3866356571950018,-0.01796688771471381
1700516969340328400,0.798328369140625,-0.026440263158082962,0.4768823298312723,0.08917071396782994
1700516969350337500,0.808337646484375,0.6033709670633077,0.27550058337412775,-0.34413149039931595
1700516969360347400,0.818347412109375,-0.03609247312247753,-0.7544818582460284,0.6318154096506535
1700516969370356200,0.828356201171875,1.7933493979156017,-0.10231010846085846,-0.3184058052513748
1700516969380366300,0.838366455078125,-1.9537509722739457,-0.27408662492297586,-0.08564436647258698
1700516969390375400,0.84837548828125,-0.3809323309868574,1.4119398048058152,0.08133293301425874
1700516969400385300,0.85838525390625,1.753230738016963,-0.08588811210058629,0.08644424814600497
1700516969410394400,0.868394287109375,0.1854442456781864,-1.593671751962602,-0.15646507515963165
1700516969420404500,0.878404541015625,-1.9585949051737783,0.2723983795750886,0.002545665894821286
1700516969430413600,0.88841357421875,-0.16310849522948265,0.6398818117283285,0.04640621573552489
1700516969440423400,0.89842333984375,0.48348903461992737,-0.06741371325515211,-0.2570018903376534
1700516969450432300,0.908432373046875,0.2422293782174587,-0.5336074027463793,0.3434684964459389
1700516969460442400,0.9184423828125,1.9285487264782188,-0.17092596404738722,-0.14216069200783968
1700516969470452200,0.9284521484375,-2.1691870361119507,-0.20391046121716497,-0.17587580500710753
1700516969480461300,0.93846142578125,-0.3998544735997915,1.3861943920440971,0.12323847632966935
1700516969490471400,0.948471435546875,2.10644971717,-0.16914346454478799,0.019888868753239513
1700516969500480500,0.95848046875,0.4052402582913637,-1.6146310994915662,0.039647242994606494
1700516969510490400,0.968490478515625,-2.2533441597014665,0.30112689980082213,0.07692085219305009
1700516969520499500,0.97849951171875,-0.012217092016339302,0.6890539850458502,0.015297230114042758
1700516969530509600,0.988509521484375,0.3506032436966896,-0.1692846265811473,-0.11990250030737369
1700516969540518400,0.998518310546875,0.7880646866351365,-0.574371374811232,0.38976431060954925
1700516969550528300,1.0085283203125,1.6030349158525465,-0.07827537207454442,-0.2215965957617387
1700516969560537300,1.018537353515625,-2.693085238009691,-0.29431619687266647,0.03755739457588642
1700516969570547500,1.02854736328125,0.05689093100130558,1.5556196692049502,-0.0545883531473577
1700516969580556300,1.038556396484375,2.198515421926975,-0.37488194490671156,0.09526347788497805
1700516969590566400,1.04856640625,-0.023199673801660537,-1.6095646098822354,-0.056863714200817046
1700516969600576500,1.058576416015625,-2.6991718644469973,0.36536643999926743,0.08102138284705579
1700516969610585300,1.06858544921875,0.5460919135272503,0.8116372854024171,-0.21177816238496452
1700516969620595500,1.078595458984375,0.03583119183778763,-0.3090508977331221,-0.026969620794430372
1700516969630604500,1.0886044921875,0.9348463164418935,-0.4877255031459033,0.2963241756942123
1700516969640614100,1.0986142578125,1.1610077724337577,-0.006693652419745922,-0.25001137386318295
1700516969650623200,1.108623291015625,-2.467364511522651,-0.1797518792554736,0.07439582722745836
1700516969660633300,1.11863330078125,0.5962520749688148,1.6855172380976378,-0.1482818052366376
1700516969670642400,1.128642333984375,2.344416761767864,-0.7013882737010717,0.17819295937567947
1700516969680652300,1.13865234375,-0.5503080699175595,-1.294305797419697,-0.11107855786066502
1700516969690661400,1.148661376953125,-2.3662626828730104,0.4485267345711589,0.11251191513203083
1700516969700671500,1.15867138671875,1.0911416245251893,0.8877214310429989,-0.29942451632972805
1700516969710680600,1.1686806640625,-0.3477648054003715,-0.4607135775797069,0.01985306678749621
1700516969720690400,1.1786904296875,1.3187614626318216,-0.5351495906870812,0.2592532494610175
1700516969730700500,1.188700439453125,0.44770518905520434,0.05043576351255178,-0.4854508727448061
1700516969740706600,1.19870654296875,-2.1758435713917015,0.033549510641396045,0.09700184598490595
1700516969750716700,1.208716552734375,0.7407651753216982,1.6168245178826153,-0.16523962550666182
1700516969760725800,1.218725830078125,2.070183056524396,-1.1997454263027756,0.278125963441655
1700516969770735600,1.228735595703125,-1.2589315555691718,-0.6949336907342076,-0.396954879700765
1700516969780744400,1.238744384765625,-2.2660300382733345,0.192746020058915,0.2731477001050487
1700516969790754600,1.248754638671875,1.4325374794155359,0.8400416882403194,-0.23169278663396833
1700516969800763600,1.258763671875,-0.5548533121317625,-0.7325798961047083,0.11587415810674428
1700516969810773500,1.2687734375,1.723050703808665,-0.5639075562030077,0.43029524110350753
1700516969820783600,1.27878369140625,-0.2597235338538885,-0.14615896786376834,-0.4743363351428881
1700516969830792700,1.288792724609375,-2.0287410390675067,0.3187965581346303,0.3153231464030221
1700516969840802600,1.298802490234375,1.399341896778345,1.4678694895595312,-0.11125497387349605
1700516969850811600,1.308811767578125,1.950919548240304,-1.6817320204705,0.407126072037965
1700516969860821800,1.31882177734375,-2.08955294290483,-0.38317397243380547,-0.284591579259187
1700516969870830600,1.32883056640625,-1.4013678496479987,0.605458440861851,0.22045111552104352
1700516969880840400,1.33884033203125,1.1443243486583232,0.6058863839503378,-0.2598410592863336
1700516969890849500,1.348849609375,-0.2321650803208351,-0.683153528830409,0.1983059922736138
1700516969900859600,1.358859619140625,1.7924100712388753,-0.18655388742052018,0.16526676924191414
1700516969910869500,1.368869384765625,-1.0109814616173505,-0.19273264912068844,-0.39190344153009354
1700516969920878600,1.378878662109375,-1.1641600989848375,0.7395433053765446,0.2160764441007748
1700516969930888700,1.388888671875,1.6958663442850113,1.083191176977381,-0.19330387313738465
1700516969940897800,1.398897705078125,1.4546931971222161,-1.7548846427038312,0.379056892503798
1700516969950907600,1.40890771484375,-2.130861104848981,-0.06952098773270846,-0.3047007396996021
1700516969960916700,1.418916748046875,-0.6977449487626552,0.5821960040222853,0.041699791610240934
1700516969970926600,1.428926513671875,0.9483698148816824,0.4692711241751909,-0.2251043116217479
1700516969980935700,1.438935791015625,-0.19621289245188234,-0.7182170242313295,0.1770401360787451
1700516969990945500,1.448945556640625,1.8623720807373523,-0.1345729402925819,-0.05075757934544235
1700516970000955600,1.45895556640625,-1.8100825060516594,-0.23971359600424766,-0.3087599884951487
1700516970010964700,1.46896484375,-0.7229705754339695,1.1452026658628136,0.034520620695874096
1700516970020974600,1.478974609375,2.026270849561691,0.6047003159709274,-0.09805453337561339
1700516970030983700,1.488983642578125,0.6887842281937598,-2.031865162437409,0.3284748523883521
1700516970040993800,1.498993896484375,-2.688751008197665,0.3492906997933984,-0.2908431869998574
1700516970051002600,1.509002685546875,0.20143325744867324,0.7164457767751068,-0.04385170894712209
1700516970061012700,1.5190126953125,0.39859307536184785,0.15031981387026608,-0.07232939621694386
1700516970071021600,1.529021484375,0.3032598932415247,-0.9703945266198366,0.31845468589439985
1700516970081031700,1.53903173828125,1.5836375569432972,-0.04233925855755806,-0.20731482630055398
1700516970091041500,1.54904150390625,-2.0725404333055018,-0.20835333903543649,-0.12049991821125149
1700516970101050600,1.559050537109375,-0.130005851572752,1.3265943482145666,0.06139927527122199
1700516970111060700,1.569060791015625,2.4298972429156303,-0.42698184223920105,0.03983776059802621
1700516970121069600,1.579069580078125,0.12100713708102702,-1.4985370150238275,0.13239289283975958
1700516970131079700,1.58907958984375,-2.845092493510246,0.28840295424088835,-0.13762312164343893
1700516970141088800,1.5990888671875,0.8218617422968149,0.690309538064897,-0.10634652437008917
1700516970151098600,1.6090986328125,0.16537877824902533,-0.20760003645010291,0.026722623763419686
1700516970161108700,1.619108642578125,0.8387357202082872,-0.826841649601236,0.35090061920806764
1700516970171117600,1.62911767578125,0.47714931020438667,0.10751359538808464,-0.3897342077322304
1700516970181127400,1.63912744140625,-1.9932441937506198,-0.08093275471553206,0.10394026694595813
1700516970191136500,1.649136474609375,0.7508709742724895,1.5453247774228454,-0.1682259478410706
1700516970201146600,1.659146728515625,2.1633687052220103,-0.9179624016582966,0.24590477879457173
1700516970211155700,1.66915576171875,-0.930499811670184,-0.890819104797393,-0.1601802232252434
1700516970221165600,1.67916552734375,-2.2356191179186102,0.4204440379682928,0.044327875091508026
1700516970231175700,1.68917578125,1.3919669840961695,0.8305202650487422,-0.1960222652506083
1700516970241184800,1.699184814453125,-0.33138533300757406,-0.4145435817528516,0.12723967479504644
1700516970251194600,1.709194580078125,1.3052584224581718,-0.4270808456342667,0.30328119175788015
1700516970261203500,1.719203369140625,-0.1778542289406061,0.009570230769366025,-0.4208672318164259
1700516970271213600,1.729213623046875,-1.7153268315583468,0.22307255006581544,0.21685236037671565
1700516970281223400,1.739223388671875,1.1474889501690864,1.4928691985204814,-0.23032069456316528
1700516970291232500,1.749232421875,1.8030518767625092,-1.3706241902075706,0.41168154338523744
1700516970301242600,1.75924267578125,-1.7021838568687437,-0.4543380511984229,-0.3414371367488056
1700516970311251700,1.769251708984375,-1.652809292846918,0.3206782071627676,0.15500059209764003
1700516970321261600,1.779261474609375,1.6174515637397766,0.8011994780182838,-0.24938538745194672
1700516970331270700,1.789270751953125,-0.6548977406829595,-0.788703569060564,0.2041352829489857
1700516970341280800,1.79928076171875,1.7103963894188403,-0.38523908827006814,0.16077048073597253
1700516970351290600,1.80929052734375,-0.7579799294948577,-0.12130736213661729,-0.3712997025057673
1700516970361299700,1.8192998046875,-1.305394031536579,0.39743338393270966,0.21965733479484914
1700516970371309800,1.829309814453125,1.3103303188949822,1.1823291582081465,-0.19548231315501033
1700516970381318700,1.839318603515625,1.7774708607822656,-1.6364654762893913,0.37030009700916705
1700516970391328500,1.84932861328125,-2.1976795556247235,-0.16226612612120805,-0.3544890721540898
1700516970401338600,1.859338623046875,-1.174496784082055,0.2920430643089115,0.12598203941676764
1700516970411347700,1.86934765625,1.5182599526256322,0.7702011131644249,-0.2851263802556321
1700516970421357600,1.879357666015625,-0.5235533339828252,-0.8205657842021435,0.20199494645204394
1700516970431366700,1.88936669921875,1.7869547284424303,-0.1571748673968017,0.01940503075905144
1700516970441376800,1.899376708984375,-1.1907096677362918,-0.18296872241012752,-0.34127401860896495
1700516970451386600,1.90938671875,-1.0211942280739545,0.7269526308074593,0.14513981741648166
1700516970461395700,1.919395751953125,1.5460177281230687,1.0211940088782459,-0.18367098892796785
1700516970471405800,1.92940576171875,1.4139981986403465,-1.7280559647500513,0.3772578071925789
1700516970481414700,1.93941455078125,-2.5230226858586073,0.04480521027967334,-0.3820740483678877
1700516970491424500,1.949424560546875,-0.5443260728985071,0.3911748349945992,0.14173453901764005
1700516970501434600,1.9594345703125,1.2630150254905224,0.6770442521698773,-0.24815284998230636
1700516970511443700,1.969443603515625,-0.4469675224304199,-0.8892343198239803,0.32292079845778643
1700516970521453600,1.97945361328125,1.6996686591774224,-0.013736410538107155,-0.09909922012295573
1700516970531462700,1.989462646484375,-1.4405389995634554,-0.2152143108461052,-0.1891220574080944
1700516970541472800,1.99947265625,-0.7135001517772674,0.9119928257293999,0.14314754762072116
1700516970551482600,2.009482666015625,1.5858809519559145,0.628932766886428,-0.1283229765197262
1700516970561491700,2.01949169921875,1.193337093630433,-1.6322462511591613,0.3848698530988767
1700516970571501800,2.029501708984375,-2.7238240751445293,0.09545907352231442,-0.32925054946858434
1700516970581510700,2.0395107421875,-0.1835708530217409,0.42257841964848336,0.10814513475727289
1700516970591520500,2.0495205078125,1.1739718834251165,0.3902791282638907,-0.1343447575598955
1700516970601530600,2.059530517578125,-0.3384820132702589,-0.7977728645704686,0.28342085497938097
1700516970611539700,2.069539794921875,1.7899305293828247,-0.013065160213038324,-0.16821897011101244
1700516970621549600,2.079549560546875,-1.8141203832656143,-0.3245977917592972,-0.13895301854033024
1700516970631559700,2.0895595703125,-0.4144330340504646,1.1009213333267718,0.09676960813160985
1700516970641568800,2.09956884765625,1.9822218644768,0.30518486995473504,-0.09276545052416622
1700516970651578600,2.10957861328125,0.7473439691901207,-1.6765873510584235,0.28423600728716697
1700516970661587700,2.119587646484375,-2.9602538271725174,0.18745741213150321,-0.24222440978139637
1700516970671597800,2.129597900390625,0.34435236660838126,0.5342493539117277,0.03476363567151129
1700516970681607700,2.139607666015625,0.8212117539554834,0.19879414111673832,-0.10593312126360833
1700516970691616500,2.149616455078125,0.02686637961566448,-0.8293507828779518,0.29472609284780915
1700516970701626600,2.159626708984375,1.609149599340558,0.04272986531034112,-0.27523031506538387
1700516970711636500,2.169636474609375,-2.0754227107435463,-0.21801029824018478,-0.036436866113357246
1700516970721645600,2.1796455078125,-0.15965747799277305,1.3691560173511503,0.013852511198446153
1700516970731655700,2.18965576171875,2.188058909842372,-0.07394903330802917,0.02125226606093347
1700516970741664000,2.1996640625,0.1949257752507925,-1.5045792177975177,0.09800243786219506
1700516970751673900,2.209673828125,-3.0088018772423264,0.3618422113958746,-0.11994666824266313
1700516970761684000,2.21968408203125,0.8545546361088753,0.6887853972375393,-0.066700085093081
1700516970771693000,2.229693115234375,0.39606560271084307,0.0009149228878319263,-0.036646344145573675
1700516970781703000,2.239702880859375,0.5044114111393689,-0.8005817845113575,0.3221171173920855
1700516970791713000,2.249713134765625,0.960039794409275,0.13836100746393204,-0.39424711857940997
1700516970801722000,2.25972216796875,-2.0186405008137225,-0.090156729330495,0.11378405395969748
1700516970811732000,2.26973193359375,0.38709552979171274,1.4982354017287491,-0.10181538374647497
1700516970821742000,2.2797421875,2.081266176074743,-0.6417428563598543,0.14512673873919993
1700516970831751200,2.289751220703125,-0.4491629866480827,-1.0824369245439767,-0.12750702049434184
1700516970841761000,2.299760986328125,-2.7106846075862645,0.28221571697331965,0.054040619604103265
1700516970851769900,2.309769775390625,1.3613766155213116,0.7141876956500113,-0.1884342212744057
1700516970861780000,2.319780029296875,0.03641746729314327,-0.310312734362483,0.054320642121881244
1700516970871789800,2.329789794921875,0.8700351138353347,-0.7373879539735615,0.29279731674231585
1700516970881799000,2.339798828125,0.2968926962971687,0.07778225479535758,-0.4260789385827258
1700516970891809000,2.34980908203125,-1.687947826245427,-0.07848938015140593,0.18195234844181685
1700516970901819000,2.35981884765625,0.7377379364550113,1.4009664292402564,-0.16770780571848154
1700516970911828000,2.369827880859375,1.8929992741912602,-1.0541416811689734,0.2754181657876819
1700516970921838000,2.379838134765625,-0.9610404958844184,-0.7481613499876111,-0.2495547161368653
1700516970931848000,2.389847900390625,-2.3356430882036685,0.20397716977782546,0.204156873726286
1700516970941857000,2.39985693359375,1.541233416455984,0.7570660295203328,-0.20394312137775122
1700516970951867100,2.4098671875,-0.1881283701956272,-0.4576058208227157,0.1306526981089264
1700516970961877000,2.419876953125,1.0879255850881338,-0.4526855347510427,0.27256065746471286
1700516970971885800,2.4298857421875,-0.06015197862386703,0.04535480698645115,-0.3548185233041644
1700516970981896000,2.43989599609375,-1.572897551742196,0.18616203855872154,0.1694406939256936
1700516970991906000,2.449906005859375,0.9254460354119539,1.5064625473260878,-0.17296137886513024
1700516971001915000,2.459914794921875,1.8497282877415417,-1.159648612909764,0.37559159101340917
1700516971011925000,2.469925048828125,-1.3758248275905847,-0.5291770190834999,-0.40010928861107675
1700516971021935000,2.47993505859375,-1.8666162941783666,0.35295506751984357,0.2244017163103446
1700516971031944000,2.48994384765625,1.5030284812241792,0.8614802706535906,-0.3535391510181129
1700516971041954000,2.4999541015625,-0.4929506904482841,-0.5855780476760118,0.18027553780339658
1700516971051964200,2.509964111328125,1.4689479324460029,-0.27556298108585175,0.12000807957369833
1700516971061973000,2.519972900390625,-0.3356932593345642,-0.03683072426915168,-0.38144963285923
1700516971071983000,2.529983154296875,-1.610180695953965,0.1865210811294615,0.20283859420195222
1700516971081993200,2.5399931640625,1.0094926843643188,1.3959168907657264,-0.27628172381445765
1700516971092001800,2.550001708984375,1.6665297751635313,-1.3119735560573638,0.36973223399333655
1700516971102012000,2.560011962890625,-1.3548860844582318,-0.5766505717895924,-0.5120283889491111
1700516971112022000,2.57002197265625,-1.7368471739709377,0.24688019969798622,0.22265761258937417
1700516971122030800,2.58003076171875,1.4819108743935823,0.711473249059543,-0.4096822227941826
1700516971132041000,2.590041015625,-0.31758769380152224,-0.7300650637395679,0.1438647925119847
1700516971142051000,2.600051025390625,1.3166852408796548,-0.2130351401761174,0.20004381238427013
1700516971152060000,2.610059814453125,0.15067863724529743,-0.33548853054270145,-0.457537979750894
1700516971162070000,2.620070068359375,-1.86213359580636,0.18606091627180577,0.27979579635001717
1700516971172080000,2.630080078125,1.203986497938633,1.4869206653796136,-0.2862511830344796
1700516971182089200,2.640089111328125,1.6755425181806087,-1.4610764684185384,0.4115650773987174
1700516971192099000,2.65009912109375,-1.6561749698877333,-0.525464574431628,-0.49617593610510224
1700516971202109200,2.660109130859375,-1.4126286638528107,0.37241489720605314,0.4375433856008574
1700516971212119000,2.670119140625,1.2399410238951445,0.6856603240195661,-0.456861468728818
1700516971222127900,2.6801279296875,-0.5286480267733336,-0.5260997305300087,0.2979987578429282
1700516971232138000,2.690137939453125,1.5451812772989273,-0.18005992229133844,0.2516791244123131
1700516971242147800,2.70014794921875,-0.18074059803187847,-0.09791998374313116,-0.42870851990133524
1700516971252157000,2.710156982421875,-1.7191963664680718,0.26899149374105036,0.31973325446285306
1700516971262167000,2.7201669921875,1.1394605420142412,1.5275617417171596,-0.23901213320400563
1700516971272177000,2.730177001953125,1.6700415826767683,-1.3880463035210966,0.3999142774956301
1700516971282186000,2.74018603515625,-1.7173621367782352,-0.32622283567786214,-0.4784956102468073
1700516971292196000,2.750196044921875,-1.3900854081332683,0.4454797680906951,0.4570862904606387
1700516971302206000,2.7602060546875,1.3893459879428147,0.7932741649117321,-0.5628082166589796
1700516971312216000,2.770216064453125,-0.5984837795436382,-0.6933175607744604,0.3796976380927488
1700516971322225200,2.78022509765625,1.7383002953886986,-0.06356668243817985,0.026916502367705104
1700516971332235000,2.790235107421875,-0.6275929696500301,-0.06328815775774418,-0.3477593620402738
1700516971342245000,2.8002451171875,-1.4140712638765573,0.2921346881151199,0.19853870505094526
1700516971352254000,2.81025390625,1.1389192747443915,1.187711508833617,-0.2651345260519534
1700516971362263800,2.820263916015625,1.9256933370470999,-1.4875482957586645,0.2684151916904375
1700516971372274000,2.83027392578125,-2.0050953750640153,-0.2878589835572988,-0.4079670894393697
1700516971382284000,2.840283935546875,-1.4877368040680885,0.1620779831379652,0.2301808477010578
1700516971392292900,2.85029296875,1.7151906379580497,0.6689467243015765,-0.542765764779225
1700516971402303000,2.860302978515625,-0.6720031892627477,-0.896495250737667,0.3375828359408304
1700516971412313000,2.87031298828125,1.6719009468078612,-0.09148322869390249,0.009931757558137178
1700516971422322000,2.880322021484375,-0.7485837401181459,-0.2986686929937452,-0.33013781716451046
1700516971432332000,2.89033203125,-1.5220698663026093,0.3526885255381465,0.23049184987898916
1700516971442342100,2.900342041015625,1.3626450280219315,1.1594035521075128,-0.2458235667845234
1700516971452352000,2.91035205078125,1.6811211950957774,-1.3916846600234507,0.3521749865254387
1700516971462361000,2.920361083984375,-2.3130875575244425,-0.22252024994529782,-0.4326825015662238
1700516971472371200,2.93037109375,-1.1973983517199753,0.3774558870479464,0.42536892714984714
1700516971482381000,2.940381103515625,1.6650146944254636,0.7224466246251017,-0.5219213853994384
1700516971492390000,2.950389892578125,-0.6211205587655305,-0.6407130018554628,0.34373193315509704
1700516971502400000,2.96039990234375,1.5674755266934632,0.23465543583184478,0.1192038139861077
1700516971512409900,2.970409912109375,-0.7387935829877853,-0.20587270120084283,-0.2600739181941375
1700516971522420000,2.980419921875,-1.172042376667261,0.43230968619845805,0.23690365315005182
1700516971532429000,2.990428955078125,1.4494734166473149,1.3110098255917428,-0.21833437909539788
1700516971542439000,3.00043896484375,1.4235527934491634,-1.3936886933222412,0.40130262658149
1700516971552449000,3.010448974609375,-2.05930218154788,-0.2694441328793764,-0.4417058755751699
1700516971562459000,3.020458984375,-0.9518325225561857,0.355975584384799,0.4303096714876592
1700516971572468000,3.030468017578125,1.4572779529184101,0.6045739861775189,-0.5231371178647503
1700516971582478000,3.04047802734375,-0.6507698470979929,-0.7496287191264331,0.3208831186177209
1700516971592488000,3.050488037109375,1.7520570180624722,0.014182839131355285,0.09758633134197443
1700516971602498000,3.060498046875,-0.74990008341372,-0.43920090701691805,-0.3918652649441734
1700516971612507100,3.070507080078125,-1.3551613942682743,0.34039434969760474,0.24352635922543703
1700516971622517000,3.08051708984375,1.5929396382957697,1.2113832571264356,-0.28812822895273565
1700516971632527000,3.090527099609375,1.2356085476487875,-1.6416054695263504,0.4132598986178636
1700516971642537200,3.100537109375,-2.012365658327937,-0.39002887982986867,-0.549328484295681
1700516971652546000,3.110546142578125,-1.1046195302575825,0.4668599713802337,0.3972298607172444
1700516971662556000,3.120555908203125,1.1483061117708682,0.5763455244284122,-0.5053180776555091
1700516971672566000,3.13056591796875,-0.3696037122428417,-0.7215458033278584,0.3216723327666521
1700516971682576000,3.140575927734375,1.7642898921698331,-0.152969670791924,0.1263159840788692
1700516971692585000,3.1505849609375,-0.6517272939532995,-0.20836334897279737,-0.4114226367207244
1700516971702595000,3.160594970703125,-1.6196037733376025,0.6032454409874975,0.31868608349747957
1700516971712605000,3.17060498046875,1.4836001426547765,1.3967258690610527,-0.27076434863246973
1700516971722615000,3.180614990234375,1.4517904614180326,-1.7450012543320654,0.5160221347603947
1700516971732625000,3.190625,-1.6876391986876724,-0.23963205520063638,-0.5793935868874192
1700516971742633700,3.2006337890625,-1.2096698042720555,0.6294130977492779,0.42481388708297163
1700516971752643800,3.210643798828125,0.7421335410654545,0.7210160803653299,-0.3917770752040669
1700516971762654000,3.220654052734375,-0.22086393410563468,-0.5810011682145297,0.2608921757744625
1700516971772663800,3.230663818359375,2.3471932407438754,-0.030117782627046105,0.0890408405104652
1700516971782673000,3.2406728515625,-1.1708248175710438,-0.46407852396816013,-0.3800655946223065
1700516971792683000,3.25068310546875,-1.5918261240959166,0.9654689067859202,0.2921088960867375
1700516971802692900,3.26069287109375,1.8795880039542912,1.0582749085161833,-0.24716303522735833
1700516971812703000,3.270702880859375,1.4707108504652977,-1.9226634678319094,0.364333151428774
1700516971822712800,3.280712890625,-2.4650784464120865,-0.06409991253204643,-0.3863281621484086
1700516971832721700,3.2907216796875,-0.6686223146528005,0.6561104044083506,0.24742157656569033
1700516971842731800,3.300731689453125,0.8331348314613103,0.3874200855709612,-0.32819596238173543
1700516971852741600,3.31074169921875,0.13139292201697825,-0.9395455071087926,0.32557708512023087
1700516971862751700,3.320751708984375,2.0481097564041613,0.07935819887518883,-0.12556231616735458
1700516971872760800,3.3307607421875,-2.0865303802132606,-0.41897528058998285,-0.13851422526426613
1700516971882770700,3.340770751953125,-0.6309937180042267,1.2133115948405115,0.05664678351450711
1700516971892780800,3.35078076171875,2.2192963441491127,0.4111844805832952,-0.04933916391488164
1700516971902791000,3.360791015625,0.6548977406829595,-1.8447914158612488,0.19525825860816984
1700516971912800800,3.37080078125,-2.8965076234489677,0.17654124664589763,-0.15172547941710798
1700516971922809900,3.380809814453125,0.24857202524244784,0.8050491391837596,0.026595892111212015
1700516971932820000,3.390820068359375,0.5677221460551023,0.16224720222502945,-0.19947890851050615
1700516971942829800,3.400829833984375,0.4603472284853458,-0.9430410210743546,0.41655251042246816
1700516971952840000,3.41083984375,1.3480869258373975,0.13148454582318664,-0.32224063417389986
1700516971962849800,3.420849853515625,-2.077231805992126,-0.24951047513633964,0.016605938092432916
1700516971972859000,3.43085888671875,0.09820552268624305,1.6089958700835705,-0.11776194461472332
1700516971982869000,3.440868896484375,2.072194980868697,-0.3290606894522905,0.11698387291431427
1700516971992878800,3.45087890625,-0.10217968701422214,-1.424497819214314,-0.02212576095983386
1700516972002889000,3.460888916015625,-2.6342028409302234,0.3388387177534401,-0.010580796051397919
1700516972012898800,3.47089892578125,0.932247532120347,0.8537577135775237,-0.1273346230695024
1700516972022907600,3.48090771484375,0.038619361251592633,-0.25830942927226425,-0.04133157935235649
1700516972032917800,3.490917724609375,0.9429746778398752,-0.6230326029319315,0.3688045246891677
1700516972042927600,3.500927734375,0.6645306614249944,0.04281703213714063,-0.43484000839367504
1700516972052937700,3.510937744140625,-2.0465327163457867,-0.11355287555232643,0.1829355142602697
1700516972062947800,3.52094775390625,0.7224836686998606,1.74533764667958,-0.21627938279435038
1700516972072957000,3.53095703125,1.9084879352241753,-1.0095279018081724,0.2602994340457022
1700516972082966800,3.540966796875,-1.075319201493263,-0.9145949710518121,-0.2063293954597786
1700516972092977000,3.550976806640625,-2.0647674612164497,0.3558146216694265,0.11395283465534448
1700516972102986800,3.56098681640625,1.3926158033937215,0.8612439776796847,-0.26047457141689956
1700516972112996900,3.570996826171875,-0.4544008873015642,-0.5748612772200257,0.10380765354223549
1700516972123006700,3.5810068359375,1.4248229595154522,-0.3457982545677572,0.2935254848863929
1700516972133015800,3.591015869140625,-0.14721125339567662,-0.13555603304579852,-0.43524088081214574
1700516972143026000,3.60102587890625,-1.6172469810783863,0.2608262343987822,0.2534617700453847
1700516972153035800,3.611035888671875,1.1606722568690777,1.4624322669416665,-0.24647399351727217
1700516972163046000,3.6210458984375,1.69708098077178,-1.4164289329186082,0.3494289392203092
1700516972173056000,3.631055908203125,-1.8325369144439696,-0.4723164101552218,-0.3126728510899469
1700516972183065900,3.64106591796875,-1.3703852668851613,0.40440358827151357,0.16352193486858158
1700516972193074700,3.65107470703125,1.5148673875778913,0.7946496179834007,-0.32231896010711786
1700516972203084800,3.661084716796875,-0.6046621759176254,-0.7978194801911711,0.22993768659494815
1700516972213094700,3.6710947265625,1.6582804177343844,-0.10917626790329814,0.12191544756498188
1700516972223104800,3.681104736328125,-0.9248480695188045,-0.294911094025895,-0.3474143114622682
1700516972233114600,3.691114501953125,-0.9848322903603315,0.5697065978705883,0.21411672486774622
1700516972243124700,3.701124755859375,1.3673866695910692,1.1494753016807138,-0.2822239733450115
1700516972253133800,3.7111337890625,1.2383540469646452,-1.5964143286690116,0.4160672841887921
1700516972263143700,3.721143798828125,-2.2793483695298433,-0.16490889571495354,-0.3362788772027939
1700516972273153800,3.73115380859375,-0.5624187789499759,0.41345308310240503,0.14057872004602104
1700516972283164000,3.741163818359375,1.3183213176488875,0.5995482669699936,-0.2911760722160339
1700516972293173800,3.751173828125,-0.6476724656045436,-0.6789066850408911,0.22067520660050213
1700516972303184000,3.761183837890625,1.8634370796203612,0.02314874733202159,0.02366491669323295
1700516972313193000,3.77119287109375,-1.4656979907393455,-0.44029944284334777,-0.2634919464766979
1700516972323202800,3.781202880859375,-0.5715425811260938,0.968921020001173,0.1650835216294974
1700516972333213000,3.791212890625,1.7177070046931504,0.8363424683962016,-0.2245317358981818
1700516972343222800,3.801222900390625,0.7103244443506002,-1.726250230502337,0.39241471552047874
1700516972353233000,3.81123291015625,-2.632294961482286,0.05121010888591408,-0.2810699810042977
1700516972363242800,3.82124267578125,0.28520050493776794,0.5537994191646576,0.06456625140216202
1700516972373252900,3.8312529296875,0.9363263258665799,0.43990649800300596,-0.2448871992498636
1700516972383263000,3.841262939453125,-0.4793406827688217,-0.8749337725970894,0.34337413269337264
1700516972393271800,3.851271728515625,1.5775661280751228,0.1754879382006824,-0.12466434441432356
1700516972403281700,3.86128173828125,-1.5485995613098145,-0.41364487934745847,-0.13411120453234762
1700516972413291800,3.871291748046875,-0.232817991271615,1.1603845990341155,0.05070113645046949
1700516972423301600,3.881301513671875,1.6409826614528893,0.3197226600036025,-0.09723967332877217
1700516972433311700,3.891311767578125,0.4731634554386139,-1.4343205634400247,0.23517993462998418
1700516972443321600,3.901321533203125,-2.7592197981745,0.021593992170691488,-0.14211959281247108
1700516972453331700,3.911331787109375,0.7491279299974442,0.6139877842761576,-0.0090650942588225
1700516972463340800,3.9213408203125,0.6864636762917041,0.18130809572152792,-0.1579586381856352
1700516972473350700,3.9313505859375,-0.21543781740367413,-0.6792853821601719,0.3710416360914707
1700516972483360800,3.94136083984375,1.3331816176503897,0.15939948464371262,-0.2744997357685119
1700516972493371000,3.951370849609375,-1.6994512170344591,-0.4384144328143447,0.005947217966616154
1700516972503380700,3.961380615234375,0.1950081928372383,1.3420659119822085,-0.04025748384743929
1700516972513390800,3.971390869140625,1.659872070840001,-0.03679528762958944,0.01865695233810693
1700516972523400700,3.981400634765625,0.03195756527483463,-1.314649497268349,0.10567611429523675
1700516972533410800,3.991410888671875,-2.6747721672058105,0.08248875198587775,-0.03410049558766186
1700516972543420000,4.001419921875,1.201091945540905,0.6863681069627404,-0.1201766045410186
1700516972553429800,4.0114296875,0.2495411625355482,-0.10222096887268126,-0.04327179016731679
1700516972563439900,4.02143994140625,0.039865561920404434,-0.4924418641433119,0.34153307140395045
1700516972573449700,4.03144970703125,1.2672545627564191,0.08943024168685078,-0.3031614013031125
1700516972583459800,4.0414599609375,-1.9274936644673346,-0.3595687135059386,0.08632654005046933
1700516972593470000,4.051469970703125,0.4472743964225053,1.4848986580327153,-0.12510901944190264
1700516972603479800,4.061479736328125,1.7703256652027368,-0.32741116867959497,0.10366846426725387
1700516972613490000,4.071489990234375,-0.4500432766139507,-1.18566575528495,0.00638275983966887
1700516972623499800,4.081499755859375,-2.543709500056505,0.16932663909196852,0.0362610346224159
1700516972633508900,4.0915087890625,1.511656608837843,0.7613396151863038,-0.19414763048514722
1700516972643519000,4.10151904296875,-0.07236556350886822,-0.2694327347025275,0.006325220966152846
1700516972653528600,4.111528564453125,0.42291912284493444,-0.4234328445207327,0.29529709766879675
1700516972663538700,4.12153857421875,0.8657423850774765,0.05789674704298377,-0.33887685780674215
1700516972673548800,4.131548828125,-1.7711510101109742,-0.2587381760783493,0.12436463081538676
1700516972683558700,4.14155859375,0.5902952123910188,1.4907085133552551,-0.17787271444536745
1700516972693568800,4.15156884765625,1.76483642013669,-0.5899369735378772,0.16685867807585744
1700516972703578600,4.16157861328125,-0.7265998718470335,-0.9863138341549783,-0.10064875111989677
1700516972713588700,4.171588623046875,-2.413640520119667,0.16424232156500218,0.10871135380528867
1700516972723597800,4.181597900390625,1.666929003614187,0.7903051590383052,-0.26801610937025394
1700516972733607700,4.191607666015625,-0.2944043866127729,-0.4668159130427986,0.08710095848906785
1700516972743618800,4.201618896484375,0.7400006206899881,-0.25196977792195974,0.26781759112346915
1700516972753628700,4.211628662109375,0.6116074650108814,-0.06464673275984824,-0.3790064044255763
1700516972763638800,4.221638671875,-1.8780799374789,-0.11242723252326249,0.1922619628690183
1700516972773648600,4.231648681640625,0.8795745110750198,1.537012876151502,-0.24570191316623238
1700516972783658800,4.24165869140625,1.8183616740971802,-0.8900144373510033,0.25118129442539067
1700516972793668900,4.2516689453125,-1.2207289584249257,-0.8242696802213788,-0.21165976016968488
1700516972803678700,4.2616787109375,-2.1127192989587784,0.25566863243989646,0.18562756635583935
1700516972813688800,4.271688720703125,1.7912848666012287,0.8224103160902857,-0.3638875265531242
1700516972823698400,4.281698486328125,-0.5742050783336162,-0.5825125226255506,0.15688384856097398
1700516972833708500,4.29170849609375,1.1443927377194165,-0.1795383826352656,0.20358334815464912
1700516972843717600,4.301717529296875,0.11663900499939918,-0.08962401069328188,-0.36646132256388664
1700516972853727500,4.3117275390625,-1.6624983276903629,0.04656951653845608,0.23989998542182145
1700516972863737600,4.321737548828125,1.0273200174778698,1.4688295667633413,-0.3043983226869255
1700516972873747700,4.331747802734375,1.7395166854411364,-1.1060053585927934,0.31327903682217
1700516972883757600,4.341757568359375,-1.6080419303596019,-0.5905048365537077,-0.28579390425365414
1700516972893767700,4.351767578125,-1.7711814052492378,0.27022468879781664,0.18215061096027493
1700516972903777500,4.361777587890625,1.8523241494536398,0.8167701913114637,-0.3881715249927714
1700516972913787600,4.37178759765625,-0.7738081977456808,-0.7052291670382023,0.21932664153575895
1700516972923797500,4.381797607421875,1.4920856469273567,-0.045408071543648836,0.16195969052053988
1700516972933807600,4.3918076171875,-0.35623043592870235,-0.21294037456475198,-0.3668608798081055
1700516972943817700,4.401817626953125,-1.5645488255918025,0.32079423475787044,0.26702969214878974
1700516972953827600,4.41182763671875,1.389819450673461,1.3471474530301988,-0.3215750829372555
1700516972963837700,4.421837646484375,1.576542045724392,-1.4002258400060235,0.37020229919049885
1700516972973847600,4.43184765625,-2.1153566617250443,-0.3491182658359408,-0.3199319919053465
1700516972983856600,4.441856689453125,-1.231110651707649,0.36642895466424524,0.19083010343499482
1700516972993866800,4.45186669921875,1.7966747429460286,0.7322640350885689,-0.40085853607580063
1700516973003876600,4.461876708984375,-0.7475602422893047,-0.8401110271494835,0.2765088105686009
1700516973013886700,4.47188671875,1.5448475152999162,0.05662497354149818,0.05323825371265411
1700516973023896600,4.481896484375,-0.8388941256403922,-0.16465945099852977,-0.3181864634122699
1700516973033906700,4.49190673828125,-0.9756161337256432,0.41487259451150893,0.23488741795681414
1700516973043916800,4.501916748046875,1.3188304362148047,1.0598960799772292,-0.3060395505553111
1700516973053926700,4.5119267578125,1.359001703083515,-1.3691110091656447,0.4009663072992116
1700516973063936800,4.521936767578125,-2.330242690464854,-0.20400055065341294,-0.3375255893282592
1700516973073946600,4.531946533203125,-0.7958826669096947,0.3137850866481662,0.16525040262900292
1700516973083956700,4.541956787109375,1.6237322514444588,0.6812749485421925,-0.3654700099715963
1700516973093966800,4.551966796875,-0.7502829452514648,-0.8182757735688239,0.30331155036352575
1700516973103976700,4.561976806640625,1.5496587149739265,0.17615984611287713,0.01148293252289295
1700516973113986800,4.57198681640625,-1.0175742840111255,-0.3098899789057672,-0.2678860897824168
1700516973123996700,4.58199658203125,-0.8298059792995452,0.6077906101364642,0.17017204040754585
1700516973134006800,4.5920068359375,1.3953127873927353,0.9270202989913523,-0.2393999634778127
1700516973144016600,4.6020166015625,1.2284732889413832,-1.3718717060506342,0.39103126180544495
1700516973154026800,4.61202685546875,-2.489582773071527,-0.13515190922431647,-0.327147074383311
1700516973164036900,4.622036865234375,-0.5270931985467672,0.3660685969192534,0.16581315107829867
1700516973174046700,4.632046630859375,1.5769629014849662,0.5757528192322701,-0.342136992113851
1700516973184056600,4.642056640625,-0.7991518978387117,-0.7767675590079277,0.31605105881877243
1700516973194065700,4.652065673828125,1.6993617851853369,0.2971053891997784,-0.045084429079852995
1700516973204075500,4.662075439453125,-1.2151175482839345,-0.41673751160055394,-0.2018766903672367
1700516973214085600,4.672085693359375,-0.7633405797451734,0.6583868979729711,0.14940638881977647
1700516973224095500,4.682095458984375,1.514800752082467,0.8659773628771305,-0.2258179032512009
1700516973234105600,4.692105712890625,1.1298644461512566,-1.382176242443919,0.36326778721958397
1700516973244115700,4.70211572265625,-2.503817050129175,-0.1273548256073147,-0.282277895489335
1700516973254125600,4.71212548828125,-0.416547249725461,0.2804653661746532,0.13944277481865136
1700516973264135700,4.7221357421875,1.5524614974349735,0.5012991243377327,-0.33507330080531533
1700516973274145500,4.7321455078125,-0.8786480438798665,-0.6463419476531446,0.27035043406933545
1700516973284155600,4.74215576171875,1.9309400055289268,0.2402317015942186,-0.03170746297128498
1700516973294165500,4.75216552734375,-1.4236328729480505,-0.4956245858326554,-0.21575046354942023
1700516973304175600,4.762175537109375,-0.821887461259961,0.7588695718109607,0.17655549436695872
1700516973314185700,4.772185791015625,1.8283651817172764,0.8839297836750746,-0.26759755516462025
1700516973324195600,4.782195556640625,0.8789473190873861,-1.5721934951260685,0.3959217737933621
1700516973334205700,4.792205810546875,-2.6474638890415427,-0.01975720519758761,-0.3182476190149784
1700516973344215600,4.802215576171875,-0.10572188966572284,0.39200485607795416,0.14586093476526438
1700516973354225700,4.8122255859375,1.368520642057061,0.4392223151311278,-0.34286453920342025
1700516973364235500,4.822235595703125,-0.7686047838836908,-0.6876270209826528,0.27943043363634495
1700516973374245600,4.83224560546875,1.9331389768779277,0.1847393853444606,-0.03783460408207029
1700516973384255700,4.842255859375,-1.5613625967711209,-0.3917615488413721,-0.2284130343109369
1700516973394265600,4.852265625,-0.7020148811668158,0.9016546062622218,0.15180979669969527
1700516973404275700,4.862275634765625,1.883661537003517,0.7263050536189228,-0.24348346993178127
1700516973414285600,4.87228564453125,0.7530915729314088,-1.6246945206053554,0.3482744719555601
1700516973424295700,4.882295654296875,-2.8413790259450673,0.08440423021838069,-0.25627839836869387
1700516973434305800,4.892305908203125,0.20570143628716467,0.5157636299546807,0.12445358774047344
1700516973444315600,4.902315673828125,1.1904717673271894,0.33722397603318094,-0.3029487449331209
1700516973454325800,4.91232568359375,-0.5350345129400491,-0.7827518210493027,0.37931525117903947
1700516973464335600,4.922335693359375,1.7514245653778313,0.20299561139456926,-0.13635492833852766
1700516973474345700,4.932345703125,-1.729481613638997,-0.3464235468592495,-0.11365286532808094
1700516973484355600,4.94235546875,-0.3477180436491966,1.0882358931463212,0.09746844058334826
1700516973494365700,4.95236572265625,1.8671154758721589,0.36627171827591953,-0.1298161376869306
1700516973504375800,4.962375732421875,0.47476972159147257,-1.494342632073909,0.24694705438911912
1700516973514385700,4.9723857421875,-2.9114485874712464,0.14654277954958378,-0.11938465044572949
1700516973524395800,4.982395751953125,0.6442448292434215,0.5943777324642986,0.0005120046427473426
1700516973534405600,4.992405517578125,0.8025432938426732,0.10549772552102804,-0.1838814533408731
1700516973544415700,5.002415771484375,-0.27544541912078857,-0.6145380385700613,0.3924582258686423
1700516973554425600,5.012425537109375,1.762141774225235,0.09751417942121625,-0.2922055248616263
1700516973564435700,5.022435791015625,-2.265885661366582,-0.262118173905462,0.04644201770126819
1700516973574445800,5.03244580078125,0.11479191582798957,1.367136055830866,-0.02846943089812994
1700516973584455700,5.04245556640625,2.106358531755209,-0.0971669003535062,-0.015622078154236078
1700516973594465800,5.0524658203125,-0.07071136656105519,-1.6329978001788257,0.05084047185592353
1700516973604475600,5.0624755859375,-2.709702026289701,0.4164752074025571,0.030545068128407
1700516973614485800,5.07248583984375,0.9621563481718302,0.6529233718700707,-0.11549020029045641
1700516973624495900,5.082495849609375,0.05792027404904365,-0.020507731303945183,-0.13145926525145768
1700516973634505700,5.092505615234375,0.46864627027511596,-0.6175245801001786,0.44148003093004223
1700516973644515800,5.102515869140625,1.5701409465104341,-0.1066978220257908,-0.4682599378386512
1700516973654525700,5.112525634765625,-2.380477086186409,-0.004216448651254177,0.1957587920088321
1700516973664535600,5.12253564453125,0.29792028577923774,1.5662886549964545,-0.08452091540060937
1700516973674545400,5.13254541015625,1.935187726101279,-0.6205773917995393,0.09245853999946266
1700516973684555500,5.142555419921875,-0.06949556103050708,-1.3139492400445043,-0.2494385424112901
1700516973694565600,5.152565673828125,-2.860162636870146,0.5612403828203678,0.2109868658768013
1700516973704575500,5.162575439453125,1.1664508402705192,0.7231640521794557,-0.2210545613069087
1700516973714585600,5.172585693359375,-0.26749884403049945,-0.19695939997024833,-0.15122297325506806
1700516973724595500,5.182595458984375,1.180515021458268,-0.617608532056585,0.5433350890997797
1700516973734605600,5.19260546875,1.1454185736358165,-0.05608326788023114,-0.8078196268104016
1700516973744615200,5.202615234375,-3.082061759242415,0.3466631277687847,0.5172066683698445
1700516973754625000,5.212625,1.4111609293878078,1.6208675096631049,-0.28228805155716835
1700516973764636200,5.22263623046875,1.737342848533392,-1.504903335185349,0.19044289421569555
1700516973774646000,5.23264599609375,-0.8295283314019442,-0.7061332032058387,-0.3844556828074157
1700516973784656100,5.24265625,-2.337404837179184,0.6355323843471705,0.39042043643072244
1700516973794666000,5.252666015625,1.4436299513161182,0.7608763815887272,-0.4255084452183917
1700516973804676000,5.262676025390625,-0.5759142203390598,-0.6086272070910781,0.2132889322740957
1700516973814686000,5.27268603515625,2.2207225775599477,-0.6169644619993865,0.28318105487413703
1700516973824696000,5.282696044921875,-0.4461591286569834,0.11577698134258389,-0.7238741732101887
1700516973834706200,5.2927060546875,-2.4841975729018446,0.7527834568303078,0.6764004013083875
1700516973844716000,5.302716064453125,2.1184481979995966,1.2139376908496022,-0.40058169189579784
1700516973854726100,5.31272607421875,1.3190975627183914,-2.2737322832137346,0.28654136162009086
1700516973864736000,5.322736083984375,-1.8462649955451487,0.2519424515236169,-0.2652322142727673
1700516973874746000,5.33274609375,-1.343992350000143,0.528116550245136,0.33980007359888403
1700516973884756000,5.342755859375,1.218499591937661,0.7713385196965188,-0.3970869816478342
1700516973894766000,5.35276611328125,-0.3018658085346222,-1.1989968729577958,0.5468192414211109
1700516973904776200,5.362776123046875,2.18436999219656,-0.1605462435260415,-0.32137079253681
1700516973914786000,5.3727861328125,-1.923677321049571,0.1512881474457681,-0.27738555687051264
1700516973924796200,5.382796142578125,-0.790326201826334,1.2218947873339057,0.312428886266239
1700516973934806000,5.392805908203125,2.142535760551691,0.16026165443100035,-0.273618459421955
1700516973944816000,5.402816162109375,0.7724667200088501,-1.9686317305415868,0.22185407765414564
1700516973954826200,5.412826171875,-2.4056419225811956,0.5941260957907885,-0.14982472382970152
1700516973964836000,5.422836181640625,-0.20484160458743572,0.6071918405257165,0.1277208093754947
1700516973974847000,5.432846923828125,0.8060568549215793,0.42466231325045223,-0.35167248036339877
1700516973984857000,5.442857177734375,0.26040508637726306,-1.1315447273883967,0.6497647617086768
1700516973994867200,5.4528671875,1.5937234821498394,0.007326835756748915,-0.6228497206456959
1700516974004877000,5.462876953125,-2.4767618699431417,0.042993557747825976,0.13425306068845091
1700516974014887200,5.47288720703125,0.4793155483275652,1.4822997275806962,0.06294051336385309
1700516974024897000,5.48289697265625,1.778169364440441,-0.6109815881974995,0.011697086730226874
1700516974034907100,5.4929072265625,-0.18802841695249078,-1.2736726131051779,-0.06294434928875416
1700516974044917000,5.5029169921875,-2.415924831664562,0.46872255038172006,0.006466967524401843
1700516974054927000,5.512927001953125,0.9137538440525531,0.7807901655875146,-0.2610362969528884
1700516974064937200,5.522937255859375,0.05056640415489674,0.041610286695882674,-0.07159432340804488
1700516974074947000,5.532947021484375,0.785756994214654,-0.8318431111503392,0.5050970187833532
1700516974084957200,5.542957275390625,0.8177607367187738,0.1911479372125119,-0.6704805828053504
1700516974094967000,5.552967041015625,-2.3445167150110007,-0.01884454733207822,0.3427680200263858
1700516974104977200,5.56297705078125,1.1285253065019845,1.6622762093722818,-0.2795105862004682
1700516974114988000,5.572988037109375,1.678798305106163,-1.3054171201512217,0.2340054474905133
1700516974124998100,5.582998046875,-0.8281248943448066,-0.6874306216277182,-0.19578491283077745
1700516974135008000,5.593008056640625,-2.302034248590469,0.2818777902558446,0.09363295407369732
1700516974145018000,5.60301806640625,1.4207459193348884,0.9506028346307576,-0.42098238262869414
1700516974155028200,5.6130283203125,-0.3661065177768469,-0.40828408296667035,0.1368391316588968
1700516974165038000,5.6230380859375,1.3857131843984127,-0.7483621332567185,0.40413605990912765
1700516974175048200,5.633048095703125,0.31499007852375505,0.073180971544981,-0.49943230755254625
1700516974185058000,5.64305810546875,-2.0809762532174587,0.16590287518836558,0.3815941193638369
1700516974195068200,5.653068115234375,1.358384447968006,1.597852398648113,-0.31987975026145576
1700516974205078000,5.663078125,1.6260153939455746,-1.4460270755857227,0.32454401574544606
1700516974215088000,5.673088134765625,-1.3703542872250078,-0.4201598872646689,-0.1688438970763236
1700516974225098200,5.68309814453125,-1.640651237541437,0.4299082510799169,-0.10546243501193821
1700516974235109000,5.693109130859375,1.0967565417975187,0.02892426199354231,0.04983377903141081
1700516974245119000,5.703118896484375,-1.9679045853108166,0.21761910696551204,-0.4041311645383015
1700516974255129000,5.713129150390625,4.539698608601093,0.3444792078584432,1.5249837079226969
1700516974265139200,5.72313916015625,0.741435037407279,-3.0079122349262235,-2.0001830531030893
1700516974275149000,5.733149169921875,-7.908549603277445,2.706921455660462,1.9568273109793661
1700516974285159200,5.7431591796875,5.849242161032557,-0.08793876102007925,0.30806009659748523
1700516974295169000,5.7531689453125,2.7556530456036326,-2.98883081009835,-1.5460282495170832
1700516974305179100,5.76317919921875,-5.516459236186742,-0.6652661360926926,0.6038434068806469
1700516974315189200,5.773189208984375,-0.03177987062036991,1.5420415179684757,-0.41567207432612774
1700516974325199000,5.78319921875,1.7368600334525108,-0.3470508119121194,0.4089990993682295
1700516974335209200,5.793209228515625,0.6320996334195137,-4.199483487927913,-0.07990096398238092
1700516974345220000,5.80322021484375,-0.8635130185902118,1.2084816904660314,-0.6515592439100146
1700516974355230200,5.813230224609375,-0.8727472954034805,2.6045857013016938,0.7169801028475165
1700516974365240000,5.823239990234375,1.5143834034532309,-3.222884772905707,-0.35659627356640994
1700516974375250200,5.833250244140625,1.1640373493880032,-1.4601882874071597,-0.23268187073655425
1700516974385260000,5.843260009765625,-1.4617764333814383,0.8980501520294696,0.029852738482691345
1700516974395270100,5.853270263671875,-1.4224012853264807,1.4696857452012597,-0.3092386753901839
1700516974405280000,5.863280029296875,2.6143103919804096,-1.043006904496625,1.4178257941044867
1700516974415290000,5.8732900390625,2.947434677609801,-5.294096587955951,-2.6311352700531483
1700516974425300200,5.88330029296875,-7.912587480491399,5.527267630448937,1.9129583586364984
1700516974435311000,5.89331103515625,4.709039860740304,-2.2358622790247202,0.5475032050972805
1700516974445321000,5.903321044921875,2.723201559332013,-3.9386975855395194,-2.60046160710901
1700516974455331000,5.9133310546875,-5.169524451869726,0.20604674259349703,1.8939885774895548
1700516974465341200,5.923341064453125,-0.4866711717873811,1.67726963423416,-0.5693746990351006
1700516974475351000,5.93335107421875,6.559940114870667,-3.67672919536829,-0.2644842454496771
1700516974485361200,5.943361083984375,-5.076986453425884,-1.1004884218022226,-1.0823683162871747
1700516974495371000,5.95337109375,-2.440219899487495,1.3253817575544118,2.3642273776531217
1700516974505381000,5.963381103515625,7.238207625225186,-4.1091441685721275,-2.300883471120149
1700516974515392000,5.97339208984375,-6.156393216493726,-2.905310523107648,1.03387301931791
1700516974525402000,5.983402099609375,-1.542026028138399,0.942192076094821,0.6949464040853083
1700516974535412000,5.993411865234375,7.108140983375907,-4.720566632404923,-1.2146670280374585
1700516974545422000,6.003422119140625,-5.28986523399651,-0.557419509357959,0.3200569699918851
1700516974555432200,6.01343212890625,-1.208354045498371,-4.59093721292913,1.7404175798036157
1700516974565442000,6.023442138671875,6.270738557597994,-2.5493711790800093,-2.748185193940997
1700516974575452200,6.0334521484375,-3.6436855884224175,-0.08158632325343787,1.7469440589629113
1700516974585462000,6.0434619140625,0.3324561771094799,-5.341964254546165,0.283264568439126
1700516974595473200,6.05347314453125,3.393758641439676,-1.5381509402707219,-1.7916203821659087
1700516974605483000,6.06348291015625,-5.567024471297859,-4.317916390606761,2.2453213045045732
1700516974615493000,6.0734931640625,0.5273574024409056,-9.165119105890392,-0.3533252890717238
1700516974625503000,6.0835029296875,1.8234008373081683,0.2919415036305785,-2.3818882681585847
1700516974635513000,6.09351318359375,-1.1721832464426756,-2.522649760892987,2.6589137960776683
1700516974645523000,6.10352294921875,6.6906333641856905,-5.178090035641193,-1.5606006724879145
1700516974655533000,6.113532958984375,-0.29078619611561296,0.5731855990927666,0.016461122794263063
1700516974665543200,6.123543212890625,-2.828902406209707,-7.832816024640202,2.0321904488690197
1700516974675554000,6.133553955078125,1.5482494326978922,-1.6882003397017717,-2.217055287224054
1700516974685564200,6.143564208984375,0.8418009529978037,1.2486772880584,1.4686986338600516
1700516974695574000,6.153573974609375,-1.3523323083221912,-6.6640265122890465,0.5493153325531631
1700516974705584000,6.163584228515625,4.298389267838001,-2.6488722945347427,-1.1526146956849843
1700516974715594000,6.173593994140625,-6.13120675278902,-6.44969402577877,0.6459561632059514
1700516974725604000,6.18360400390625,-0.45555356446802614,-6.171242410579324,-0.5464579703606665
1700516974735615000,6.193614990234375,2.6599510301709173,-1.8366659770727156,-0.07659476204384118
1700516974745628700,6.203628662109375,-2.5080536647856233,-6.571455196097493,0.7867690938666463
1700516974755638500,6.213638427734375,7.733948823174834,-2.9792706623315808,-0.3729394325368106
1700516974765648600,6.223648681640625,-1.3821248045176266,-6.339010129791498,0.7324249978039413
1700516974775658500,6.233658447265625,2.304451831126213,-3.3168779385939238,-0.7296841746632009
1700516974785668600,6.243668701171875,1.9153151508957147,-2.543554309494793,0.5317297723062336
1700516974795678700,6.2536787109375,-4.9985558907896275,-3.680999420033395,-0.6521737225465476
1700516974805689600,6.263689697265625,6.871880158174037,-2.281755138410628,-0.2605761686278507
1700516974815699500,6.273699462890625,-6.53434682393074,-5.818847022768855,0.4233377501158043
1700516974825709600,6.28370947265625,6.300291984340548,-1.769651273072511,-1.0025875080857425
1700516974835719700,6.2937197265625,-0.358754401448369,-4.231344899351894,0.3620668869972229
1700516974845729500,6.3037294921875,-3.7686218816459176,-7.08776864195466,0.4487761427549645
1700516974855739600,6.31373974609375,2.098657455858588,-4.602959074634313,-0.517894066112116
1700516974865750500,6.32375048828125,-2.086099003058672,-4.99676140858829,0.351007477116026
1700516974875760600,6.3337607421875,6.368228625491261,-4.3956502031505105,-0.22378668968454002
1700516974885770500,6.3437705078125,-1.4853963784217834,-7.728778727060556,-0.37849995274078096
1700516974895780600,6.353780517578125,0.9926678062915801,-6.083487554758787,-0.07908774790335446
1700516974905790500,6.36379052734375,-0.001799158376455307,-4.803804887583851,0.2776121321680024
1700516974915800600,6.373800537109375,3.02899360139966,-2.2364394943907855,-0.6532423746913671
1700516974925811500,6.3838115234375,6.746317257484793,-2.1933929643467067,0.7181169979229569
1700516974935821600,6.393821533203125,-5.0674569930583235,-1.1498559715613723,1.3388240074515343
1700516974945831400,6.40383154296875,3.218070066100359,-3.568756019644439,0.8433071928422897
1700516974955841500,6.413841552734375,-3.476236433640122,-7.453306419932842,-1.0219902007572352
1700516974965851600,6.4238515625,-2.954352494174242,-7.115804065349698,-1.0968376442097127
1700516974975861500,6.433861572265625,0.7255868954122066,-6.083460082229972,-0.25748602059278636
1700516974985872400,6.443872314453125,-0.018481413108110425,-5.792447091621161,-0.7210181261919438
1700516974995882500,6.453882568359375,6.031489071974158,-5.778509751683473,1.7231624936200678
1700516975005892600,6.463892578125,3.377093337842822,-3.771738260100782,-0.9708630939796566
1700516975015902500,6.47390234375,1.3367489547431468,-3.148483319655061,0.6243846751280129
1700516975025912600,6.48391259765625,-4.387590230813622,-5.061375042796135,0.07132551640402525
1700516975035922400,6.49392236328125,0.5766437036573887,-2.6118150680333376,-0.8433512511797249
1700516975045933600,6.50393359375,-0.9395657461792231,-6.623225715345144,0.6850199072241783
1700516975055943400,6.513943359375,3.674821900442242,-4.018360904841125,-1.0564404596306383
1700516975065953500,6.52395361328125,3.6339597286999226,-2.876146972465515,0.8029901608273387
1700516975075963400,6.53396337890625,-2.75834359986186,-1.3181573592588305,-0.27637707394771277
1700516975085973500,6.543973388671875,1.3525725468188523,-4.353318251116574,-0.23015684577096251
1700516975095984400,6.553984375,-5.215636214703321,-6.083698567160964,0.6870902837574482
1700516975105994500,6.563994384765625,2.480862875521183,-4.377851803870499,-0.8883614825122058
1700516975116004400,6.57400439453125,0.8385767302542925,-4.736309560459852,0.2721908377716318
1700516975126014500,6.584014404296875,2.8460920259416103,-3.9156870045691727,-0.4647137165991589
1700516975136024600,6.594024658203125,2.0407447805941104,-5.35128153346777,0.5953713831441476
1700516975146035500,6.604035400390625,2.080496360746026,-1.0270457305811345,-0.9560328968554734
1700516975156045300,6.61404541015625,0.27173019798994064,-3.8521728560358284,1.5732017953857778
1700516975166055400,6.624055419921875,-0.2190899101704359,-3.398326095485687,0.13969627465568482
1700516975176065500,6.6340654296875,0.8033335674375295,-6.963096552625298,-0.4968344000138342
1700516975186075400,6.644075439453125,-2.3430472269803286,-2.205887996521592,0.9102439362354576
1700516975196086500,6.65408642578125,6.748055041062831,-0.014780805024504661,-0.2006317318074405
1700516975206096400,6.664096435546875,-2.1983412344038484,-6.627782063475251,-0.49711219404190776
1700516975216106500,6.6741064453125,-2.6378613634377714,-5.6977451931416985,-0.6418032813102007
1700516975226116400,6.684116455078125,-0.9767144503563642,-2.933115937139094,1.102714938745275
1700516975236126500,6.69412646484375,4.589551896050573,-0.6772118638217449,0.09498334576934575
1700516975246137600,6.7041376953125,0.6289741948753595,-6.417842258965969,1.0224090106911956
1700516975256147700,6.714147705078125,-2.2224258743464946,-0.8100593685612082,-1.166655276801437
1700516975266157600,6.724157470703125,-3.9685716225385663,-4.931935592934489,1.29078010751158
1700516975276167700,6.734167724609375,3.8369577512472866,-0.1852773646786809,-0.1497469458857551
1700516975286177300,6.74417724609375,0.5328858104735612,-5.129737800404429,-0.4235094899535179
1700516975296187400,6.7541875,-0.13605916026234627,-1.8399751016207038,-1.9972318020820616
1700516975306198500,6.764198486328125,-4.023311512985825,-4.713471413446962,-0.4366517705233767
1700516975316208600,6.774208740234375,1.8110095577687024,-1.3607114296108485,-0.16360128371510654
1700516975326218500,6.784218505859375,2.731733825355768,-3.155312581153214,-0.13514007265605033
1700516975336228600,6.794228515625,1.6476234146416187,-3.8177038924619553,-0.3789103967051953
1700516975346239500,6.804239501953125,-1.6351777745664118,-3.4502807391285892,0.122064171853289
1700516975356249600,6.81424951171875,-0.07385726337134838,-2.2484315454795953,0.6004981515733525
1700516975366259500,6.824259521484375,5.487269966581463,0.3120307903267443,-0.4753924565996974
1700516975376269600,6.83426953125,2.0611668063759803,-4.89258207218945,0.6077891853643581
1700516975386279700,6.84427978515625,-0.7561053677946329,-4.805906536038219,0.6435942563802004
1700516975396290600,6.85429052734375,1.1687848361760378,-2.6720716760754586,-0.020942177198454738
1700516975406300700,6.86430078125,-2.560718502524495,2.016928874590248,0.5156945833064616
1700516975416310500,6.874310546875,6.201614752489328,-3.8894109920620914,-1.1374059475719929
1700516975426320600,6.884320556640625,-7.082876193737984,-4.787612462195754,-1.156882947588712
1700516975436331500,6.89433154296875,1.266878130659461,-4.652325747610628,-0.25867398826833815
1700516975446341600,6.904341552734375,0.3024836481720209,0.9740219964019954,-1.4060900558643041
1700516975456351500,6.9143515625,-0.4812362872570753,-6.878177212491631,0.5160430314179509
1700516975466361600,6.924361572265625,-2.6787001543045044,-0.5348981732092798,-1.2036796239465475
1700516975476371500,6.934371337890625,-0.06852817730307578,-4.367396460829675,1.2484987166211008
1700516975486382600,6.944382568359375,4.072084019461274,0.11382818536236881,0.36774274067655205
1700516975496392400,6.954392333984375,0.7563321622878313,-5.337541761928796,0.3382943086784333
1700516975506402600,6.964402587890625,-1.2153344059050082,-0.602544160850346,0.21274784766733645
1700516975516412400,6.974412353515625,0.4879810853421688,-3.3938884052991867,0.08929039482474327
1700516975526423600,6.984423583984375,3.462224859422445,-0.19733955839425324,0.1654366093834862
1700516975536433400,6.994433349609375,1.494364113253355,-4.453416747942566,0.01756155831683427
1700516975546443500,7.004443603515625,-0.7312514970451593,-2.223369292676449,-1.5987163220010696
1700516975556453400,7.014453369140625,-0.9292775763988494,-1.3634163046553731,0.7224891485925763
1700516975566464500,7.024464599609375,4.432078776359558,0.25626652526780963,-0.4583057857856154
1700516975576474400,7.034474365234375,-1.8218769887417554,-5.615079769414663,0.5192799675125629
1700516975586484500,7.044484375,-1.01450729765594,-5.025812731027603,1.0548926456667482
1700516975596494300,7.054494384765625,-2.233678505244851,-0.9661983170390128,0.040572139287181196
1700516975606504400,7.06450439453125,5.185899248087406,-1.8806622090570628,0.1402833538286388
1700516975616515300,7.074515380859375,-0.8143313467919826,-4.158853079114854,0.8189601025711745
1700516975626525400,7.084525390625,-2.6421084994882342,-5.483057317322492,1.4529364165827632
1700516975636535300,7.094535400390625,3.925490605702996,1.9452792042657732,-0.29938106078049165
1700516975646545400,7.10454541015625,3.634578152859211,-4.675483043575286,0.5017061707686633
1700516975656556500,7.114556640625,-0.5921855561822652,-2.418722353428602,-0.6174845403507352
1700516975666566700,7.124566650390625,-3.0931320193111893,-3.7941444454371926,1.0454444338418543
1700516975676576500,7.134576416015625,3.1515012061715124,1.5070295335590838,-0.9798229377657175
1700516975686586600,7.144586669921875,0.24831775822043417,-4.227547552895546,0.1605466271185316
1700516975696597500,7.154597412109375,-0.8175959015458821,-4.78400128596127,0.29851370336143296
1700516975706607600,7.164607666015625,-0.45354690082073207,-1.2016630234271288,0.6848617940530181
1700516975716617500,7.174617431640625,5.026973006978631,-1.3183784546636044,-0.12475381279606372
1700516975726627600,7.184627685546875,-2.5460288829147815,-3.5596535525172945,0.6047165729859844
1700516975736638500,7.194638427734375,-5.191870139190554,-4.74436105722934,2.1616890815719962
1700516975746645800,7.204645751953125,1.1198305433928966,0.970588368691504,0.7865382807854563
1700516975756655600,7.214655517578125,4.227078181818127,-4.928675129833818,0.7216071050610393
1700516975766665700,7.224665771484375,-4.892465167811513,-2.6325737784236667,0.12892737215366215
1700516975776676600,7.234676513671875,-1.7398983782351016,-1.2613213733151554,0.10344813604746013
1700516975786686700,7.244686767578125,3.647433542779088,-2.0489508834034202,0.1998782830916345
1700516975796696600,7.254696533203125,1.3559294560313224,-1.8720475254468618,-0.409493824082613
1700516975806706700,7.264706787109375,-2.314716035509109,-4.967511348706483,-0.15641959205009043
1700516975816717600,7.274717529296875,1.0920610774576662,2.5542630427747963,-1.2973980643466114
1700516975826727700,7.284727783203125,3.8147833288401363,-4.753803131574392,0.7315751760415733
1700516975836737500,7.294737548828125,0.37212533967494965,-2.5699831744760275,-0.35677400475349275
1700516975846747600,7.30474755859375,-0.6862146699666977,-3.179913646185398,0.09318345674052834
1700516975856758500,7.314758544921875,2.463727031803131,0.8850194786079227,-0.28098458600947634
1700516975866768600,7.3247685546875,-2.169371160507202,-3.863749312061071,0.5292781413704156
1700516975876778500,7.334778564453125,-2.0198943002671004,-5.56920649151206,1.2406117627635598
1700516975886788600,7.34478857421875,0.16029869850575923,1.2029198916204273,-0.4442379148034379
1700516975896799500,7.354799560546875,4.122708291283249,-3.9216999812483784,0.5695966712227091
1700516975906809600,7.3648095703125,-2.0793366693168878,-3.8059824750080704,0.3710458738751709
1700516975916819500,7.3748193359375,-4.435380740514398,-3.1307623695254323,0.5643304577901959
1700516975926830600,7.38483056640625,4.173837590017914,0.713937374150753,0.3423207511829212
1700516975936840400,7.39484033203125,4.395667738807201,-3.514233279079199,0.9052025810673833
1700516975946850600,7.4048505859375,-3.727956693780422,-6.018975042837858,0.20814824491739273
1700516975956860400,7.4148603515625,-1.2712351568251847,2.449282326865196,0.007547310107015073
1700516975966871800,7.424871826171875,5.442919952723384,-1.9906731742188333,0.30046478263027965
1700516975976881700,7.434881591796875,-3.0861826385647055,-5.866889461404085,0.4373290852630511
1700516975986891800,7.444891845703125,-2.7943203376501797,-2.612392283399403,-0.5040537933407351
1700516975996901600,7.454901611328125,3.3405490292996167,2.29746328741312,0.14406835226006806
1700516976006912800,7.464912841796875,1.5910568932890892,-3.458345387640595,0.9881797010920941
1700516976016922600,7.474922607421875,-0.42224341554045675,-6.698477063423395,-0.3191767165586352
1700516976026932700,7.4849326171875,0.721158557575941,2.421601708257198,0.03115001175161451
1700516976036943600,7.494943603515625,2.6692139485567807,-2.8923639477729797,1.4284941953741013
1700516976046953700,7.50495361328125,-2.650921336019039,-3.9446228839352724,-0.14183040060754865
1700516976056963600,7.514963623046875,-4.451523481541872,-0.41721272789686914,0.44157191046457733
1700516976066973700,7.5249736328125,6.424611606970429,-2.768347692003846,0.4517912162598222
1700516976076984600,7.534984619140625,-0.9089093266308307,-3.0031735159665343,-1.6221167790718376
1700516976086994700,7.54499462890625,-5.914943590477109,-2.981415273144841,0.8910954375207424
1700516976097004500,7.555004638671875,3.838614286282658,0.8015516524568199,-0.38289895488470793
1700516976107015700,7.565015625,3.4331220990568396,-5.226781293573976,0.3291165478253737
1700516976117025500,7.575025634765625,-4.1539281899333,-4.153402997015417,0.182306934033148
1700516976127035600,7.58503564453125,-0.5112701909929513,1.9300332659475503,0.2742804304620251
1700516976137045500,7.59504541015625,5.345184385636449,-2.6282529926151037,0.7383805452074855
1700516976147056600,7.605056640625,0.4461614667445421,-3.3190497296750543,1.6011679529368876
1700516976157066500,7.61506640625,0.5649971050053835,-3.9437332416191695,0.24860464887041597
1700516976167076600,7.62507666015625,2.678373991090059,0.7170999298349022,-0.2500830873925239
1700516976177087500,7.63508740234375,3.513937511003017,-1.1698837373286486,0.37906547766905274
1700516976187097600,7.64509765625,-4.510773542889952,-5.150784680086374,1.067816570778191
1700516976197107500,7.655107421875,-4.58920118291676,0.22239362789094447,-0.14883531093355268
1700516976207117600,7.66511767578125,5.859273141181468,-0.9599671675644814,-0.36469274198878554
1700516976217128700,7.675128662109375,-2.94598214071393,-4.8549172351837155,-1.6126786502495407
1700516976227138800,7.685138916015625,-2.9861925705492496,-4.159333263847231,-0.2818982119893655
1700516976237148400,7.6951484375,3.6792251038372514,-0.6259907951503991,0.5076303001206368
1700516976247159800,7.705159912109375,3.621386662852764,-1.3256022684372961,-1.6083093491241336
1700516976257169700,7.715169677734375,-3.687435882821679,-4.872119714397192,0.38889125410206615
1700516976267179800,7.7251796875,3.2635674964278936,1.1709272550322114,1.1199078464128076
1700516976277190700,7.735190673828125,5.660488936936855,-3.280370162668824,0.6326805751126259
1700516976287200800,7.74520068359375,-3.7069980769038198,-3.315007176285982,0.5003606013786047
1700516976297210600,7.755210693359375,-0.5378600917547941,2.20542563970685,1.0327606741618365
1700516976307220700,7.765220703125,4.944592245411872,-2.1402697153158483,0.43434243413507934
1700516976317231600,7.775231689453125,-1.993799489545822,-5.843356610125303,1.6131502132840454
1700516976327241700,7.78524169921875,-3.2083927216947075,-2.1114695911586283,1.7500205437988041
1700516976337251600,7.79525146484375,1.241025312000513,0.5252236052826047,-0.30907113680355247
1700516976347262700,7.8052626953125,-1.25194125829041,-2.8962264684200285,-1.1852178653869778
1700516976357272600,7.8152724609375,-4.406173350730538,-5.876479712048172,-0.21094467070288955
1700516976367282700,7.82528271484375,1.7146493706882,1.743018702212721,0.27960812829080967
1700516976377293600,7.83529345703125,5.024311094292998,-3.778248372647166,0.3132902523359284
1700516976387303700,7.8453037109375,-5.289755928403139,-4.735260343667864,-0.36018702806737274
1700516976397313500,7.8553134765625,-2.548501410508156,1.8737934923313557,1.2768481744013727
1700516976407323600,7.86532373046875,5.551930362540483,-3.885562499940395,2.1950966995246706
1700516976417334500,7.87533447265625,1.5260890388160944,-3.2599697641968723,-1.3239828505419193
1700516976427344600,7.8853447265625,-3.8355981533318757,-2.6090590473234654,0.9221775351352989
1700516976437354500,7.8953544921875,4.525801016151905,3.5917616321787236,0.44048773195706303
1700516976447365600,7.90536572265625,4.027352897331118,-3.2556185832500457,0.8546365422386676
1700516976457375500,7.91537548828125,-0.5005325238794088,-4.181498041643202,0.2241463167771697
1700516976467385600,7.925385498046875,0.16624153255820273,0.23032632058635352,-0.19776622284110634
1700516976477396700,7.935396728515625,7.514000250348448,-0.26096739643514155,-0.5915068532031029
1700516976487406800,7.94540673828125,1.372821554121375,-3.2735844480514524,-0.3188549737909809
1700516976497416700,7.955416748046875,-1.3303268127411603,-4.2852913013339045,-0.48276389868315306
1700516976507427600,7.965427490234375,4.815728549611568,-0.049408320160955185,-1.4015171949908136
1700516976517437700,7.975437744140625,5.978318038278818,-2.4555051469027993,0.15001571635715663
1700516976527447800,7.98544775390625,-4.195459054717421,-6.054577102094888,1.1949329845197498
1700516976537458700,7.995458740234375,-3.164286453464627,0.9741565095018595,1.4074318258620797
1700516976547468500,8.005468505859374,2.0205209077328443,-0.6975783600240946,0.7896626964163035
1700516976557478700,8.015478759765625,-4.855395958611369,-4.014147086538374,0.7961065387934446
1700516976567489500,8.025489501953125,-6.812170078098774,-0.8228805639505385,1.8969087027199565
1700516976577499600,8.035499755859375,-0.04159925384521484,0.30966625315248963,1.1266766098953782
1700516976587509800,8.045509765625,-2.3369068245291706,-3.117795335924625,-0.6609044337518513
1700516976597520600,8.055520751953125,1.6253431937724352,-6.409252125275135,0.7360283560581505
1700516976607530500,8.065530517578125,0.5177437709212303,-0.48212315309420223,0.016552271676436067
1700516976617540600,8.07554052734375,2.3977070379287,-0.23583456261381505,-0.9108801883123815
1700516976627550700,8.08555078125,-2.1491613161712886,-4.665781149250269,-2.284121283020079
1700516976637561600,8.0955615234375,-1.7131313673406838,0.9785092248186469,1.1433020198732613
1700516976647571500,8.105571533203126,4.215881080499291,-1.2813866946138441,2.186856256054342
1700516976657581600,8.11558154296875,-1.0849667352825403,-3.661854866841435,0.1326266650630161
1700516976667592400,8.125592529296876,-4.737589663398266,-0.36589915863648054,2.472900518339872
1700516976677602600,8.1356025390625,3.0836516587823626,-0.7292964174546301,-0.34877683198712767
1700516976687612400,8.1456123046875,3.125502257040143,-2.7145935977235434,-0.03530000757053494
1700516976697623800,8.155623779296874,-1.0956757608234882,-4.008595297630131,1.6864873983040451
1700516976707633700,8.165633544921874,3.250435627654195,0.9260844794459641,0.010024586940743029
1700516976717643800,8.175643798828125,5.304860558554529,-1.4371886662222444,-0.874792245234549
1700516976727654700,8.185654541015625,-1.0768939034640788,-4.851411272889376,-0.7387554429344833
1700516976737664800,8.195664794921875,-3.1017858658879995,-0.7821976942978799,-0.02648008371181786
1700516976747674000,8.205674072265625,5.575653767955303,0.010574293245375156,0.048538167996611446
1700516976757685000,8.21568505859375,1.7589426859229802,-3.173160372532904,1.0118478691883384
1700516976767694800,8.22569482421875,-4.168379909133911,-2.6590745395973325,1.3800048897542059
1700516976777705000,8.235705078125,-1.9760902298539875,1.9798365767754613,1.326983347532153
1700516976787715800,8.2457158203125,-0.29124036962389943,-1.1005898363500832,0.3235726134300232
1700516976797726000,8.255725830078125,-3.0248914267778395,-4.805053426340222,-0.5722140871794894
1700516976807735800,8.26573583984375,3.283894829663634,-0.07820084553360938,0.1290283848427236
1700516976817747000,8.275746826171876,2.9159330394089222,-2.9375328767985103,0.34154392159152774
1700516976827756800,8.2857568359375,-1.909036801278591,-3.659546882160008,-2.0238715333350004
1700516976837767000,8.295766845703126,-3.198316148838401,-0.4419400496572256,0.8111093160055577
1700516976847777800,8.30577783203125,4.20887090947628,-2.2358384597577152,2.990130202259123
1700516976857788000,8.315787841796874,1.0734376255303621,-2.377867195948958,-0.7230129532709717
1700516976867797800,8.3257978515625,-6.0500546562343835,-0.2691821209423244,2.8659555410578843
1700516976877809200,8.33580908203125,2.623464589294791,-0.36420185319930315,0.6863043940767646
1700516976887818800,8.34581884765625,3.704127489903569,-3.4925551157563923,0.2117403511252254
1700516976897828900,8.355828857421875,-1.8687737644731997,-3.635769408470392,-0.1402881761342287
1700516976907840000,8.365840087890625,0.6397299821674823,3.575203296087682,0.2896793673848733
1700516976917850000,8.37585009765625,0.8333031737655401,-3.0973575280517336,-0.061647112552449104
1700516976927860000,8.38585986328125,-5.305020133030414,-5.310121255561709,-0.3430843559665605
1700516976937871000,8.39587109375,-6.900987594714761,1.014325365217775,2.5614243127062917
1700516976947881000,8.405880859375,4.721628124156594,-0.9086658732637762,-0.7523549292199313
1700516976957891000,8.41589111328125,3.5384792470633983,-4.013950979444385,-1.1191546168927102
1700516976967902000,8.42590185546875,-3.299495134377479,-3.443340126210451,1.5560899170652032
1700516976977912000,8.435912109375,-0.9798054021090269,1.5515427751548587,-0.8611962660804391
1700516976987922000,8.445921875,0.5958014085918665,-3.605101298484206,-1.0455318198643624
1700516976997932800,8.455932861328124,-1.3271587040990591,-2.9393162530839443,-0.585122339797765
1700516977007943000,8.46594287109375,2.922388499158621,1.3418990309827028,0.38167781559191644
1700516977017953000,8.475953125,5.64205428557992,-0.34528000284731386,-0.6667860391363502
1700516977027964000,8.4859638671875,-4.199008856153488,-5.3048693263828754,-0.3280143222045153
1700516977037973800,8.495973876953125,-2.3447674749016763,-1.9087512623354792,0.4166897634686902
1700516977047983900,8.50598388671875,3.602003916990757,3.2274235853791233,-0.21619627108816056
1700516977057994800,8.515994873046875,2.450856444314122,-1.0981646550297737,-0.2545742978645488
1700516977068004900,8.5260048828125,1.6739917816072702,-4.121342848148942,-0.04800049918964505
1700516977078015000,8.536014892578125,0.9791805482089518,-0.6600134762614965,0.46039552460648114
1700516977088026000,8.546026123046875,5.061976515820622,-1.00346626368165,0.2677988498903811
1700516977098035700,8.55603564453125,-3.569791500172019,-3.317649215227365,1.388255416227132
1700516977108045800,8.5660458984375,-1.903354079467058,-2.9925743805408476,0.8041565742582082
1700516977118057000,8.576056884765626,1.8553747691959142,1.644473864569515,0.7866418872904032
1700516977128067000,8.586067138671876,-2.3346154987215995,-1.2968515363797544,0.676748557158932
1700516977138077000,8.596076904296876,-2.6357021395772695,-5.498920072364807,-1.0820708677105606
1700516977148088000,8.606088134765624,-2.489628365778923,1.830999329613149,0.2736114451592788
1700516977158098000,8.616097900390624,6.7350529361486435,-2.5059815346866845,-0.31578827969674017
1700516977168108000,8.62610791015625,-2.717731603488326,-3.1842297558188437,-3.3198870572820303
1700516977178119000,8.636118896484374,-3.5710061366587875,2.5383061797082425,2.446725335858762
1700516977188129000,8.64612890625,6.166391463416814,-3.9412697741150855,0.17228245669025927
1700516977198139000,8.656138916015625,-1.6013269428908823,-2.1001114540591836,-2.433938919521868
1700516977208150000,8.66614990234375,-3.0577830580323933,-1.557014922955632,1.087083142914623
1700516977218159900,8.676159912109375,5.264399953350424,1.3650959283053874,-1.0096243479199707
1700516977228170000,8.686169921875,1.8572095834076403,-3.861789410164952,-0.44249267857130614
1700516977238180900,8.696180908203125,-2.769211030834913,-2.4282566361017524,-0.2366721459491178
1700516977248191000,8.70619091796875,0.7501058351188897,1.8824018923312424,1.0581409068729728
1700516977258200800,8.716200927734375,4.849129883953928,-0.9671711075939238,-0.6566541558962314
1700516977268212000,8.7262119140625,1.1852344511955977,-3.434354271200299,-0.36033166070245204
1700516977278221800,8.736221923828126,-0.10120236641466616,-2.7545962300270794,-0.15194507698453963
1700516977288232000,8.74623193359375,0.264590263107419,1.3196753626063464,-0.29918285306096076
1700516977298243000,8.7562431640625,-1.9824743779331444,-2.1158517517656086,1.9318360775858163
1700516977308253000,8.7662529296875,1.8804566034823655,-4.266038903853297,-0.4026096905920654
1700516977318262800,8.7762626953125,0.6636632309406996,2.7204016994804143,1.9228255265258252
1700516977328274000,8.78627392578125,-0.7288941202640533,-1.9013482926025986,1.9351028242968022
1700516977338284000,8.796283935546874,-4.7982039988368745,-5.0876013709425925,-1.7043872121319175
1700516977348294100,8.806294189453125,-2.18504160784781,1.391492352321744,-0.3379813337391242
1700516977358305000,8.816304931640625,4.002994701144099,-0.9887678762435913,1.592683325447142
1700516977368315000,8.82631494140625,-1.5887299116462468,-4.548067500756681,-3.09241276512593
1700516977378325000,8.836324951171875,-5.813693293267488,-0.9976818350613117,-0.03700670189056545
1700516977388335900,8.8463359375,2.5393881297260523,1.0149358983315526,0.50177160068769
1700516977398346000,8.856345947265625,5.5358063262134785,-3.493471061557531,-1.331524790354073
1700516977408355800,8.86635595703125,-1.4877946717351673,-2.6319711363554,-0.4041991517405957
1700516977418367000,8.876366943359375,0.4193862725436687,0.816801828558743,0.7509164208494127
1700516977428376800,8.886376953125,1.9729484246969222,-1.1630737650528549,0.8068002937000245
1700516977438387000,8.896386962890626,1.6086492486029862,-1.708666204625368,-0.11083926921207457
1700516977448397800,8.906397705078126,0.8021142547756434,-3.2561031518965957,1.2342029186345636
1700516977458408000,8.916407958984376,0.8788590562820434,3.225908504641056,0.2893977739645168
1700516977468417800,8.926417724609376,0.6933394072800875,-1.566312766524404,0.5510324386693537
1700516977478429000,8.936428955078124,-3.0386814671993254,-5.896743916919827,-1.1553612909793853
1700516977488438800,8.946438720703124,-2.5408412511438128,2.4895357190594076,-0.6490408313482999
1700516977498449000,8.956448974609375,2.202663189256191,-0.9608142859131097,1.1515027158550917
1700516977508460000,8.9664599609375,-2.067142958176136,-3.4585032085508107,-1.4261338959835468
1700516977518470100,8.97647021484375,-3.08983005515635,-1.4712449573419988,2.04978119674772
1700516977528479700,8.986479736328125,6.37583910049498,-0.6241302619755268,-0.3057705243555829
1700516977538491100,8.9964912109375,-1.7554384771943092,-1.1979961714826524,-1.179917128630355
1700516977548501000,9.0065009765625,-6.066034900176525,-3.360053355714679,1.0418988701894878
1700516977558511000,9.016510986328125,2.0183213518619536,2.0600943548388777,-0.20654252675380558
1700516977568522000,9.02652197265625,4.322789549601078,-2.63353765501976,2.1939546898826956
1700516977578532000,9.036531982421875,-4.494578194892406,-2.728621246293187,0.01597428912539035
1700516977588542000,9.0465419921875,-5.441652709266543,-1.2956420144595204,1.4124498001545667
1700516977598552800,9.056552734375,3.1925849117100236,1.7662231983199714,-0.29352957653962075
1700516977608563000,9.06656298828125,7.23088882664442,-4.129323325508833,-0.7591030152406543
1700516977618573000,9.076572998046874,-4.451107301956415,-1.8524129967808722,-0.23455168319642541
1700516977628584000,9.086583984375,-0.409504929998517,4.816699148209393,-0.035338622547872366
1700516977638593800,9.09659375,2.1696277656167746,-5.67446602436304,-0.6350421896774321
1700516977648604000,9.10660400390625,-4.470393017184734,-1.5445977783225475,-2.089860839810222
1700516977658614800,9.11661474609375,-0.8876981962978839,0.6741223733738064,0.723785545078665
1700516977668625000,9.126625,1.9407260710060594,-1.3378193604536355,-1.3062218606628477
1700516977678635000,9.136635009765625,-1.3658078759670256,-1.6984838333070278,0.1927238082271069
1700516977688646000,9.14664599609375,-0.9905191038250922,-4.455763603329658,0.29748178476411846
1700516977698655700,9.15665576171875,2.407366262155771,3.8291193127065895,-0.9271455328062176
1700516977708665900,9.166665771484375,5.442363487884402,-2.961817423227429,1.7719582348406313
1700516977718677000,9.176677001953125,-1.1040203953206538,-4.036113419152796,0.48126770530864593
1700516977728687000,9.18668701171875,-1.8546856178879736,0.7886141372114419,0.35871545767746865
1700516977738696700,9.19669677734375,4.420276110363006,3.331779155127704,-0.18612568860370665
1700516977748708400,9.206708251953126,-5.092513108381628,-4.474240048001707,0.863672154674679
1700516977758718200,9.21671826171875,-0.08034194921553134,-3.3615888947188854,0.03433481580018997
1700516977768728300,9.226728271484374,-1.7246353426516055,2.0550100373119116,-0.7575782168261707
1700516977778739200,9.2367392578125,3.0042069506675,-1.80706958797127,-1.5221297797963023
1700516977788749300,9.246749267578124,-1.7493454210162163,-3.2977216949641703,-0.3414090796981007
1700516977798759200,9.25675927734375,-0.8289116608083248,0.031651860326528544,-0.4188077420033514
1700516977808770300,9.266770263671875,4.722787231063842,-0.4861847034446895,0.3940150268565863
1700516977818780200,9.2767802734375,0.5504775812655687,-2.420388679205626,-1.449386761277169
1700516977828790300,9.286790283203125,-5.548900785586238,-1.3829586249932646,-0.31651790914554145
1700516977838801200,9.29680126953125,0.5452554627031088,3.4689360474988815,-0.6335982014141976
1700516977848811300,9.306811279296875,4.914152098962664,-4.91690227445364,0.1959716310419142
1700516977858821000,9.316821044921875,-4.700968782487512,-0.9819304314389824,-0.5350780963534489
1700516977868832000,9.32683203125,0.5375035334020852,2.526762456908822,-0.13533274568393824
1700516977878842000,9.336842041015625,2.5564275273323056,-3.6498888269767162,0.13823339902888981
1700516977888852200,9.346852294921876,-0.28797698391377924,-1.0454916339844464,-1.6048276444882152
1700516977898863000,9.356863037109376,-0.7681143700182438,-2.480381229484081,0.1255604164712131
1700516977908873000,9.366873046875,2.018293879333138,2.960922812475264,-2.188979824079573
1700516977918883000,9.376883056640626,4.667387999925017,-4.239330345147848,0.3213947579342872
1700516977928894000,9.38689404296875,-2.8235353262186047,-3.1338129892677067,-1.316386550194025
1700516977938904000,9.396904052734374,-0.7094248651623726,3.554526126500964,-0.29805362983532246
1700516977948914200,9.4069140625,6.781487355065345,0.5192740492284298,-1.752343872179836
1700516977958925300,9.41692529296875,-3.5994752752959727,-5.924960542100668,-0.6023191929880529
1700516977968935200,9.42693505859375,5.913962762746214,-2.345988833390176,-0.5858657055109739
1700516977978945300,9.4369453125,3.012143004363775,1.3157521978132425,-0.8424407852713018
1700516977988956200,9.4469560546875,3.428087612020969,-0.435366078094393,-0.3921555896602571
1700516977998966300,9.45696630859375,-1.780290009856224,-3.566663723540306,-0.6171580848753452
1700516978008976100,9.46697607421875,0.601882189810276,0.22057021185606718,-0.846000815840438
1700516978018987300,9.4769873046875,7.94229580553472,2.168992390322685,-1.090102490735799
1700516978028997000,9.4869970703125,-7.923193630179762,-1.9597578114733099,-0.2003082720067352
1700516978039007200,9.49700732421875,0.44495209095478055,-3.0809479527816173,-0.9086303635589777
1700516978049018000,9.50701806640625,4.049892645919322,1.6848118663072584,-2.0336679740756747
1700516978059028200,9.5170283203125,-5.885314760410785,-1.332032886006683,-0.49991307680681346
1700516978069038000,9.5270380859375,-0.6033055006116629,-4.111083904463053,0.8239129026729614
1700516978079049200,9.53704931640625,-2.28161105376482,0.8476378424577414,-0.7131561606451868
1700516978089059000,9.54705908203125,3.462845621669292,-0.42877004083022474,1.7359090163379907
1700516978099069200,9.557069091796874,-4.2965585452795025,-4.046695895704627,-1.9207126260250806
1700516978109080000,9.567080078125,-1.8403344364523886,-0.15382541083842516,0.9103298609532415
1700516978119090200,9.577090087890625,4.545732043546438,-0.40634442014098165,-0.3832301961330697
1700516978129100000,9.58710009765625,1.5352239469081161,-3.373064228457212,-2.6138492042094468
1700516978139111200,9.597111083984375,7.72259740807712,-2.5932138279378414,1.6540724446505308
1700516978149121000,9.60712109375,-15.963049646234511,0.02960851793065667,-0.8673519391659646
1700516978159131100,9.617131103515625,-3.2603561331659554,0.3107689536973834,1.4607573194667696
1700516978169142300,9.627142333984375,-1.9152543606191872,-0.0921253259897232,-3.4622970478758215
1700516978179152100,9.637152099609375,3.74556600022912,-3.076741441002488,0.0211188124069944
1700516978189162200,9.647162353515625,8.511230834510922,1.7837424883976578,-1.0807296822346746
1700516978199173000,9.657173095703126,-0.747716309633851,-4.134773407608271,0.7010586764205247
1700516978209183200,9.667183349609376,-0.9652689272344112,-2.379976735448837,-1.3530633990757166
1700516978219193300,9.677193359375,-4.061619324070215,3.86198902439028,-1.1000644973017275
1700516978229204200,9.687204345703124,0.749036744582653,-1.855447834432125,0.7878256902474909
1700516978239214000,9.697214111328124,1.0488567265033721,-1.767182691001892,-1.2417422280982136
1700516978249224200,9.70722412109375,0.23686931248903273,-1.482923120176047,0.4334677336597815
1700516978259235000,9.717235107421875,4.530165056580305,1.209009002275765,-0.07572711236383765
1700516978269245200,9.7272451171875,-0.21851824776232243,-2.789299002356827,-0.9374896705575286
1700516978279255000,9.737255126953125,-6.5817784371912476,-1.8272446532547473,-0.6542516247991472
1700516978289266200,9.74726611328125,-2.2927035256654023,2.781121833381057,0.08314363569803536
1700516978299276000,9.757276123046875,1.4129548270672558,-2.360504996129125,-1.4447706457838416
1700516978309286100,9.7672861328125,-1.619140247479081,-3.421013728111982,-0.16271847299858927
1700516978319296000,9.7772958984375,-3.1800580230921507,0.15934344360753894,-1.2220490280475467
1700516978329307100,9.78730712890625,-0.5937281094491481,-0.38796529836356636,-0.18303528484031556
1700516978339317000,9.79731689453125,-0.40422319020330905,-3.141598236316442,-1.086544213732332
1700516978349327000,9.8073271484375,-3.4797570089817045,-1.6829074939906596,0.3728839029572904
1700516978359338000,9.817337890625,1.4998913522422312,2.84743525724411,-0.8806386331751942
1700516978369348000,9.82734814453125,3.1018881572186947,-4.468182939919829,0.7154344808407127
1700516978379358000,9.83735791015625,0.5683908390969038,-1.3418342951834201,-0.2826209002407268
1700516978389369300,9.847369384765624,1.9855238286316395,0.17645166866630316,0.5118638460371643
1700516978399379200,9.857379150390624,5.242502009797096,2.1147627874851227,-1.4964024872131645
1700516978409389300,9.867389404296874,-1.0826175418078898,-4.471620220892131,0.10249032386597245
1700516978419400200,9.877400146484375,0.1456429811656475,-3.162749745416641,-1.1788368591129779
1700516978429410300,9.887410400390625,2.1160791307806965,5.485972912508249,-1.2547965015910565
1700516978439420200,9.897420166015625,1.8543851736366748,-0.5040929928399622,-0.3372952511711046
1700516978449431300,9.907431396484375,0.1390764622569084,-2.963026799017191,0.15310104208663106
1700516978459441200,9.917441162109375,-0.7077104624599218,-0.8108825215123593,-0.47904144409392024
1700516978469451300,9.927451171875,-0.09177695094346999,0.9308617768503725,-0.30785076469574124
1700516978479462100,9.937462158203125,-1.3835837711542844,-1.9354273800760506,-1.0716029574491084
1700516978489472300,9.94747216796875,-2.6911785276055333,-2.638959095546603,-1.1058259834378956
1700516978499482000,9.957482177734375,0.04414893832802772,2.3915897240921855,0.7874475776501
1700516978509493000,9.967492919921876,2.791163919445872,-3.531597670856118,-0.7644811280824244
1700516978519503000,9.977503173828126,-4.129943503233791,-3.103794575361907,-1.163437995255366
1700516978529513200,9.98751318359375,-1.964420250326395,1.2090193775393068,0.23647373730018734
1700516978539524000,9.997524169921874,1.441136380934715,-2.051051801205426,0.3713818278312683
1700516978549534200,10.0075341796875,0.07173018821477889,-2.793141356998682,-1.6521118121020495
1700516978559544000,10.0175439453125,-2.283032026478648,-2.0077134486079213,1.2455939350903034
1700516978569554200,10.02755419921875,1.5742250009536742,3.3193162716567515,-0.03428717726618051
1700516978579565000,10.03756494140625,0.6692752256035804,-3.5436940591022372,0.3282987651690841
1700516978589575200,10.0475751953125,-3.3565503160297867,-1.330701345141977,-0.26519034789241847
1700516978599585000,10.0575849609375,1.3171931904017924,2.1593298050947487,0.2597600664719939
1700516978609596200,10.06759619140625,5.568116942709684,-1.0558205741666258,-0.21005312869064507
1700516978619606300,10.077606201171875,1.6083271770417689,-2.446487873841077,-1.8174308229878544
1700516978629616000,10.0876162109375,-1.5846721606880425,-0.29355186143666506,-0.28381021962314845
1700516978639627300,10.097627197265625,-1.263593702161312,2.411674188482761,-1.416262928701937
1700516978649637000,10.10763720703125,2.534491005334258,-2.8284879801899194,-0.5065678585208953
1700516978659647200,10.117647216796875,-1.492155789554119,-1.6038406792774795,-0.5878843518570065
1700516978669658000,10.127658203125,-1.0054898784637452,1.6635589426591992,0.28290041130185123
1700516978679668200,10.137668212890626,2.125545462784171,-1.7346882423713803,0.6688305505760014
1700516978689678000,10.147677978515626,-1.5318255366414784,-2.5679823560476303,0.7460892198886722
1700516978699689200,10.157689208984374,-6.214418119961023,-1.2521525629535317,1.2796370744675396
1700516978709699000,10.167698974609374,-0.5691022022366523,2.165754723575711,0.4096688153233379
1700516978719709200,10.177709228515624,0.7037497421354055,-3.054434332126379,-0.13868264063373206
1700516978729719000,10.187718994140624,-0.05618307499289512,-3.1172166592538355,0.30666882490217684
1700516978739730200,10.197730224609375,0.825179488542676,3.3843680050209164,0.5371516512244939
1700516978749740500,10.207740478515625,0.32731063091456886,-2.575477972500026,2.1431289041392505
1700516978759750700,10.217750732421875,-2.095057970061898,-3.014802578961849,-2.189597079195082
1700516978769761500,10.227761474609375,-0.2661889304757118,1.7019446412853896,1.7521718766137957
1700516978779771600,10.237771728515625,3.974545436251163,-0.06634951808974146,-0.30205059051699934
1700516978789781500,10.247781494140625,0.2876028899043798,-0.7709916790202259,-0.7885823538336902
1700516978799792600,10.257792724609375,-3.958094652187824,-4.1737762152194975,-0.5251384112171829
1700516978809802500,10.267802490234375,-0.991077322229743,4.716449844735861,-0.6700408031485975
1700516978819812600,10.2778125,3.267137756130099,-1.775680616364628,1.2726993841588496
1700516978829823500,10.287823486328126,0.44791561693549153,-2.582070502632856,-0.324647256924212
1700516978839833600,10.29783349609375,-4.014476464623213,-1.5417635778099297,1.197811389500275
1700516978849843500,10.307843505859376,2.3189245931148528,2.690660641211271,0.4322020611055195
1700516978859854300,10.317854248046874,1.481394741564989,-1.75649996894598,0.9467857605606317
1700516978869864400,10.327864501953124,-4.296640378344058,-4.490850698801875,0.46513468195758756
1700516978879874600,10.33787451171875,0.965694459170103,4.131407730567455,0.06971366076059639
1700516978889884400,10.347884521484374,4.273850454387069,-3.0476860269099473,1.5068962625682354
1700516978899895600,10.3578955078125,0.13879296914041042,-2.2519676106512545,-1.6556228889629243
1700516978909905400,10.367905517578125,-1.3671879321485758,0.1345857267089188,1.5762160286404192
1700516978919915500,10.37791552734375,3.030153877350688,0.5877867367014289,-0.5305278491705656
1700516978929926400,10.387926513671875,2.2489473860472438,-0.7559672744981945,0.015023820000141859
1700516978939936500,10.3979365234375,-1.3895178373783825,-3.086905692142248,0.25222959790192545
1700516978949946400,10.4079462890625,-0.6180605866730213,4.940843706533313,-1.44153794747293
1700516978959957500,10.41795751953125,3.5278427022367715,-2.8535283134222027,1.2587623364821077
1700516978969967600,10.427967529296875,0.1637029539912939,-1.2844776463665066,-0.3892041194435209
1700516978979977700,10.437977783203126,-3.307807620170712,-0.8866533634200692,1.0116867603424935
1700516978989987600,10.447987548828126,2.2220798373878,2.6970328065916895,-1.3237389587834476
1700516978999998500,10.45799853515625,1.159785537162423,-2.6854174798607824,1.109277219870314
1700516979010008600,10.468008544921876,-4.158281124445796,-3.726468208788335,0.5827937507197261
1700516979020018700,10.478018798828124,1.0066548305898904,4.900403559595346,0.17833777467384934
1700516979030029600,10.488029541015624,1.146641393429041,-4.146879148204625,2.4584686728835106
1700516979040039400,10.498039306640624,-4.867994743421674,-2.5988214386865494,-0.5956157498266548
1700516979050049500,10.508049560546874,-3.765952370175719,-0.7900247346617281,1.903000151462853
1700516979060060400,10.518060302734375,1.767945492067933,1.306237642753869,-0.12310396322980523
1700516979070070500,10.528070556640625,3.348308557385206,-3.2582951089829204,-0.0879775586605072
1700516979080080400,10.538080322265625,-1.9634189643293618,-1.8373643346004187,0.49499819756262003
1700516979090091500,10.548091552734375,0.8157844682097435,3.224043879812956,-0.7582260132104158
1700516979100101400,10.558101318359375,1.5908470499306917,-1.9801094023674726,1.3290718442440033
1700516979110111500,10.568111572265625,-1.631764751252532,-1.8046458679556845,-1.8628762308672069
1700516979120121600,10.57812158203125,0.3217939133197069,0.3844333248451352,1.4594354232132434
1700516979130132500,10.588132568359375,4.637666815400124,2.426172523304075,-1.6455752499401568
1700516979140142300,10.598142333984375,1.8827461757242678,-2.150952583502233,0.06835954273790121
1700516979150152400,10.60815234375,-1.907968295264244,-3.069083619725704,0.2967380171921104
1700516979160163300,10.618163330078126,0.5684966375589371,3.96254111020267,0.5618264390800148
1700516979170173400,10.62817333984375,2.806494759568572,-0.3061741732530296,1.3884306266635655
1700516979180183300,10.638183349609376,0.44962183633148667,-3.0467846941560506,0.8113200361467897
1700516979190194700,10.648194580078124,-5.689865838068723,0.13393310801908373,1.2039523764733224
1700516979200204500,10.65820458984375,0.24323709395527837,0.3009976473979652,1.3404283739082514
1700516979210214700,10.668214599609374,-1.114355911374092,-1.3805984717331825,-1.722773348172009
1700516979220224500,10.678224609375,-3.760447343018651,-3.658091714915633,-0.291676203757897
1700516979230235600,10.688235595703125,1.9415163446009158,3.7172885847717523,-0.6669223788671195
1700516979240245500,10.69824560546875,3.5084909360349177,-3.51425929030329,1.306205347919464
1700516979250255600,10.708255615234375,-3.807655668917298,-1.7273839107073843,-0.528448558678478
1700516979260266500,10.7182666015625,-2.5105454816013575,1.353248546384275,2.475853522926569
1700516979270276600,10.728276611328125,3.8388913496583696,-0.5361278611347079,0.4603128878243267
1700516979280286500,10.738286376953125,3.5374680241942404,-1.0448431069478392,-0.40996969796605404
1700516979290297600,10.748297607421875,-1.506284852671623,-3.2569702901199458,-0.25546025038622316
1700516979300307500,10.758307373046875,-0.01915653589069843,5.125891061848402,-0.30580139441788196
1700516979310317600,10.768317626953126,2.6099837609529493,-2.35959650298208,1.0019912957582622
1700516979320327400,10.778327392578126,0.9517805001080035,-1.9232457977645099,-0.7953924722399562
1700516979330338600,10.788338623046876,-2.3617285465747115,-1.5572572072789073,0.7751412729803472
1700516979340348400,10.798348388671876,2.533234283271432,3.3410601936921474,-1.6193389849215745
1700516979350358500,10.808358642578124,-0.22282266695797442,-3.2257968609601257,0.11974098960272968
1700516979360369400,10.818369384765624,0.5176023166239261,-2.4110657011955974,0.23606427971646188
1700516979370379500,10.828379638671874,-0.3175239809155464,2.763185486935079,0.8199922220978886
1700516979380389400,10.838389404296874,3.620153906187415,-0.9922190396107733,0.8608714911054819
1700516979390400500,10.848400390625,-0.5858849947333336,-2.166372270952165,-0.4489927446477115
1700516979400410400,10.858410400390625,-2.1781366507649422,-0.27103695502877234,1.5759756440132855
1700516979410420500,10.86842041015625,4.751209023427963,1.799176788894832,0.23057247736714778
1700516979420430300,10.878430419921875,3.1455162865430113,-0.959941010209918,0.24370960683785378
1700516979430441700,10.888441650390625,-2.923405567246675,-2.971364711512625,-0.10847827570177614
1700516979440451600,10.89845166015625,-1.2477104888528585,2.860410181890428,0.46931167538128793
1700516979450461700,10.908461669921875,2.880826070192456,-0.7619085011154413,0.3576455634236336
1700516979460472600,10.91847265625,1.3236252692759036,-2.9514152716785667,-2.3239964895516634
1700516979470482700,10.928482666015626,-3.10310922344625,0.8877244997829198,1.0985623491104692
1700516979480492500,10.938492431640626,0.7146066517144442,-0.20987258449196813,0.20560002173930406
1700516979490502700,10.948502685546876,1.1022855343520641,-0.8342840014964341,0.19359364986419678
1700516979500513500,10.958513427734376,-3.8956495941907163,-3.497564468351006,-0.36195414733774955
1700516979510523600,10.968523681640624,-0.8384335223913192,3.3868630367070436,-0.13100735676549374
1700516979520533500,10.978533447265624,2.765210563021898,-2.509917705091834,1.6830914722554384
1700516979530544600,10.988544677734374,-1.4555705644786356,-2.067832694005966,-0.8425308747075497
1700516979540554500,10.998554443359374,-2.829523752978444,0.509489737316966,1.7888119006164371
1700516979550564600,11.008564697265625,2.2970342483460904,0.04705035885795951,0.9783116564199328
1700516979560575500,11.018575439453125,0.7322633044362068,-1.874375822263956,-1.1055990428142248
1700516979570585600,11.028585693359375,0.03206570182442665,-0.7505455417104065,0.8130277168475091
1700516979580595500,11.038595458984375,2.2429881853818894,2.9725246952027082,-0.5229341061059385
1700516979590605600,11.04860546875,2.465142159298062,-1.823759441487491,0.7861818685632198
1700516979600616400,11.058616455078125,-1.3102367953926324,-2.560054193396866,-1.0947471747364848
1700516979610626600,11.06862646484375,0.76327219068408,1.435772077422589,-0.17726941478997468
1700516979620636400,11.078636474609375,3.59153512994647,1.8956641094863413,-1.7160656672269106
1700516979630647300,11.088647216796875,-2.545494629907608,-2.553438866910338,-0.00012698738053441047
1700516979640657400,11.098657470703126,0.5294108278393745,-2.54957459269762,-0.11693126594424247
1700516979650667500,11.10866748046875,-1.606678240790963,3.786299577155709,-0.4142570198964327
1700516979660677400,11.118677490234376,0.797536279335618,-0.9955144278943538,1.1269826801698655
1700516979670688500,11.1286884765625,-0.8422171325832605,-3.8021363209739327,0.3543359274189919
1700516979680698600,11.13869873046875,-3.2011101634711023,2.310342204339057,1.2909848363034426
1700516979690708500,11.14870849609375,1.004611342063546,-0.1420196761019528,1.2489856233552097
1700516979700719600,11.1587197265625,-2.8385481864333153,-2.7305355554819104,-0.23266769608072935
1700516979710729500,11.1687294921875,-4.171749093306064,-1.8269962314516306,2.4290597691781817
1700516979720739600,11.178739501953125,1.1447077950179576,3.3131974965155124,-0.44826413811221716
1700516979730749700,11.188749755859375,2.3266128095299003,-2.6472087452366946,-0.8453280311454087
1700516979740760600,11.198760498046875,-2.173334218919277,-2.4567618689656254,-0.5666439954295754
1700516979750769700,11.208769775390625,-1.3179647592961787,2.3379374827511605,0.9801863642506301
1700516979760779500,11.218779541015625,3.6992718665659425,-0.727563163921237,-0.8486091717079282
1700516979770790700,11.228790771484375,-0.5903069028288126,-2.2876544255822897,-0.9116998341321945
1700516979780800500,11.238800537109375,-0.6518243245869875,-1.9357393686346709,0.3014229601379484
1700516979790810600,11.248810546875,4.957392690274119,2.11046377511695,-1.1872222640119492
1700516979800821500,11.258821533203125,3.149814275997877,-0.0974808616735041,0.3933808936715126
1700516979810831600,11.26883154296875,-2.2923732707977296,-4.346151135966181,0.4586069241566583
1700516979820841500,11.278841552734375,-1.958830467495322,3.041203971414268,0.7713526212871075
1700516979830851600,11.2888515625,8.655633460226655,0.9066573099203408,-0.5320561547163873
1700516979840862700,11.29886279296875,-0.6414397086948156,-1.8442573089845478,1.4939254295751452
1700516979850872800,11.308872802734374,-5.128454774856567,0.9177208479873835,1.338521371243149
1700516979860882400,11.31888232421875,-2.9634108298987147,1.022698202896118,-1.3597658193238078
1700516979870893800,11.328893798828124,-5.882077093663812,-1.6812369304299353,-0.4036128032200038
1700516979880903700,11.338903564453124,-4.172588466739654,-2.154784709011018,-1.4269665474154054
1700516979890913800,11.348913818359375,-2.883968459871411,3.469429676234722,-1.1769686540883033
1700516979900923600,11.358923583984375,0.7173118190199136,-1.350133629234135,1.020149833587557
1700516979910934800,11.368934814453125,-1.2969406759679316,-3.959889134389162,-0.5845226934041827
1700516979920944600,11.378944580078125,1.3161580021351575,1.0374762314416468,1.0884096422780305
1700516979930954800,11.388954833984375,7.329172675263881,1.738076277374476,-0.4776603649990633
1700516979940965600,11.398965576171875,0.08147416811585426,-3.3843101373538373,0.8393545096937567
1700516979950975700,11.408975830078125,1.2591449060589075,-2.541740245810151,1.2576384470187127
1700516979960985600,11.418985595703125,4.353922939011454,1.9449653160110114,-0.20452106739617884
1700516979970995700,11.42899560546875,1.102910388252139,-0.24129326641112564,0.14318239973839372
1700516979981006600,11.439006591796876,0.12948036639392374,-2.3504351452745498,-0.5410194325685501
1700516979991016700,11.4490166015625,-2.3801655360192058,3.8735245638832447,-0.421387456298247
1700516980001026600,11.459026611328126,1.431994458580017,0.29514132258519526,-0.5583141931753606
1700516980011037700,11.46903759765625,-3.6615333798021075,-2.0059953926436602,-2.220680784244835
1700516980021047600,11.479047607421874,-2.77598680858016,0.22084099162146448,-0.018128654147684574
1700516980031057700,11.4890576171875,5.2691854340612885,2.48464443988651,-0.8185269718509167
1700516980041067500,11.499067626953124,-0.8818898022800683,-0.8308839837945997,-0.49491234591007227
1700516980051078700,11.50907861328125,-5.895417052230239,-3.467430026850104,0.6018882542248815
1700516980061088500,11.519088623046875,1.1185299821883439,2.886920879936218,0.2169863620199263
1700516980071098600,11.5290986328125,2.400023498177528,0.16094605649858712,1.2430537490881979
1700516980081109500,11.539109619140625,-4.622300319442153,-5.459710928526521,0.484766726405546
1700516980091119600,11.54911962890625,-0.9248445623874664,2.0673056013919413,0.6523105737339705
1700516980101129500,11.55912939453125,5.512514882475138,1.1993820728830993,-0.16930654615201055
1700516980111139600,11.5691396484375,-1.5348258875012397,-3.098121498161554,0.4774026273783296
1700516980121150700,11.579150634765625,-3.0173399884849785,-2.4537986352458594,0.7451553731046616
1700516980131160800,11.589160888671875,5.17941923841834,3.0636288614511487,-1.1892882566310465
1700516980141170700,11.599170654296875,1.6582020918011664,-0.7875590752005577,-0.4377552382532507
1700516980151180800,11.609180908203125,-2.674799639734626,-3.39902927531898,-0.1325152040451765
1700516980161191700,11.619191650390626,-0.7487859846919774,2.8040415211975573,-1.1915717644583432
1700516980171201800,11.629201904296876,1.813470394924283,0.5230564903765916,-0.11069346753321588
1700516980181211600,11.639211669921876,-2.9939994449079035,-5.122597865521907,-1.2318871890380978
1700516980191222800,11.649222900390624,1.7357155395925044,2.6728400300994513,0.5616262403327972
1700516980201232600,11.659232666015624,5.045536837673187,2.327844835542887,0.08518639357201754
1700516980211242800,11.66924267578125,-3.66285323022902,-1.925742583016306,0.3886004544619471
1700516980221252600,11.679252685546874,-2.2398452111810445,-2.164491133380681,1.190270984058082
1700516980231263700,11.689263671875,6.236479729643464,3.4843481361642477,-0.7669447417169809
1700516980241273600,11.699273681640625,0.33340193352699277,-0.4511275647193193,0.50424401868321
1700516980251283700,11.70928369140625,-2.2252654816865918,-3.913129136779904,0.4924218442685902
1700516980261294600,11.719294677734375,1.4450906715184448,2.019643394245952,-0.37084004910476503
1700516980271304700,11.7293046875,2.1357015306174754,0.9769409525886178,-0.7465850405815988
1700516980281314600,11.739314453125,-5.073508548182248,-4.102329520121216,-1.7395701691940426
1700516980291324700,11.74932470703125,-4.410214735075831,1.9910401078350841,-0.2948430702909827
1700516980301335600,11.75933544921875,3.1599808652251955,0.7752427605934441,1.0076092817705125
1700516980311345700,11.769345703125,-3.801836753505468,-1.6862174953214824,-0.42875681602247057
1700516980321355500,11.77935546875,-2.4910925931125876,-1.4061109525218605,1.261030135283619
1700516980331366700,11.78936669921875,2.943115060845017,2.3137730555705724,0.923974866880849
1700516980341376500,11.79937646484375,3.740089030122757,-1.208569587945193,0.11537921419665216
1700516980351386600,11.80938671875,2.5507979970127344,-1.0900295716300605,0.6357613707974553
1700516980361396500,11.819396484375,0.2795224593013525,1.0740934590905904,-0.0746837773233652
1700516980371408000,11.829407958984374,-2.1099854900807142,-0.8842894107677042,0.19395408067442477
1700516980381417700,11.839417724609374,-4.398215669724345,-3.203513717481494,-1.835792116847634
1700516980391427800,11.849427734375,-0.7830711161315441,4.241484308311343,-0.20081169148422776
1700516980401437400,11.8594375,1.9933119982898233,-0.3283988645426929,-0.3689758626680821
1700516980411448800,11.86944873046875,-0.10643968254625796,-3.39314518571645,-1.4801508789837359
1700516980421458700,11.879458740234375,-1.247226504728198,0.19324600547030568,0.39154973272159693
1700516980431468800,11.88946875,-1.6314900259643792,1.4138092519395054,0.8233711239464581
1700516980441479700,11.899479736328125,-0.9079992260485887,-1.0004624056905507,0.8519923844054341
1700516980451489800,11.90948974609375,-3.6260149071753025,-0.28055691691562534,1.2725842333465813
1700516980461499600,11.919499755859375,0.7968892136037349,1.4381502047307788,1.7319456656649708
1700516980471509800,11.929509765625,4.133777382308245,-0.008949760783463717,-0.2102888371426612
1700516980481520600,11.939520751953125,-0.3170236301779747,-3.3561107555687424,-1.1594866272810846
1700516980491530800,11.94953076171875,0.340979090783,3.2723528604298826,-0.15181253664605318
1700516980501540600,11.95954052734375,3.2075667922645805,0.15222688960060476,-0.566232126693055
1700516980511550700,11.96955078125,-0.7563005981057882,-2.9561726953387257,-1.255305766287446
1700516980521561600,11.9795615234375,-2.04924957408905,1.2036376845009624,0.4944244893278926
1700516980531571700,11.98957177734375,4.78954021538794,3.0451866113096475,0.03228862386010587
1700516980541581600,11.99958154296875,-1.2799322580218315,-2.1926969449065625,-0.14095730756744743
1700516980551592700,12.0095927734375,-2.5843115595579147,-0.760522453584522,0.5292281647488475
1700516980561602600,12.0196025390625,1.7713386416375636,3.3794518836677074,0.8392272300522774
1700516980571612700,12.02961279296875,-1.6304788030952215,-1.0717150395214556,1.79201449605003
1700516980581622500,12.03962255859375,-2.7823125044703483,-2.6847037786334753,-0.1956441526532173
1700516980591633700,12.049633544921875,-0.794914114138484,1.9933685507826506,0.9950023136537521
1700516980601643500,12.0596435546875,4.176647386741638,0.3537349658511579,0.45430677927732466
1700516980611653600,12.069653564453125,-0.23643735081255435,-4.005055725327134,-2.2545547045350074
1700516980621663500,12.07966357421875,-1.5964853480786083,3.1759295449852942,1.3871309422418474
1700516980631674600,12.089674560546875,2.8234850573360917,-0.5332986290581524,0.5828165470734238
1700516980641684500,12.0996845703125,1.9796148968487977,-1.399487442728877,-1.2982377300411463
1700516980651694600,12.109694580078125,-0.6123024615377187,-0.724091542287916,1.3598152114234865
1700516980661705700,12.119705810546876,3.5279958469718693,2.450532326926291,0.9554122076738625
1700516980671715800,12.1297158203125,0.773600692474842,-1.0132210572376847,-0.40590295998379583
1700516980681725700,12.1397255859375,-3.8086277288198467,-2.7586265084564685,-0.5709852395042777
1700516980691735800,12.14973583984375,2.1414719307124614,4.123003182576596,-0.5580735893525183
1700516980701746700,12.15974658203125,4.99909306640625,0.7727814850464463,-0.019202420859038827
1700516980711756800,12.1697568359375,-1.263726388630271,-3.8626036491572853,-0.4313839496556669
1700516980721766700,12.1797666015625,-1.9054273786097764,2.328167783886939,0.28964842425733806
1700516980731776800,12.18977685546875,4.3484430462956425,1.0969402278013527,0.050443362297117704
1700516980741787600,12.19978759765625,-1.4800374817371367,-2.0757829223580657,0.12654687022529543
1700516980751797200,12.20979736328125,-0.9661644147694111,0.451489968290925,0.9175074244324117
1700516980761807000,12.21980712890625,1.0332219349980354,1.874384882353246,0.4463734289947897
1700516980771817200,12.229817138671875,-0.35086627854704855,-2.6073703635841605,-0.45977162055447696
1700516980781828000,12.239828125,-2.185229239374399,-0.5215159829363226,0.8639546979431062
1700516980791838200,12.249838134765625,-1.0382441470742225,0.5466488167576492,0.14209588314332067
1700516980801848000,12.25984814453125,1.712202562057972,0.1943041362211108,-1.0032956563550979
1700516980811859500,12.269859375,-3.453089951330423,-2.873884288230538,-1.0568173301190138
1700516980821869300,12.279869384765625,-1.6806980012476442,2.9887314413771033,0.6936412397708743
1700516980831879400,12.28987939453125,4.45216119492352,-0.38550577638223765,-0.48561954384259876
1700516980841889300,12.29988916015625,-0.42500235885977744,-2.371298777344078,-2.317420910553634
1700516980851900400,12.309900390625,-2.367274490264058,1.940616034760326,1.2701165280587972
1700516980861910300,12.31991015625,2.671820331662893,2.0186079137183723,1.0528780909739435
1700516980871920400,12.32992041015625,-1.457373229986429,-2.8539728423193096,-0.6916482393227518
1700516980881930200,12.33993017578125,-2.8196640377432107,1.5454085101835429,1.421888075107336
1700516980891941400,12.34994140625,3.2648353244066235,1.9328426242798566,0.8660207636274397
1700516980901951200,12.359951171875,1.3326988025695086,-2.054757523855567,-0.5949463261324912
1700516980911961300,12.36996142578125,-3.3049048844665285,-1.5979409537144005,-0.7208194618146866
1700516980921971200,12.37997119140625,-1.127189089462161,2.641402397045493,0.28394933583289383
1700516980931982300,12.389982421875,3.2659418243438005,-0.32094094975218174,-0.23356223376765844
1700516980941992200,12.3999921875,-1.6047013877600431,-2.404942249879241,-1.561301952625066
1700516980952002300,12.410002197265625,-0.11333937893211841,3.0786393835783,1.0247674103856086
1700516980962012400,12.420012451171875,1.8178022866487502,0.5936309326849878,0.07210903146453201
1700516980972023300,12.430023193359375,-2.6786528080314396,-3.259804929023981,-1.0615636478632688
1700516980982033200,12.440033203125,-1.8403239150583743,2.7420012446090576,0.8143130804829299
1700516980992043300,12.450043212890625,2.536019530075788,1.7368953970268368,0.30966734913103283
1700516981002054100,12.46005419921875,0.5687888985037803,-2.695368672771752,-0.42601518916413184
1700516981012064300,12.470064208984375,-2.454508537080884,0.9843104584433138,1.5225180484615266
1700516981022074000,12.48007421875,0.2867985877841711,1.2718193864539264,0.31725035160593684
1700516981032084200,12.490084228515625,1.621378381794691,-0.1390500126414001,0.12614537675231693
1700516981042095000,12.50009521484375,-3.5458360395669937,-2.1296435457527636,-0.6570628097623586
1700516981052105200,12.510105224609376,-0.22512568320333956,2.2448007877618075,0.5243057597853243
1700516981062115000,12.520114990234376,2.639510884210467,0.5959536765441298,-0.41464799197539687
1700516981072125200,12.530125244140624,-4.341382021868228,-3.247951994144916,-0.43168790103830396
1700516981082136000,12.540135986328124,-1.6676374441444872,1.984932146348804,0.3347035907100886
1700516981092146200,12.550146240234374,6.004175533112884,2.0411814184457064,0.007117503855004906
1700516981102156300,12.56015625,2.0238000755339858,-2.876984592333436,-0.6310933789864183
1700516981112166100,12.570166259765625,-4.015926078909636,0.7800286796957254,1.4077790318645536
1700516981122177300,12.58017724609375,2.97091726000607,1.7043525792099534,-0.34541374876219777
1700516981132187400,12.5901875,0.889732916995883,1.2325712257795036,0.23309008621126412
