time,seconds_elapsed,z,y,x
1700516968559582000,0.01758203125,-0.9015350341796875,-0.2154083251953125,0.1187286376953125
1700516968569591000,0.027591064453125,-0.9163360595703125,-0.0991363525390625,-0.0212860107421875
1700516968579601200,0.03760107421875,-1.2426910400390625,-0.0843963623046875,0.075714111328125
1700516968589610000,0.04760986328125,-0.9212799072265625,0.0825347900390625,0.0466461181640625
1700516968599620000,0.0576201171875,-0.7901458740234375,-0.2266387939453125,0.051513671875
1700516968609629000,0.06762890625,-1.0942230224609375,-0.2159423828125,0.027679443359375
1700516968619639000,0.07763916015625,-1.2009124755859375,-0.038787841796875,0.04986572265625
1700516968629648000,0.08764794921875,-0.94537353515625,-0.0058135986328125,0.02325439453125
1700516968639658000,0.097657958984375,-1.0045928955078125,-0.1173248291015625,-0.00604248046875
1700516968649667000,0.1076669921875,-0.8733978271484375,-0.2204437255859375,0.13348388671875
1700516968659677000,0.117677001953125,-0.898040771484375,-0.1011505126953125,-0.089447021484375
1700516968669686000,0.12768603515625,-1.2242889404296875,-0.065460205078125,0.1082916259765625
1700516968679696100,0.137696044921875,-0.8878326416015625,0.0055999755859375,0.018951416015625
1700516968689706000,0.1477060546875,-0.8100433349609375,-0.3068695068359375,0.0486297607421875
1700516968699714800,0.15771484375,-1.1069488525390625,-0.1629638671875,-0.0014801025390625
1700516968709725000,0.167724853515625,-1.1083831787109375,-0.073699951171875,0.078155517578125
1700516968719734000,0.177734130859375,-0.937835693359375,-0.0224609375,0.0102996826171875
1700516968729744000,0.187743896484375,-1.019195556640625,-0.1971435546875,0.0421600341796875
1700516968739756300,0.19775634765625,-0.7530364990234375,-0.1829376220703125,0.0736846923828125
1700516968749766400,0.207766357421875,-1.06109619140625,-0.0809326171875,-0.04156494140625
1700516968759775500,0.217775390625,-1.1701507568359375,-0.0125885009765625,0.1018524169921875
1700516968769785300,0.227785400390625,-0.826568603515625,-0.041900634765625,0.0508880615234375
1700516968779794400,0.23779443359375,-0.880035400390625,-0.2486724853515625,0.0135498046875
1700516968789804500,0.247804443359375,-1.2175140380859375,-0.081024169921875,0.0471649169921875
1700516968799813400,0.2578134765625,-1.080963134765625,-0.015289306640625,0.0906219482421875
1700516968809823200,0.2678232421875,-0.958648681640625,-0.043792724609375,0.0030975341796875
1700516968819832300,0.277832275390625,-0.9859161376953125,-0.184295654296875,0.12200927734375
1700516968829842400,0.287842529296875,-0.838775634765625,-0.0933685302734375,0.0032196044921875
1700516968839851300,0.297851318359375,-1.2381744384765625,-0.0999603271484375,0.05206298828125
1700516968849861400,0.307861328125,-1.016510009765625,0.0535125732421875,0.059783935546875
1700516968859870500,0.317870361328125,-0.8212890625,-0.1219482421875,0.0341644287109375
1700516968869880300,0.32788037109375,-0.967864990234375,-0.2509918212890625,0.0464324951171875
1700516968879889400,0.337889404296875,-1.23638916015625,-0.081695556640625,0.0372467041015625
1700516968889899500,0.3478994140625,-0.93243408203125,-0.0521392822265625,0.048065185546875
1700516968899908400,0.357908447265625,-0.9421539306640625,-0.100311279296875,-0.0021514892578125
1700516968909918200,0.367918212890625,-0.9658355712890625,-0.2279815673828125,0.1208343505859375
1700516968919927300,0.37792724609375,-0.820556640625,-0.1129608154296875,-0.028106689453125
1700516968929937400,0.3879375,-1.2154083251953125,-0.1420135498046875,0.057708740234375
1700516968939947300,0.397947265625,-0.9371490478515625,0.035125732421875,0.03765869140625
1700516968949956400,0.407956298828125,-0.7912750244140625,-0.1965484619140625,0.036865234375
1700516968959966500,0.417966552734375,-1.0188446044921875,-0.244049072265625,0.02044677734375
1700516968969975600,0.4279755859375,-1.20867919921875,-0.070953369140625,0.05419921875
1700516968979985400,0.4379853515625,-0.9334716796875,-0.03594970703125,0.05255126953125
1700516968989994200,0.447994140625,-0.99432373046875,-0.1155853271484375,0.013916015625
1700516969000004400,0.45800439453125,-0.9281005859375,-0.183685302734375,0.1114501953125
1700516969010013400,0.468013427734375,-0.9032745361328125,-0.08880615234375,-0.025146484375
1700516969020023300,0.478023193359375,-1.2281341552734375,-0.117401123046875,0.0751190185546875
1700516969030032400,0.488032470703125,-0.9351806640625,0.0776824951171875,0.02301025390625
1700516969040042500,0.49804248046875,-0.8220672607421875,-0.2362213134765625,0.0574493408203125
1700516969050051300,0.50805126953125,-1.050201416015625,-0.1631317138671875,-0.009674072265625
1700516969060061400,0.5180615234375,-1.1873931884765625,-0.0938873291015625,0.076934814453125
1700516969070070500,0.528070556640625,-0.8792572021484375,-0.019805908203125,0.003692626953125
1700516969080080400,0.538080322265625,-1.0164031982421875,-0.1393280029296875,0.037322998046875
1700516969090089200,0.548089111328125,-0.9023895263671875,-0.17681884765625,0.1090087890625
1700516969100099300,0.558099365234375,-0.9306488037109375,-0.086456298828125,-0.0309906005859375
1700516969110108400,0.5681083984375,-1.2194366455078125,-0.1082305908203125,0.08050537109375
1700516969120118300,0.5781181640625,-0.8818206787109375,0.0591888427734375,0.0102386474609375
1700516969130127400,0.58812744140625,-0.8264923095703125,-0.258026123046875,0.089019775390625
1700516969140137500,0.598137451171875,-1.106903076171875,-0.158843994140625,-0.0058441162109375
1700516969150147300,0.608147216796875,-1.1535797119140625,-0.069549560546875,0.086212158203125
1700516969160156400,0.618156494140625,-0.8659210205078125,-0.01776123046875,-0.0105743408203125
1700516969170166500,0.62816650390625,-1.056610107421875,-0.158203125,0.0717010498046875
1700516969180175400,0.63817529296875,-0.8629608154296875,-0.1523284912109375,0.0774383544921875
1700516969190185200,0.648185302734375,-0.978118896484375,-0.1036376953125,-0.0089874267578125
1700516969200194300,0.6581943359375,-1.205902099609375,-0.0910491943359375,0.08489990234375
1700516969210204400,0.668204345703125,-0.8671417236328125,0.047698974609375,0.0112152099609375
1700516969220213500,0.678213623046875,-0.8517913818359375,-0.2694244384765625,0.09112548828125
1700516969230223400,0.688223388671875,-1.119171142578125,-0.1348419189453125,-0.0001678466796875
1700516969240232400,0.698232421875,-1.1725311279296875,-0.0764007568359375,0.1033935546875
1700516969250242600,0.70824267578125,-0.8556671142578125,-0.0065765380859375,-0.00909423828125
1700516969260251400,0.71825146484375,-1.0613555908203125,-0.1853790283203125,0.0669097900390625
1700516969270261200,0.72826123046875,-0.838104248046875,-0.139312744140625,0.0755767822265625
1700516969280270300,0.738270263671875,-1.003692626953125,-0.1130218505859375,-0.0061798095703125
1700516969290280400,0.748280517578125,-1.1795806884765625,-0.0838470458984375,0.0716705322265625
1700516969300289300,0.758289306640625,-0.8663482666015625,0.045623779296875,0.00897216796875
1700516969310299400,0.76829931640625,-0.8471221923828125,-0.2852325439453125,0.09100341796875
1700516969320309500,0.7783095703125,-1.103790283203125,-0.1165771484375,-0.0161285400390625
1700516969330318300,0.788318359375,-1.154266357421875,-0.07427978515625,0.09710693359375
1700516969340328400,0.798328369140625,-0.8864898681640625,-0.0135498046875,-0.0148162841796875
1700516969350337500,0.808337646484375,-1.0366363525390625,-0.16265869140625,0.0684967041015625
1700516969360347400,0.818347412109375,-0.837371826171875,-0.1400604248046875,0.0890045166015625
1700516969370356200,0.828356201171875,-0.9914398193359375,-0.1161041259765625,-0.0183258056640625
1700516969380366300,0.838366455078125,-1.2064056396484375,-0.0666351318359375,0.080078125
1700516969390375400,0.84837548828125,-0.86688232421875,0.046722412109375,0.0216522216796875
1700516969400385300,0.85838525390625,-0.8580322265625,-0.2684478759765625,0.0831146240234375
1700516969410394400,0.868394287109375,-1.1084136962890625,-0.137725830078125,-0.014251708984375
1700516969420404500,0.878404541015625,-1.159210205078125,-0.0607452392578125,0.087799072265625
1700516969430413600,0.88841357421875,-0.910736083984375,-0.031585693359375,-0.004669189453125
1700516969440423400,0.89842333984375,-1.02301025390625,-0.167724609375,0.0489959716796875
1700516969450432300,0.908432373046875,-0.814666748046875,-0.1221771240234375,0.0834197998046875
1700516969460442400,0.9184423828125,-0.9881744384765625,-0.123870849609375,-0.01251220703125
1700516969470452200,0.9284521484375,-1.2353668212890625,-0.055755615234375,0.075714111328125
1700516969480461300,0.93846142578125,-0.8352203369140625,0.034515380859375,0.01812744140625
1700516969490471400,0.948471435546875,-0.8305206298828125,-0.26959228515625,0.0871734619140625
1700516969500480500,0.95848046875,-1.11553955078125,-0.143646240234375,0.0053863525390625
1700516969510490400,0.968490478515625,-1.171173095703125,-0.052520751953125,0.08453369140625
1700516969520499500,0.97849951171875,-0.89794921875,-0.0300445556640625,0.000579833984375
1700516969530509600,0.988509521484375,-1.0162200927734375,-0.1812744140625,0.0641326904296875
1700516969540518400,0.998518310546875,-0.764190673828125,-0.1149139404296875,0.0697479248046875
1700516969550528300,1.0085283203125,-1.0900115966796875,-0.1358795166015625,0.0042877197265625
1700516969560537300,1.018537353515625,-1.1962432861328125,-0.046966552734375,0.0697784423828125
1700516969570547500,1.02854736328125,-0.8246917724609375,0.03802490234375,0.016754150390625
1700516969580556300,1.038556396484375,-0.8246307373046875,-0.28985595703125,0.0732879638671875
1700516969590566400,1.04856640625,-1.201416015625,-0.1352081298828125,0.0157928466796875
1700516969600576500,1.058576416015625,-1.1317901611328125,-0.04486083984375,0.0558929443359375
1700516969610585300,1.06858544921875,-0.892730712890625,-0.0347442626953125,0.006103515625
1700516969620595500,1.078595458984375,-1.03582763671875,-0.18359375,0.0595550537109375
1700516969630604500,1.0886044921875,-0.76434326171875,-0.0944061279296875,0.0533294677734375
1700516969640614100,1.0986142578125,-1.128021240234375,-0.1362762451171875,0.0127105712890625
1700516969650623200,1.108623291015625,-1.1319122314453125,-0.018096923828125,0.056121826171875
1700516969660633300,1.11863330078125,-0.7930450439453125,0.0107269287109375,0.0231781005859375
1700516969670642400,1.128642333984375,-0.8463592529296875,-0.29205322265625,0.0734100341796875
1700516969680652300,1.13865234375,-1.2361297607421875,-0.10906982421875,0.018341064453125
1700516969690661400,1.148661376953125,-1.0469512939453125,-0.0356903076171875,0.052001953125
1700516969700671500,1.15867138671875,-0.9031219482421875,-0.0471649169921875,0.0049285888671875
1700516969710680600,1.1686806640625,-1.0303497314453125,-0.20062255859375,0.0744476318359375
1700516969720690400,1.1786904296875,-0.779754638671875,-0.0952606201171875,0.025909423828125
1700516969730700500,1.188700439453125,-1.1712493896484375,-0.1309661865234375,0.0129852294921875
1700516969740706600,1.19870654296875,-1.0852508544921875,0.0075225830078125,0.0492095947265625
1700516969750716700,1.208716552734375,-0.8062744140625,-0.049652099609375,0.0381622314453125
1700516969760725800,1.218725830078125,-0.8941650390625,-0.2759857177734375,0.05645751953125
1700516969770735600,1.228735595703125,-1.2913970947265625,-0.0951080322265625,0.0194854736328125
1700516969780744400,1.238744384765625,-0.98443603515625,-0.0578460693359375,0.0640411376953125
1700516969790754600,1.248754638671875,-0.9215545654296875,-0.0791015625,0.017425537109375
1700516969800763600,1.258763671875,-0.99951171875,-0.207244873046875,0.0919952392578125
1700516969810773500,1.2687734375,-0.8033294677734375,-0.1123199462890625,0.020904541015625
1700516969820783600,1.27878369140625,-1.2191009521484375,-0.13311767578125,0.0354156494140625
1700516969830792700,1.288792724609375,-1.0263824462890625,0.032745361328125,0.05712890625
1700516969840802600,1.298802490234375,-0.7568511962890625,-0.101348876953125,0.0458526611328125
1700516969850811600,1.308811767578125,-0.9868011474609375,-0.283966064453125,0.0590057373046875
1700516969860821800,1.31882177734375,-1.275054931640625,-0.0496978759765625,0.038299560546875
1700516969870830600,1.32883056640625,-0.9364471435546875,-0.03741455078125,0.03955078125
1700516969880840400,1.33884033203125,-0.9683990478515625,-0.111083984375,0.0313262939453125
1700516969890849500,1.348849609375,-0.910430908203125,-0.1668701171875,0.08026123046875
1700516969900859600,1.358859619140625,-0.8946533203125,-0.1078948974609375,0.0050506591796875
1700516969910869500,1.368869384765625,-1.197998046875,-0.1121978759765625,0.0425567626953125
1700516969920878600,1.378878662109375,-0.9516754150390625,0.056793212890625,0.0306549072265625
1700516969930888700,1.388888671875,-0.771820068359375,-0.15435791015625,0.0478363037109375
1700516969940897800,1.398897705078125,-1.03143310546875,-0.2391815185546875,0.0419769287109375
1700516969950907600,1.40890771484375,-1.2303314208984375,-0.052764892578125,0.027496337890625
1700516969960916700,1.418916748046875,-0.8987274169921875,-0.028717041015625,0.025146484375
1700516969970926600,1.428926513671875,-1.0091094970703125,-0.133880615234375,0.026092529296875
1700516969980935700,1.438935791015625,-0.8693695068359375,-0.1563720703125,0.071258544921875
1700516969990945500,1.448945556640625,-0.96453857421875,-0.116241455078125,-0.0102996826171875
1700516970000955600,1.45895556640625,-1.2095794677734375,-0.088043212890625,0.0446929931640625
1700516970010964700,1.46896484375,-0.8938446044921875,0.0624542236328125,0.0141448974609375
1700516970020974600,1.478974609375,-0.78790283203125,-0.229339599609375,0.068572998046875
1700516970030983700,1.488983642578125,-1.142791748046875,-0.197967529296875,0.0177154541015625
1700516970040993800,1.498993896484375,-1.1790771484375,-0.0315093994140625,0.0285491943359375
1700516970051002600,1.509002685546875,-0.8747100830078125,-0.0315704345703125,0.0201263427734375
1700516970061012700,1.5190126953125,-1.04827880859375,-0.1749725341796875,0.0483856201171875
1700516970071021600,1.529021484375,-0.8057861328125,-0.151458740234375,0.0601959228515625
1700516970081031700,1.53903173828125,-1.0411529541015625,-0.1156463623046875,-0.0076904296875
1700516970091041500,1.54904150390625,-1.17364501953125,-0.0599822998046875,0.05877685546875
1700516970101050600,1.559050537109375,-0.8406524658203125,0.010589599609375,0.0156402587890625
1700516970111060700,1.569060791015625,-0.78387451171875,-0.279510498046875,0.0813446044921875
1700516970121069600,1.579069580078125,-1.2160491943359375,-0.135040283203125,-0.0003814697265625
1700516970131079700,1.58907958984375,-1.124237060546875,-0.0595245361328125,0.047210693359375
1700516970141088800,1.5990888671875,-0.858551025390625,-0.0404205322265625,0.0163116455078125
1700516970151098600,1.6090986328125,-1.034149169921875,-0.19775390625,0.06512451171875
1700516970161108700,1.619108642578125,-0.8206024169921875,-0.1142578125,0.03826904296875
1700516970171117600,1.62911767578125,-1.1466217041015625,-0.1208038330078125,0.0084381103515625
1700516970181127400,1.63912744140625,-1.0764923095703125,-0.0172576904296875,0.0521087646484375
1700516970191136500,1.649136474609375,-0.80560302734375,-0.0229339599609375,0.0186004638671875
1700516970201146600,1.659146728515625,-0.8736114501953125,-0.27716064453125,0.07977294921875
1700516970211155700,1.66915576171875,-1.261474609375,-0.0859222412109375,0.00006103515625
1700516970221165600,1.67916552734375,-1.009307861328125,-0.047149658203125,0.0492706298828125
1700516970231175700,1.68917578125,-0.891021728515625,-0.0533294677734375,0.02276611328125
1700516970241184800,1.699184814453125,-1.016632080078125,-0.186553955078125,0.0733184814453125
1700516970251194600,1.709194580078125,-0.8322906494140625,-0.0912322998046875,0.019989013671875
1700516970261203500,1.719203369140625,-1.1898040771484375,-0.1277313232421875,0.028472900390625
1700516970271213600,1.729213623046875,-1.0155181884765625,0.024017333984375,0.0418853759765625
1700516970281223400,1.739223388671875,-0.8021392822265625,-0.08099365234375,0.0367584228515625
1700516970291232500,1.749232421875,-0.9446868896484375,-0.262359619140625,0.0643463134765625
1700516970301242600,1.75924267578125,-1.283721923828125,-0.0764617919921875,0.0177764892578125
1700516970311251700,1.769251708984375,-0.926727294921875,-0.04974365234375,0.042572021484375
1700516970321261600,1.779261474609375,-0.9412994384765625,-0.0854034423828125,0.0299835205078125
1700516970331270700,1.789270751953125,-0.97314453125,-0.20721435546875,0.07696533203125
1700516970341280800,1.79928076171875,-0.863128662109375,-0.094940185546875,0.0059051513671875
1700516970351290600,1.80929052734375,-1.1935272216796875,-0.13311767578125,0.03924560546875
1700516970361299700,1.8192998046875,-0.982330322265625,0.0352783203125,0.0372314453125
1700516970371309800,1.829309814453125,-0.7887115478515625,-0.1376190185546875,0.043212890625
1700516970381318700,1.839318603515625,-0.9882965087890625,-0.2385406494140625,0.0440521240234375
1700516970391328500,1.84932861328125,-1.2835693359375,-0.07623291015625,0.033050537109375
1700516970401338600,1.859338623046875,-0.887939453125,-0.0411834716796875,0.0238800048828125
1700516970411347700,1.86934765625,-0.97186279296875,-0.110565185546875,0.0359039306640625
1700516970421357600,1.879357666015625,-0.9300384521484375,-0.183349609375,0.072540283203125
1700516970431366700,1.88936669921875,-0.90472412109375,-0.0932159423828125,-0.0092010498046875
1700516970441376800,1.899376708984375,-1.2001190185546875,-0.1201629638671875,0.04803466796875
1700516970451386600,1.90938671875,-0.9454193115234375,0.05401611328125,0.022705078125
1700516970461395700,1.919395751953125,-0.7874603271484375,-0.1714935302734375,0.0568389892578125
1700516970471405800,1.92940576171875,-1.0489501953125,-0.213470458984375,0.0262451171875
1700516970481414700,1.93941455078125,-1.2543487548828125,-0.071044921875,0.042388916015625
1700516970491424500,1.949424560546875,-0.8558197021484375,-0.030487060546875,0.019073486328125
1700516970501434600,1.9594345703125,-1.0120086669921875,-0.129608154296875,0.0455169677734375
1700516970511443700,1.969443603515625,-0.895294189453125,-0.170806884765625,0.07220458984375
1700516970521453600,1.97945361328125,-0.9523773193359375,-0.09722900390625,-0.0037689208984375
1700516970531462700,1.989462646484375,-1.1773529052734375,-0.107330322265625,0.0548095703125
1700516970541472800,1.99947265625,-0.929962158203125,0.047943115234375,0.0222015380859375
1700516970551482600,2.009482666015625,-0.791473388671875,-0.202880859375,0.0688934326171875
1700516970561491700,2.01949169921875,-1.0876922607421875,-0.1859283447265625,0.013916015625
1700516970571501800,2.029501708984375,-1.23370361328125,-0.0773468017578125,0.04986572265625
1700516970581510700,2.0395107421875,-0.840118408203125,-0.029022216796875,0.0154876708984375
1700516970591520500,2.0495205078125,-1.0262603759765625,-0.1570587158203125,0.053192138671875
1700516970601530600,2.059530517578125,-0.8673095703125,-0.1502227783203125,0.0619964599609375
1700516970611539700,2.069539794921875,-0.978546142578125,-0.116607666015625,-0.0052337646484375
1700516970621549600,2.079549560546875,-1.1891632080078125,-0.093292236328125,0.058807373046875
1700516970631559700,2.0895595703125,-0.8778533935546875,0.0428466796875,0.0143585205078125
1700516970641568800,2.09956884765625,-0.7881011962890625,-0.2366790771484375,0.0766754150390625
1700516970651578600,2.10957861328125,-1.1506805419921875,-0.1674041748046875,0.00030517578125
1700516970661587700,2.119587646484375,-1.198974609375,-0.07232666015625,0.0548248291015625
1700516970671597800,2.129597900390625,-0.8240814208984375,-0.0275115966796875,0.00830078125
1700516970681607700,2.139607666015625,-1.0500640869140625,-0.17529296875,0.0576019287109375
1700516970691616500,2.149616455078125,-0.82257080078125,-0.1382598876953125,0.0527191162109375
1700516970701626600,2.159626708984375,-1.03729248046875,-0.1158905029296875,-0.0034942626953125
1700516970711636500,2.169636474609375,-1.170318603515625,-0.065216064453125,0.060638427734375
1700516970721645600,2.1796455078125,-0.858123779296875,0.03387451171875,0.0151214599609375
1700516970731655700,2.18965576171875,-0.7934112548828125,-0.2627410888671875,0.07843017578125
1700516970741664000,2.1996640625,-1.2170562744140625,-0.13531494140625,-0.0034942626953125
1700516970751673900,2.209673828125,-1.140167236328125,-0.0577239990234375,0.0536346435546875
1700516970761684000,2.21968408203125,-0.8344879150390625,-0.030670166015625,0.008575439453125
1700516970771693000,2.229693115234375,-1.041534423828125,-0.1873321533203125,0.0649261474609375
1700516970781703000,2.239702880859375,-0.8204345703125,-0.121612548828125,0.0382843017578125
1700516970791713000,2.249713134765625,-1.10113525390625,-0.1142730712890625,0.008819580078125
1700516970801722000,2.25972216796875,-1.1104736328125,-0.035064697265625,0.05889892578125
1700516970811732000,2.26973193359375,-0.8366546630859375,-0.005523681640625,0.0159454345703125
1700516970821742000,2.2797421875,-0.8370208740234375,-0.2737579345703125,0.0810699462890625
1700516970831751200,2.289751220703125,-1.2560577392578125,-0.1088104248046875,-0.00537109375
1700516970841761000,2.299760986328125,-1.0639801025390625,-0.0653076171875,0.0577239990234375
1700516970851769900,2.309769775390625,-0.8423919677734375,-0.0453033447265625,0.010650634765625
1700516970861780000,2.319780029296875,-1.03155517578125,-0.208953857421875,0.0744781494140625
1700516970871789800,2.329789794921875,-0.838165283203125,-0.11029052734375,0.0249481201171875
1700516970881799000,2.339798828125,-1.137664794921875,-0.1304931640625,0.023834228515625
1700516970891809000,2.34980908203125,-1.050811767578125,-0.020294189453125,0.05157470703125
1700516970901819000,2.35981884765625,-0.8339996337890625,-0.053924560546875,0.025115966796875
1700516970911828000,2.369827880859375,-0.8791046142578125,-0.26873779296875,0.07769775390625
1700516970921838000,2.379838134765625,-1.2726287841796875,-0.0986480712890625,0.0088958740234375
1700516970931848000,2.389847900390625,-1.0079345703125,-0.0661163330078125,0.0581207275390625
1700516970941857000,2.39985693359375,-0.8688812255859375,-0.060577392578125,0.0216522216796875
1700516970951867100,2.4098671875,-1.0203399658203125,-0.1939239501953125,0.0775604248046875
1700516970961877000,2.419876953125,-0.841766357421875,-0.09063720703125,0.01824951171875
1700516970971885800,2.4298857421875,-1.1667022705078125,-0.1288909912109375,0.036529541015625
1700516970981896000,2.43989599609375,-1.02099609375,0.01336669921875,0.04290771484375
1700516970991906000,2.449906005859375,-0.8213958740234375,-0.067657470703125,0.037811279296875
1700516971001915000,2.459914794921875,-0.920501708984375,-0.256591796875,0.064605712890625
1700516971011925000,2.469925048828125,-1.26654052734375,-0.0821380615234375,0.0154266357421875
1700516971021935000,2.47993505859375,-0.9651336669921875,-0.049041748046875,0.04644775390625
1700516971031944000,2.48994384765625,-0.91363525390625,-0.0690765380859375,0.0213165283203125
1700516971041954000,2.4999541015625,-0.99908447265625,-0.1917572021484375,0.072784423828125
1700516971051964200,2.509964111328125,-0.8420257568359375,-0.084747314453125,0.0104522705078125
1700516971061973000,2.519972900390625,-1.186737060546875,-0.1368255615234375,0.03594970703125
1700516971071983000,2.529983154296875,-1.0157470703125,0.0166778564453125,0.0400238037109375
1700516971081993200,2.5399931640625,-0.818634033203125,-0.086151123046875,0.032745361328125
1700516971092001800,2.550001708984375,-0.93865966796875,-0.26568603515625,0.05218505859375
1700516971102012000,2.560011962890625,-1.253265380859375,-0.0904541015625,0.0147552490234375
1700516971112022000,2.57002197265625,-0.9580078125,-0.0614471435546875,0.044464111328125
1700516971122030800,2.58003076171875,-0.913909912109375,-0.0939788818359375,0.0159759521484375
1700516971132041000,2.590041015625,-0.997650146484375,-0.1826019287109375,0.0710906982421875
1700516971142051000,2.600051025390625,-0.813568115234375,-0.104949951171875,0.0176544189453125
1700516971152060000,2.610059814453125,-1.1766510009765625,-0.158782958984375,0.0333099365234375
1700516971162070000,2.620070068359375,-1.026885986328125,0.027374267578125,0.0482330322265625
1700516971172080000,2.630080078125,-0.7862548828125,-0.0833587646484375,0.0303192138671875
1700516971182089200,2.640089111328125,-0.96978759765625,-0.2850494384765625,0.058441162109375
1700516971192099000,2.65009912109375,-1.2415771484375,-0.072906494140625,0.0287322998046875
1700516971202109200,2.660109130859375,-0.9420013427734375,-0.06024169921875,0.0590667724609375
1700516971212119000,2.670119140625,-0.95416259765625,-0.089263916015625,0.0185394287109375
1700516971222127900,2.6801279296875,-0.9871063232421875,-0.166656494140625,0.0891571044921875
1700516971232138000,2.690137939453125,-0.8263702392578125,-0.1006317138671875,0.019989013671875
1700516971242147800,2.70014794921875,-1.1846771240234375,-0.13592529296875,0.0408477783203125
1700516971252157000,2.710156982421875,-1.0200042724609375,0.0295257568359375,0.0474700927734375
1700516971262167000,2.7201669921875,-0.799346923828125,-0.0855865478515625,0.045623779296875
1700516971272177000,2.730177001953125,-0.969970703125,-0.257171630859375,0.04266357421875
1700516971282186000,2.74018603515625,-1.253326416015625,-0.0713348388671875,0.049041748046875
1700516971292196000,2.750196044921875,-0.928375244140625,-0.0426483154296875,0.041290283203125
1700516971302206000,2.7602060546875,-0.952056884765625,-0.0951690673828125,0.0241241455078125
1700516971312216000,2.770216064453125,-0.9694061279296875,-0.179901123046875,0.0850982666015625
1700516971322225200,2.78022509765625,-0.8533172607421875,-0.083251953125,0.0086212158203125
1700516971332235000,2.790235107421875,-1.1917877197265625,-0.13946533203125,0.045013427734375
1700516971342245000,2.8002451171875,-0.99822998046875,0.020751953125,0.0340576171875
1700516971352254000,2.81025390625,-0.7926025390625,-0.1301727294921875,0.0469207763671875
1700516971362263800,2.820263916015625,-0.9586334228515625,-0.2388153076171875,0.0313262939453125
1700516971372274000,2.83027392578125,-1.2960205078125,-0.0991973876953125,0.05029296875
1700516971382284000,2.840283935546875,-0.8960113525390625,-0.0584564208984375,0.021392822265625
1700516971392292900,2.85029296875,-0.9463043212890625,-0.126922607421875,0.0353240966796875
1700516971402303000,2.860302978515625,-0.982177734375,-0.18212890625,0.0755462646484375
1700516971412313000,2.87031298828125,-0.8527374267578125,-0.100189208984375,0.0077362060546875
1700516971422322000,2.880322021484375,-1.2171630859375,-0.14990234375,0.0502166748046875
1700516971432332000,2.89033203125,-0.9791717529296875,0.0242156982421875,0.0377044677734375
1700516971442342100,2.900342041015625,-0.7937164306640625,-0.129150390625,0.0522918701171875
1700516971452352000,2.91035205078125,-1.001708984375,-0.2283782958984375,0.032989501953125
1700516971462361000,2.920361083984375,-1.28692626953125,-0.083587646484375,0.06048583984375
1700516971472371200,2.93037109375,-0.8843536376953125,-0.0413970947265625,0.0345611572265625
1700516971482381000,2.940381103515625,-0.9508514404296875,-0.1125335693359375,0.0386505126953125
1700516971492390000,2.950389892578125,-0.9695281982421875,-0.1431732177734375,0.074493408203125
1700516971502400000,2.96039990234375,-0.878448486328125,-0.0827789306640625,0.0289154052734375
1700516971512409900,2.970409912109375,-1.1831207275390625,-0.1409912109375,0.04864501953125
1700516971522420000,2.980419921875,-0.9605560302734375,0.038330078125,0.0399932861328125
1700516971532429000,2.990428955078125,-0.800628662109375,-0.1147308349609375,0.0577392578125
1700516971542439000,3.00043896484375,-1.0106964111328125,-0.238616943359375,0.03497314453125
1700516971552449000,3.010448974609375,-1.24945068359375,-0.080841064453125,0.0594024658203125
1700516971562459000,3.020458984375,-0.883575439453125,-0.050201416015625,0.0360107421875
1700516971572468000,3.030468017578125,-0.9709930419921875,-0.1294708251953125,0.0367431640625
1700516971582478000,3.04047802734375,-0.960540771484375,-0.15338134765625,0.076568603515625
1700516971592488000,3.050488037109375,-0.8622894287109375,-0.1083221435546875,0.0114288330078125
1700516971602498000,3.060498046875,-1.2017364501953125,-0.1587677001953125,0.048858642578125
1700516971612507100,3.070507080078125,-0.96160888671875,0.0313720703125,0.0346221923828125
1700516971622517000,3.08051708984375,-0.7929840087890625,-0.128204345703125,0.053558349609375
1700516971632527000,3.090527099609375,-1.035400390625,-0.266571044921875,0.0272064208984375
1700516971642537200,3.100537109375,-1.240234375,-0.0667724609375,0.0494537353515625
1700516971652546000,3.110546142578125,-0.921630859375,-0.0511322021484375,0.0352630615234375
1700516971662556000,3.120555908203125,-0.9806671142578125,-0.1179656982421875,0.0320587158203125
1700516971672566000,3.13056591796875,-0.92327880859375,-0.160858154296875,0.0787811279296875
1700516971682576000,3.140575927734375,-0.87445068359375,-0.107757568359375,0.0105743408203125
1700516971692585000,3.1505849609375,-1.1947784423828125,-0.1237640380859375,0.043487548828125
1700516971702595000,3.160594970703125,-0.9980316162109375,0.062530517578125,0.0374755859375
1700516971712605000,3.17060498046875,-0.781951904296875,-0.1241912841796875,0.0598907470703125
1700516971722615000,3.180614990234375,-1.0121917724609375,-0.2602386474609375,0.029693603515625
1700516971732625000,3.190625,-1.212005615234375,-0.0516510009765625,0.0349578857421875
1700516971742633700,3.2006337890625,-0.9676361083984375,-0.013580322265625,0.047882080078125
1700516971752643800,3.210643798828125,-0.9947509765625,-0.1283111572265625,0.0271453857421875
1700516971762654000,3.220654052734375,-0.88165283203125,-0.124176025390625,0.083160400390625
1700516971772663800,3.230663818359375,-0.8553314208984375,-0.1280517578125,-0.0021514892578125
1700516971782673000,3.2406728515625,-1.25762939453125,-0.10809326171875,0.05096435546875
1700516971792683000,3.25068310546875,-0.951080322265625,0.0755615234375,0.028594970703125
1700516971802692900,3.26069287109375,-0.7581634521484375,-0.17987060546875,0.0610809326171875
1700516971812703000,3.270702880859375,-1.052947998046875,-0.2251129150390625,0.0112457275390625
1700516971822712800,3.280712890625,-1.2479095458984375,-0.06109619140625,0.058502197265625
1700516971832721700,3.2907216796875,-0.896697998046875,-0.00885009765625,0.01214599609375
1700516971842731800,3.300731689453125,-1.0102386474609375,-0.1720733642578125,0.0481414794921875
1700516971852741600,3.31074169921875,-0.8217010498046875,-0.1408233642578125,0.0636749267578125
1700516971862751700,3.320751708984375,-0.980194091796875,-0.113861083984375,-0.0002288818359375
1700516971872760800,3.3307607421875,-1.22308349609375,-0.096954345703125,0.0617523193359375
1700516971882770700,3.340770751953125,-0.875244140625,0.064910888671875,0.0109100341796875
1700516971892780800,3.35078076171875,-0.7777557373046875,-0.2424774169921875,0.0799560546875
1700516971902791000,3.360791015625,-1.158355712890625,-0.17828369140625,0.0020294189453125
1700516971912800800,3.37080078125,-1.1897735595703125,-0.05291748046875,0.060333251953125
1700516971922809900,3.380809814453125,-0.8616943359375,-0.0099639892578125,0.0047607421875
1700516971932820000,3.390820068359375,-1.0225677490234375,-0.1876220703125,0.059234619140625
1700516971942829800,3.400829833984375,-0.8142852783203125,-0.1296844482421875,0.0567779541015625
1700516971952840000,3.41083984375,-1.0661468505859375,-0.114227294921875,-0.003387451171875
1700516971962849800,3.420849853515625,-1.1424102783203125,-0.049896240234375,0.0629425048828125
1700516971972859000,3.43085888671875,-0.84759521484375,0.03497314453125,0.012054443359375
1700516971982869000,3.440868896484375,-0.8285064697265625,-0.2813873291015625,0.081939697265625
1700516971992878800,3.45087890625,-1.2150421142578125,-0.1253814697265625,0.0022125244140625
1700516972002889000,3.460888916015625,-1.09368896484375,-0.0475006103515625,0.0557098388671875
1700516972012898800,3.47089892578125,-0.8741302490234375,-0.0346527099609375,0.00946044921875
1700516972022907600,3.48090771484375,-1.0267791748046875,-0.1960296630859375,0.0667724609375
1700516972032917800,3.490917724609375,-0.8031768798828125,-0.105224609375,0.043792724609375
1700516972042927600,3.500927734375,-1.1423492431640625,-0.1369476318359375,0.0090484619140625
1700516972052937700,3.510937744140625,-1.0787353515625,-0.00445556640625,0.0584259033203125
1700516972062947800,3.52094775390625,-0.8159942626953125,-0.0183258056640625,0.0209808349609375
1700516972072957000,3.53095703125,-0.900177001953125,-0.2910003662109375,0.077178955078125
1700516972082966800,3.540966796875,-1.258148193359375,-0.097320556640625,0.0124969482421875
1700516972092977000,3.550976806640625,-0.9901275634765625,-0.04400634765625,0.05059814453125
1700516972102986800,3.56098681640625,-0.913543701171875,-0.0671844482421875,0.01837158203125
1700516972112996900,3.570996826171875,-1.0047760009765625,-0.1924285888671875,0.077056884765625
1700516972123006700,3.5810068359375,-0.82574462890625,-0.0979461669921875,0.0231781005859375
1700516972133015800,3.591015869140625,-1.1836700439453125,-0.1414947509765625,0.0321502685546875
1700516972143026000,3.60102587890625,-1.0084381103515625,0.0303192138671875,0.0457305908203125
1700516972153035800,3.611035888671875,-0.8026885986328125,-0.0925445556640625,0.03643798828125
1700516972163046000,3.6210458984375,-0.967010498046875,-0.2629241943359375,0.0579071044921875
1700516972173056000,3.631055908203125,-1.2700653076171875,-0.0856170654296875,0.031158447265625
1700516972183065900,3.64106591796875,-0.9080352783203125,-0.03326416015625,0.0380706787109375
1700516972193074700,3.65107470703125,-0.960662841796875,-0.106658935546875,0.0298919677734375
1700516972203084800,3.661084716796875,-0.9571685791015625,-0.180511474609375,0.082183837890625
1700516972213094700,3.6710947265625,-0.8853607177734375,-0.1000518798828125,0.0063629150390625
1700516972223104800,3.681104736328125,-1.18524169921875,-0.135101318359375,0.046600341796875
1700516972233114600,3.691114501953125,-0.95013427734375,0.04730224609375,0.0287628173828125
1700516972243124700,3.701124755859375,-0.814971923828125,-0.145751953125,0.048828125
1700516972253133800,3.7111337890625,-1.03826904296875,-0.228363037109375,0.0400390625
1700516972263143700,3.721143798828125,-1.23992919921875,-0.0824127197265625,0.042083740234375
1700516972273153800,3.73115380859375,-0.856048583984375,-0.0282440185546875,0.0229339599609375
1700516972283164000,3.741163818359375,-1.0107574462890625,-0.1386871337890625,0.03851318359375
1700516972293173800,3.751173828125,-0.91412353515625,-0.1406097412109375,0.0747528076171875
1700516972303184000,3.761183837890625,-0.9259490966796875,-0.118743896484375,-0.002899169921875
1700516972313193000,3.77119287109375,-1.1908111572265625,-0.1142730712890625,0.0587310791015625
1700516972323202800,3.781202880859375,-0.8976898193359375,0.0598907470703125,0.016143798828125
1700516972333213000,3.791212890625,-0.8173065185546875,-0.1912078857421875,0.066436767578125
1700516972343222800,3.801222900390625,-1.1166534423828125,-0.2010498046875,0.021392822265625
1700516972353233000,3.81123291015625,-1.1940765380859375,-0.070892333984375,0.04901123046875
1700516972363242800,3.82124267578125,-0.8199615478515625,-0.02099609375,0.01068115234375
1700516972373252900,3.8312529296875,-1.0580902099609375,-0.1630859375,0.0522308349609375
1700516972383263000,3.841262939453125,-0.881591796875,-0.1324310302734375,0.0631256103515625
1700516972393271800,3.851271728515625,-0.9848175048828125,-0.114410400390625,0.0013427734375
1700516972403281700,3.86128173828125,-1.1443634033203125,-0.100738525390625,0.0606689453125
1700516972413291800,3.871291748046875,-0.8969268798828125,0.0428924560546875,0.0112152099609375
1700516972423301600,3.881301513671875,-0.8253326416015625,-0.220123291015625,0.076690673828125
1700516972433311700,3.891311767578125,-1.1571197509765625,-0.1640472412109375,0.008697509765625
1700516972443321600,3.901321533203125,-1.1595001220703125,-0.0830841064453125,0.0569305419921875
1700516972453331700,3.911331787109375,-0.810089111328125,-0.01898193359375,0.0068511962890625
1700516972463340800,3.9213408203125,-1.0660247802734375,-0.1774749755859375,0.059417724609375
1700516972473350700,3.9313505859375,-0.860870361328125,-0.110626220703125,0.0594635009765625
1700516972483360800,3.94136083984375,-1.032623291015625,-0.13360595703125,0.00103759765625
1700516972493371000,3.951370849609375,-1.1136932373046875,-0.0749664306640625,0.0632781982421875
1700516972503380700,3.961380615234375,-0.8708038330078125,0.027740478515625,0.0106048583984375
1700516972513390800,3.971390869140625,-0.850250244140625,-0.2415618896484375,0.081024169921875
1700516972523400700,3.981400634765625,-1.1939544677734375,-0.1465606689453125,0.0059661865234375
1700516972533410800,3.991410888671875,-1.107421875,-0.0754547119140625,0.0566558837890625
1700516972543420000,4.001419921875,-0.8138580322265625,-0.0283966064453125,0.0052490234375
1700516972553429800,4.0114296875,-1.089935302734375,-0.1863250732421875,0.0678863525390625
1700516972563439900,4.02143994140625,-0.825653076171875,-0.0943450927734375,0.0487213134765625
1700516972573449700,4.03144970703125,-1.0727386474609375,-0.1469268798828125,0.011627197265625
1700516972583459800,4.0414599609375,-1.103668212890625,-0.05120849609375,0.0603485107421875
1700516972593470000,4.051469970703125,-0.8467559814453125,0.0136566162109375,0.0120697021484375
1700516972603479800,4.061479736328125,-0.8689727783203125,-0.2560882568359375,0.08343505859375
1700516972613490000,4.071489990234375,-1.2332611083984375,-0.1314697265625,0.00506591796875
1700516972623499800,4.081499755859375,-1.0559539794921875,-0.0659637451171875,0.0576324462890625
1700516972633508900,4.0915087890625,-0.8313446044921875,-0.03826904296875,0.003265380859375
1700516972643519000,4.10151904296875,-1.0821380615234375,-0.1920013427734375,0.0723419189453125
1700516972653528600,4.111528564453125,-0.8216552734375,-0.088348388671875,0.0380859375
1700516972663538700,4.12153857421875,-1.1021728515625,-0.147216796875,0.0165863037109375
1700516972673548800,4.131548828125,-1.07366943359375,-0.03533935546875,0.0552825927734375
1700516972683558700,4.14155859375,-0.8444061279296875,-0.012664794921875,0.0170135498046875
1700516972693568800,4.15156884765625,-0.880706787109375,-0.256988525390625,0.0775604248046875
1700516972703578600,4.16157861328125,-1.2532501220703125,-0.121673583984375,0.0111236572265625
1700516972713588700,4.171588623046875,-1.0212249755859375,-0.0635986328125,0.052825927734375
1700516972723597800,4.181597900390625,-0.8478851318359375,-0.055206298828125,0.01025390625
1700516972733607700,4.191607666015625,-1.0740814208984375,-0.1858062744140625,0.070404052734375
1700516972743618800,4.201618896484375,-0.8095855712890625,-0.087371826171875,0.036102294921875
1700516972753628700,4.211628662109375,-1.138458251953125,-0.1546783447265625,0.0218963623046875
1700516972763638800,4.221638671875,-1.0553436279296875,-0.010650634765625,0.051422119140625
1700516972773648600,4.231648681640625,-0.8180389404296875,-0.0367584228515625,0.0228118896484375
1700516972783658800,4.24165869140625,-0.9110565185546875,-0.265655517578125,0.072723388671875
1700516972793668900,4.2516689453125,-1.275421142578125,-0.108154296875,0.0182952880859375
1700516972803678700,4.2616787109375,-0.9700469970703125,-0.0536651611328125,0.0488128662109375
1700516972813688800,4.271688720703125,-0.8824005126953125,-0.0706024169921875,0.01336669921875
1700516972823698400,4.281698486328125,-1.0467987060546875,-0.18743896484375,0.0742645263671875
1700516972833708500,4.29170849609375,-0.8210296630859375,-0.0860443115234375,0.028839111328125
1700516972843717600,4.301717529296875,-1.163787841796875,-0.149505615234375,0.02978515625
1700516972853727500,4.3117275390625,-1.0240478515625,0.005828857421875,0.046600341796875
1700516972863737600,4.321737548828125,-0.813446044921875,-0.0679473876953125,0.0282440185546875
1700516972873747700,4.331747802734375,-0.9405975341796875,-0.255950927734375,0.06378173828125
1700516972883757600,4.341757568359375,-1.2838592529296875,-0.101104736328125,0.02838134765625
1700516972893767700,4.351767578125,-0.9260101318359375,-0.048004150390625,0.0386199951171875
1700516972903777500,4.361777587890625,-0.9130401611328125,-0.0951690673828125,0.0249481201171875
1700516972913787600,4.37178759765625,-1.023834228515625,-0.174468994140625,0.0747833251953125
1700516972923797500,4.381797607421875,-0.82867431640625,-0.0914764404296875,0.0182037353515625
1700516972933807600,4.3918076171875,-1.1980133056640625,-0.144134521484375,0.041107177734375
1700516972943817700,4.401817626953125,-0.986724853515625,0.0261383056640625,0.0381927490234375
1700516972953827600,4.41182763671875,-0.7937774658203125,-0.107696533203125,0.0381927490234375
1700516972963837700,4.421837646484375,-0.994171142578125,-0.247772216796875,0.053253173828125
1700516972973847600,4.43184765625,-1.2821502685546875,-0.0867156982421875,0.0380859375
1700516972983856600,4.441856689453125,-0.8766937255859375,-0.0413360595703125,0.0319976806640625
1700516972993866800,4.45186669921875,-0.9526214599609375,-0.1153411865234375,0.03033447265625
1700516973003876600,4.461876708984375,-0.9740447998046875,-0.174224853515625,0.0740966796875
1700516973013886700,4.47188671875,-0.888916015625,-0.0869140625,0.01470947265625
1700516973023896600,4.481896484375,-1.1721343994140625,-0.1382904052734375,0.045989990234375
1700516973033906700,4.49190673828125,-0.9565277099609375,0.0276336669921875,0.0292205810546875
1700516973043916800,4.501916748046875,-0.8119964599609375,-0.139404296875,0.049530029296875
1700516973053926700,4.5119267578125,-1.0250091552734375,-0.2161865234375,0.0409088134765625
1700516973063936800,4.521936767578125,-1.26458740234375,-0.0949859619140625,0.043853759765625
1700516973073946600,4.531946533203125,-0.85235595703125,-0.0357666015625,0.0232086181640625
1700516973083956700,4.541956787109375,-0.982177734375,-0.1322479248046875,0.0399627685546875
1700516973093966800,4.551966796875,-0.957977294921875,-0.154144287109375,0.0708465576171875
1700516973103976700,4.561976806640625,-0.9086456298828125,-0.0925445556640625,0.0069427490234375
1700516973113986800,4.57198681640625,-1.1720123291015625,-0.136474609375,0.05340576171875
1700516973123996700,4.58199658203125,-0.940948486328125,0.035125732421875,0.0231170654296875
1700516973134006800,4.5920068359375,-0.8134307861328125,-0.15435791015625,0.056732177734375
1700516973144016600,4.6020166015625,-1.0490264892578125,-0.2038726806640625,0.032958984375
1700516973154026800,4.61202685546875,-1.2549591064453125,-0.0932464599609375,0.05059814453125
1700516973164036900,4.622036865234375,-0.833984375,-0.03192138671875,0.01812744140625
1700516973174046700,4.632046630859375,-0.99945068359375,-0.1477508544921875,0.04876708984375
1700516973184056600,4.642056640625,-0.9389801025390625,-0.1353912353515625,0.0637664794921875
1700516973194065700,4.652065673828125,-0.9175872802734375,-0.1011199951171875,0.0120391845703125
1700516973204075500,4.662075439453125,-1.1822509765625,-0.136932373046875,0.0556488037109375
1700516973214085600,4.672085693359375,-0.9245758056640625,0.037139892578125,0.01873779296875
1700516973224095500,4.682095458984375,-0.81414794921875,-0.1646881103515625,0.0606231689453125
1700516973234105600,4.692105712890625,-1.0593414306640625,-0.1982574462890625,0.0288543701171875
1700516973244115700,4.70211572265625,-1.2450714111328125,-0.099884033203125,0.0558319091796875
1700516973254125600,4.71212548828125,-0.83050537109375,-0.0381927490234375,0.0105743408203125
1700516973264135700,4.7221357421875,-1.0061492919921875,-0.1537322998046875,0.0536041259765625
1700516973274145500,4.7321455078125,-0.930816650390625,-0.1217803955078125,0.0620880126953125
1700516973284155600,4.74215576171875,-0.9088134765625,-0.1172027587890625,0.0072784423828125
1700516973294165500,4.75216552734375,-1.2120208740234375,-0.1277618408203125,0.0560455322265625
1700516973304175600,4.762175537109375,-0.901214599609375,0.041168212890625,0.0196075439453125
1700516973314185700,4.772185791015625,-0.803924560546875,-0.173095703125,0.0600433349609375
1700516973324195600,4.782195556640625,-1.098236083984375,-0.208465576171875,0.02386474609375
1700516973334205700,4.792205810546875,-1.227142333984375,-0.0797271728515625,0.05621337890625
1700516973344215600,4.802215576171875,-0.81903076171875,-0.04150390625,0.007843017578125
1700516973354225700,4.8122255859375,-1.0293121337890625,-0.1511993408203125,0.0541229248046875
1700516973364235500,4.822235595703125,-0.9029388427734375,-0.128875732421875,0.0584869384765625
1700516973374245600,4.83224560546875,-0.9331207275390625,-0.1139068603515625,0.0060882568359375
1700516973384255700,4.842255859375,-1.2019500732421875,-0.11895751953125,0.0620574951171875
1700516973394265600,4.852265625,-0.8958282470703125,0.047027587890625,0.0114593505859375
1700516973404275700,4.862275634765625,-0.8008575439453125,-0.1941986083984375,0.06915283203125
1700516973414285600,4.87228564453125,-1.128021240234375,-0.1953887939453125,0.012603759765625
1700516973424295700,4.882295654296875,-1.2147674560546875,-0.0719451904296875,0.064208984375
1700516973434305800,4.892305908203125,-0.806488037109375,-0.032867431640625,0.001739501953125
1700516973444315600,4.902315673828125,-1.04547119140625,-0.1663970947265625,0.06024169921875
1700516973454325800,4.91232568359375,-0.8754730224609375,-0.1286163330078125,0.061065673828125
1700516973464335600,4.922335693359375,-0.979583740234375,-0.111724853515625,0.0013427734375
1700516973474345700,4.932345703125,-1.172607421875,-0.103240966796875,0.06829833984375
1700516973484355600,4.94235546875,-0.8835906982421875,0.0387115478515625,0.011505126953125
1700516973494365700,4.95236572265625,-0.8115234375,-0.22125244140625,0.0757904052734375
1700516973504375800,4.962375732421875,-1.1652069091796875,-0.167938232421875,0.0077972412109375
1700516973514385700,4.9723857421875,-1.178619384765625,-0.074188232421875,0.065338134765625
1700516973524395800,4.982395751953125,-0.802001953125,-0.0287933349609375,-0.0015106201171875
1700516973534405600,4.992405517578125,-1.0736236572265625,-0.1777801513671875,0.066986083984375
1700516973544415700,5.002415771484375,-0.823486328125,-0.1145172119140625,0.05853271484375
1700516973554425600,5.012425537109375,-1.038818359375,-0.1319732666015625,-0.0003662109375
1700516973564435700,5.022435791015625,-1.170562744140625,-0.066436767578125,0.0741729736328125
1700516973574445800,5.03244580078125,-0.832550048828125,0.0284881591796875,0.0047149658203125
1700516973584455700,5.04245556640625,-0.8370819091796875,-0.271453857421875,0.0828704833984375
1700516973594465800,5.0524658203125,-1.19671630859375,-0.14398193359375,0.00103759765625
1700516973604475600,5.0624755859375,-1.1237945556640625,-0.0622406005859375,0.0698699951171875
1700516973614485800,5.07248583984375,-0.840728759765625,-0.031951904296875,-0.0070343017578125
1700516973624495900,5.082495849609375,-1.070648193359375,-0.187042236328125,0.075286865234375
1700516973634505700,5.092505615234375,-0.789520263671875,-0.122650146484375,0.0491790771484375
1700516973644515800,5.102515869140625,-1.062042236328125,-0.12896728515625,-0.00494384765625
1700516973654525700,5.112525634765625,-1.1683502197265625,-0.0314178466796875,0.084503173828125
1700516973664535600,5.12253564453125,-0.821014404296875,0.0040740966796875,0.0074615478515625
1700516973674545400,5.13254541015625,-0.8544464111328125,-0.3032989501953125,0.07391357421875
1700516973684555500,5.142555419921875,-1.2023773193359375,-0.09490966796875,0.000885009765625
1700516973694565600,5.152565673828125,-1.1179351806640625,-0.0625152587890625,0.0811004638671875
1700516973704575500,5.162575439453125,-0.8522491455078125,-0.0428314208984375,-0.0169677734375
1700516973714585600,5.172585693359375,-1.0612030029296875,-0.193023681640625,0.0905609130859375
1700516973724595500,5.182595458984375,-0.7270660400390625,-0.128692626953125,0.0208587646484375
1700516973734605600,5.19260546875,-1.192291259765625,-0.10430908203125,0.0100860595703125
1700516973744615200,5.202615234375,-1.1071014404296875,0.010498046875,0.08447265625
1700516973754625000,5.212625,-0.7602996826171875,-0.05963134765625,0.0032806396484375
1700516973764636200,5.22263623046875,-0.919036865234375,-0.3236083984375,0.06121826171875
1700516973774646000,5.23264599609375,-1.2374420166015625,-0.048095703125,0.027557373046875
1700516973784656100,5.24265625,-1.0162506103515625,-0.0556793212890625,0.06634521484375
1700516973794666000,5.252666015625,-0.916961669921875,-0.0751953125,-0.00244140625
1700516973804676000,5.262676025390625,-0.9750213623046875,-0.2158966064453125,0.11639404296875
1700516973814686000,5.27268603515625,-0.7590179443359375,-0.12078857421875,-0.024444580078125
1700516973824696000,5.282696044921875,-1.30194091796875,-0.0881195068359375,0.05877685546875
1700516973834706200,5.2927060546875,-0.9741973876953125,0.050537109375,0.0595855712890625
1700516973844716000,5.302716064453125,-0.769378662109375,-0.179779052734375,0.023529052734375
1700516973854726100,5.31272607421875,-1.0026092529296875,-0.264495849609375,0.0374755859375
1700516973864736000,5.322736083984375,-1.2640228271484375,-0.030303955078125,0.05731201171875
1700516973874746000,5.33274609375,-0.9122772216796875,-0.0372314453125,0.0335693359375
1700516973884756000,5.342755859375,-1.0034332275390625,-0.1266632080078125,0.030853271484375
1700516973894766000,5.35276611328125,-0.8583831787109375,-0.2088165283203125,0.096435546875
1700516973904776200,5.362776123046875,-0.931304931640625,-0.0866851806640625,-0.0407867431640625
1700516973914786000,5.3727861328125,-1.25244140625,-0.07440185546875,0.0872955322265625
1700516973924796200,5.382796142578125,-0.865325927734375,0.04241943359375,0.0138702392578125
1700516973934806000,5.392805908203125,-0.805816650390625,-0.272308349609375,0.0703277587890625
1700516973944816000,5.402816162109375,-1.0863037109375,-0.1694488525390625,0.0095062255859375
1700516973954826200,5.412826171875,-1.2232513427734375,-0.044097900390625,0.064788818359375
1700516973964836000,5.422836181640625,-0.8505859375,-0.0225372314453125,0.0151214599609375
1700516973974847000,5.432846923828125,-1.02978515625,-0.1714324951171875,0.050537109375
1700516973984857000,5.442857177734375,-0.810211181640625,-0.172088623046875,0.0714263916015625
1700516973994867200,5.4528671875,-1.064697265625,-0.0934295654296875,-0.0279541015625
1700516974004877000,5.462876953125,-1.16253662109375,-0.05029296875,0.1031036376953125
1700516974014887200,5.47288720703125,-0.8117523193359375,0.007110595703125,0.002685546875
1700516974024897000,5.48289697265625,-0.88690185546875,-0.3011627197265625,0.0847320556640625
1700516974034907100,5.4929072265625,-1.16973876953125,-0.0998077392578125,0.0040283203125
1700516974044917000,5.5029169921875,-1.1118927001953125,-0.069976806640625,0.0594482421875
1700516974054927000,5.512927001953125,-0.8468475341796875,-0.0167388916015625,0.00103759765625
1700516974064937200,5.522937255859375,-1.0601806640625,-0.198944091796875,0.08306884765625
1700516974074947000,5.532947021484375,-0.787872314453125,-0.120269775390625,0.0344085693359375
1700516974084957200,5.542957275390625,-1.1578826904296875,-0.1153106689453125,0.00872802734375
1700516974094967000,5.552967041015625,-1.070526123046875,-0.0072784423828125,0.0708770751953125
1700516974104977200,5.56297705078125,-0.7992401123046875,-0.0491790771484375,0.0118560791015625
1700516974114988000,5.572988037109375,-0.9177398681640625,-0.3009033203125,0.0806884765625
1700516974124998100,5.582998046875,-1.2292938232421875,-0.0768890380859375,0.0169219970703125
1700516974135008000,5.593008056640625,-1.0344390869140625,-0.071044921875,0.0457000732421875
1700516974145018000,5.60301806640625,-0.8728790283203125,-0.0346221923828125,0.01025390625
1700516974155028200,5.6130283203125,-1.03814697265625,-0.228912353515625,0.097412109375
1700516974165038000,5.6230380859375,-0.77734375,-0.1071624755859375,0.0174407958984375
1700516974175048200,5.633048095703125,-1.1926422119140625,-0.132293701171875,0.0450286865234375
1700516974185058000,5.64305810546875,-1.0208282470703125,0.02459716796875,0.0503692626953125
1700516974195068200,5.653068115234375,-0.7984619140625,-0.085418701171875,0.031341552734375
1700516974205078000,5.663078125,-0.9509735107421875,-0.2670440673828125,0.0639190673828125
1700516974215088000,5.673088134765625,-1.2422943115234375,-0.0805816650390625,0.030059814453125
1700516974225098200,5.68309814453125,-0.940399169921875,-0.034820556640625,0.0338592529296875
1700516974235109000,5.693109130859375,-1.0821990966796875,-0.286865234375,0.047515869140625
1700516974245119000,5.703118896484375,-1.0035400390625,0.0937042236328125,0.1035003662109375
1700516974255129000,5.713129150390625,-0.380859375,-0.3517913818359375,0.019775390625
1700516974265139200,5.72313916015625,-1.663177490234375,-0.131134033203125,-0.0265045166015625
1700516974275149000,5.733149169921875,-1.1599273681640625,0.16668701171875,0.2767486572265625
1700516974285159200,5.7431591796875,-0.2389678955078125,-0.3605194091796875,-0.12109375
1700516974295169000,5.7531689453125,-1.3094024658203125,-0.3333282470703125,0.017120361328125
1700516974305179100,5.76317919921875,-1.3649444580078125,-0.0280303955078125,0.09405517578125
1700516974315189200,5.773189208984375,-0.777191162109375,0.0782623291015625,-0.0377349853515625
1700516974325199000,5.78319921875,-0.893463134765625,-0.4410858154296875,0.1589813232421875
1700516974335209200,5.793209228515625,-0.98333740234375,-0.331756591796875,-0.0988922119140625
1700516974345220000,5.80322021484375,-1.1333465576171875,0.24542236328125,0.09954833984375
1700516974355230200,5.813230224609375,-0.9523773193359375,-0.1623687744140625,0.048583984375
1700516974365240000,5.823239990234375,-0.7964324951171875,-0.4488372802734375,0.02117919921875
1700516974375250200,5.833250244140625,-1.0291290283203125,-0.061981201171875,0.013946533203125
1700516974385260000,5.843260009765625,-1.1835784912109375,-0.1245269775390625,0.0671539306640625
1700516974395270100,5.853270263671875,-1.02960205078125,0.131927490234375,0.059600830078125
1700516974405280000,5.863280029296875,-0.48992919921875,-0.64422607421875,0.041961669921875
1700516974415290000,5.8732900390625,-1.316864013671875,-0.0458984375,-0.123748779296875
1700516974425300200,5.88330029296875,-1.400115966796875,0.2657623291015625,0.375885009765625
1700516974435311000,5.89331103515625,-0.22088623046875,-0.6669769287109375,-0.224884033203125
1700516974445321000,5.903321044921875,-1.2997283935546875,-0.18426513671875,0.058685302734375
1700516974455331000,5.9133310546875,-1.376739501953125,0.006744384765625,0.1039581298828125
1700516974465341200,5.923341064453125,-0.5286865234375,-0.1080780029296875,0.03424072265625
1700516974475351000,5.93335107421875,-0.74322509765625,-0.637115478515625,-0.0630340576171875
1700516974485361200,5.943361083984375,-1.8661651611328125,0.149505615234375,0.1487274169921875
1700516974495371000,5.95337109375,-0.3378143310546875,-0.3295135498046875,0.066436767578125
1700516974505381000,5.963381103515625,-0.9425048828125,-0.503875732421875,-0.074554443359375
1700516974515392000,5.97339208984375,-1.6621551513671875,-0.0785980224609375,0.117034912109375
1700516974525402000,5.983402099609375,-0.45550537109375,-0.3132476806640625,0.09857177734375
1700516974535412000,5.993411865234375,-0.761962890625,-0.4610443115234375,-0.14434814453125
1700516974545422000,6.003422119140625,-1.756500244140625,-0.3013153076171875,0.330657958984375
1700516974555432200,6.01343212890625,-0.399810791015625,-0.6082305908203125,-0.153656005859375
1700516974565442000,6.023442138671875,-0.886199951171875,-0.179107666015625,0.0782318115234375
1700516974575452200,6.0334521484375,-1.3835601806640625,-0.392791748046875,0.1624603271484375
1700516974585462000,6.0434619140625,-0.6215057373046875,-0.6573028564453125,-0.082611083984375
1700516974595473200,6.05347314453125,-1.141632080078125,-0.1047210693359375,0.01422119140625
1700516974605483000,6.06348291015625,-1.38739013671875,-0.9905548095703125,0.2951202392578125
1700516974615493000,6.0734931640625,-0.701995849609375,-0.700286865234375,-0.2288055419921875
1700516974625503000,6.0835029296875,-1.129180908203125,0.052459716796875,0.0746307373046875
1700516974635513000,6.09351318359375,-0.704925537109375,-0.783447265625,0.2015228271484375
1700516974645523000,6.10352294921875,-0.4080047607421875,-0.10858154296875,-0.2022247314453125
1700516974655533000,6.113532958984375,-1.43719482421875,-0.501220703125,0.3021697998046875
1700516974665543200,6.123543212890625,-0.9478302001953125,-0.900054931640625,-0.001190185546875
1700516974675554000,6.133553955078125,-0.8704376220703125,0.2216644287109375,-0.0754241943359375
1700516974685564200,6.143564208984375,-1.0780792236328125,-0.4829254150390625,0.247894287109375
1700516974695574000,6.153573974609375,-0.75555419921875,-0.63714599609375,-0.0565948486328125
1700516974705584000,6.163584228515625,-0.9346160888671875,-0.4408111572265625,0.019012451171875
1700516974715594000,6.173593994140625,-1.70086669921875,-1.017425537109375,0.1223602294921875
1700516974725604000,6.18360400390625,-0.598052978515625,-0.32073974609375,-0.0774688720703125
1700516974735615000,6.193614990234375,-1.2426605224609375,-0.64013671875,0.1319732666015625
1700516974745628700,6.203628662109375,-0.586151123046875,-0.5978546142578125,0.023529052734375
1700516974755638500,6.213638427734375,-0.48675537109375,-0.5066986083984375,0.076934814453125
1700516974765648600,6.223648681640625,-1.2230072021484375,-0.8173675537109375,0.068084716796875
1700516974775658500,6.233658447265625,-0.4777984619140625,-0.227386474609375,0.0062255859375
1700516974785668600,6.243668701171875,-1.5960235595703125,-0.586822509765625,0.044830322265625
1700516974795678700,6.2536787109375,-0.615234375,-0.330078125,-0.0298309326171875
1700516974805689600,6.263689697265625,-0.8404388427734375,-0.518890380859375,0.052734375
1700516974815699500,6.273699462890625,-1.4382476806640625,-0.5926055908203125,0.0167236328125
1700516974825709600,6.28370947265625,-0.0229949951171875,-0.2758026123046875,-0.00408935546875
1700516974835719700,6.2937197265625,-1.9595184326171875,-0.77008056640625,0.1044769287109375
1700516974845729500,6.3037294921875,-0.630096435546875,-0.7742767333984375,0.0338897705078125
1700516974855739600,6.31373974609375,-1.279632568359375,-0.5737457275390625,0.04107666015625
1700516974865750500,6.32375048828125,-0.6619720458984375,-0.59539794921875,0.0172271728515625
1700516974875760600,6.3337607421875,-0.5778656005859375,-0.698638916015625,0.0465545654296875
1700516974885770500,6.3437705078125,-1.2121429443359375,-0.9217071533203125,-0.0336761474609375
1700516974895780600,6.353780517578125,-0.7838134765625,-0.621368408203125,0.101654052734375
1700516974905790500,6.36379052734375,-1.0677490234375,-0.581573486328125,0.020172119140625
1700516974915800600,6.373800537109375,-0.258148193359375,-0.2252349853515625,0.0088348388671875
1700516974925811500,6.3838115234375,-0.9789581298828125,-0.417755126953125,0.1546630859375
1700516974935821600,6.393821533203125,-1.2149200439453125,-0.2233123779296875,0.1826019287109375
1700516974945831400,6.40383154296875,-0.6815032958984375,-0.71307373046875,0.0154266357421875
1700516974955841500,6.413841552734375,-1.7221832275390625,-0.9123077392578125,-0.1298828125
1700516974965851600,6.4238515625,-0.760711669921875,-0.7688751220703125,0.036224365234375
1700516974975861500,6.433861572265625,-1.33404541015625,-0.7507781982421875,-0.0664520263671875
1700516974985872400,6.443872314453125,-0.4670867919921875,-0.7212982177734375,0.13983154296875
1700516974995882500,6.453882568359375,-0.56988525390625,-0.707244873046875,0.1071014404296875
1700516975005892600,6.463892578125,-0.6304168701171875,-0.327056884765625,-0.07489013671875
1700516975015902500,6.47390234375,-1.26885986328125,-0.7000274658203125,0.1834869384765625
1700516975025912600,6.48391259765625,-1.16900634765625,-0.3950347900390625,-0.102508544921875
1700516975035922400,6.49392236328125,-0.949554443359375,-0.606475830078125,0.09735107421875
1700516975045933600,6.50393359375,-1.0058135986328125,-0.8154754638671875,0.0165557861328125
1700516975055943400,6.513943359375,-0.3621826171875,-0.3609771728515625,-0.0059356689453125
1700516975065953500,6.52395361328125,-1.2695465087890625,-0.392486572265625,0.108642578125
1700516975075963400,6.53396337890625,-0.772552490234375,-0.3763275146484375,-0.0227203369140625
1700516975085973500,6.543973388671875,-1.392822265625,-0.7196807861328125,0.0379638671875
1700516975095984400,6.553984375,-1.077423095703125,-0.606842041015625,0.030792236328125
1700516975105994500,6.563994384765625,-0.7420654296875,-0.6952362060546875,0.0279083251953125
1700516975116004400,6.57400439453125,-0.8228607177734375,-0.4070587158203125,0.010589599609375
1700516975126014500,6.584014404296875,-0.69903564453125,-0.72283935546875,0.07818603515625
1700516975136024600,6.594024658203125,-0.8506622314453125,-0.4905242919921875,0.040924072265625
1700516975146035500,6.604035400390625,-0.8032989501953125,-0.2930450439453125,-0.0002288818359375
1700516975156045300,6.61404541015625,-1.11578369140625,-0.577911376953125,0.2010345458984375
1700516975166055400,6.624055419921875,-0.8149871826171875,-0.64129638671875,-0.047393798828125
1700516975176065500,6.6340654296875,-1.1611480712890625,-0.7069091796875,0.0575103759765625
1700516975186075400,6.644075439453125,-0.808685302734375,-0.070404052734375,0.0913543701171875
1700516975196086500,6.65408642578125,-0.37408447265625,-0.4872589111328125,0.0009613037109375
1700516975206096400,6.664096435546875,-1.690155029296875,-0.8115692138671875,-0.0410614013671875
1700516975216106500,6.6741064453125,-0.971038818359375,-0.5956573486328125,0.043975830078125
1700516975226116400,6.684116455078125,-0.92449951171875,-0.27679443359375,0.157012939453125
1700516975236126500,6.69412646484375,-0.597503662109375,-0.530914306640625,0.041168212890625
1700516975246137600,6.7041376953125,-1.09808349609375,-0.54754638671875,0.0353240966796875
1700516975256147700,6.714147705078125,-1.4669952392578125,-0.4822998046875,0.0305938720703125
1700516975266157600,6.724157470703125,-0.9416656494140625,-0.4476776123046875,0.1480712890625
1700516975276167700,6.734167724609375,-0.7166595458984375,-0.2695770263671875,-0.080718994140625
1700516975286177300,6.74417724609375,-0.9069061279296875,-0.669891357421875,0.01141357421875
1700516975296187400,6.7541875,-1.3164520263671875,-0.404327392578125,-0.160125732421875
1700516975306198500,6.764198486328125,-1.0997161865234375,-0.468719482421875,0.0271148681640625
1700516975316208600,6.774208740234375,-0.643646240234375,-0.17633056640625,0.0072174072265625
1700516975326218500,6.784218505859375,-0.7435455322265625,-0.74761962890625,0.080352783203125
1700516975336228600,6.794228515625,-1.0000762939453125,-0.3067779541015625,-0.06396484375
1700516975346239500,6.804239501953125,-1.107147216796875,-0.5753631591796875,0.09039306640625
1700516975356249600,6.81424951171875,-0.7916717529296875,-0.1374053955078125,0.0653228759765625
1700516975366259500,6.824259521484375,-0.3365936279296875,-0.37799072265625,-0.013031005859375
1700516975376269600,6.83426953125,-1.32061767578125,-0.6571807861328125,0.1308746337890625
1700516975386279700,6.84427978515625,-0.6083526611328125,-0.5714111328125,0.037689208984375
1700516975396290600,6.85429052734375,-1.494049072265625,-0.0859375,0.0673675537109375
1700516975406300700,6.86430078125,-0.4342803955078125,-0.1756744384765625,-0.0029296875
1700516975416310500,6.874310546875,-1.2909393310546875,-0.636077880859375,-0.1549835205078125
1700516975426320600,6.884320556640625,-1.09320068359375,-0.695281982421875,0.0370635986328125
1700516975436331500,6.89433154296875,-1.1746368408203125,-0.265625,-0.113128662109375
1700516975446341600,6.904341552734375,-0.7472381591796875,-0.458648681640625,0.02532958984375
1700516975456351500,6.9143515625,-1.2780303955078125,-0.54345703125,-0.063018798828125
1700516975466361600,6.924361572265625,-1.203582763671875,-0.4493560791015625,0.1324005126953125
1700516975476371500,6.934371337890625,-0.6546478271484375,-0.244964599609375,0.04803466796875
1700516975486382600,6.944382568359375,-0.81072998046875,-0.6473388671875,0.1925048828125
1700516975496392400,6.954392333984375,-0.904022216796875,-0.1827545166015625,-0.074920654296875
1700516975506402600,6.964402587890625,-1.1927642822265625,-0.620269775390625,0.1864471435546875
1700516975516412400,6.974412353515625,-0.65960693359375,-0.0472259521484375,-0.0601043701171875
1700516975526423600,6.984423583984375,-0.7484588623046875,-0.6912689208984375,0.1607513427734375
1700516975536433400,6.994433349609375,-1.00982666015625,-0.2200775146484375,-0.133087158203125
1700516975546443500,7.004443603515625,-0.98626708984375,-0.5434722900390625,0.001495361328125
1700516975556453400,7.014453369140625,-0.99285888671875,0.0743560791015625,0.0781097412109375
1700516975566464500,7.024464599609375,-0.5703887939453125,-0.55938720703125,-0.005584716796875
1700516975576474400,7.034474365234375,-1.3506622314453125,-0.635711669921875,0.1459808349609375
1700516975586484500,7.044484375,-1.1429595947265625,-0.5964508056640625,0.1023101806640625
1700516975596494300,7.054494384765625,-0.7132415771484375,0.0050201416015625,-0.0357666015625
1700516975606504400,7.06450439453125,-0.81561279296875,-0.7265625,0.1370697021484375
1700516975616515300,7.074515380859375,-1.134918212890625,-0.517608642578125,0.1451263427734375
1700516975626525400,7.084525390625,-1.0950775146484375,-0.4445953369140625,0.088836669921875
1700516975636535300,7.094535400390625,-0.418853759765625,-0.14764404296875,0.03863525390625
1700516975646545400,7.10454541015625,-0.8285064697265625,-0.5284881591796875,0.0143890380859375
1700516975656556500,7.114556640625,-1.2146453857421875,-0.5633087158203125,0.0281524658203125
1700516975666566700,7.124566650390625,-1.168701171875,-0.117950439453125,0.090545654296875
1700516975676576500,7.134576416015625,-0.449615478515625,-0.322723388671875,-0.070770263671875
1700516975686586600,7.144586669921875,-1.36566162109375,-0.60980224609375,0.0453948974609375
1700516975696597500,7.154597412109375,-0.91229248046875,-0.5750885009765625,0.14361572265625
1700516975706607600,7.164607666015625,-0.7186737060546875,0.00335693359375,-0.021514892578125
1700516975716617500,7.174617431640625,-0.8504486083984375,-0.5987396240234375,0.09454345703125
1700516975726627600,7.184627685546875,-1.42913818359375,-0.5803985595703125,0.16290283203125
1700516975736638500,7.194638427734375,-1.3487701416015625,-0.2627716064453125,0.189422607421875
1700516975746645800,7.204645751953125,-0.516143798828125,-0.50628662109375,0.1453094482421875
1700516975756655600,7.214655517578125,-1.0601348876953125,-0.340240478515625,-0.00006103515625
1700516975766665700,7.224665771484375,-1.3973846435546875,-0.5543365478515625,0.161346435546875
1700516975776676600,7.234676513671875,-0.8695068359375,0.0195159912109375,-0.1269989013671875
1700516975786686700,7.244686767578125,-0.61444091796875,-0.702423095703125,0.191986083984375
1700516975796696600,7.254696533203125,-1.14422607421875,-0.346099853515625,-0.10040283203125
1700516975806706700,7.264706787109375,-1.1410980224609375,-0.4052886962890625,-0.00030517578125
1700516975816717600,7.274717529296875,-0.6696319580078125,-0.1851043701171875,-0.0067901611328125
1700516975826727700,7.284727783203125,-0.654388427734375,-0.4302978515625,0.0443878173828125
1700516975836737500,7.294737548828125,-1.0561065673828125,-0.61065673828125,-0.002593994140625
1700516975846747600,7.30474755859375,-1.0100860595703125,-0.0452880859375,0.013671875
1700516975856758500,7.314758544921875,-0.764068603515625,-0.4293975830078125,0.07611083984375
1700516975866768600,7.3247685546875,-1.348846435546875,-0.5508575439453125,0.0682830810546875
1700516975876778500,7.334778564453125,-1.170654296875,-0.532470703125,0.1055450439453125
1700516975886788600,7.34478857421875,-0.6476287841796875,-0.1070556640625,0.0233154296875
1700516975896799500,7.354799560546875,-0.8359222412109375,-0.5218658447265625,0.070709228515625
1700516975906809600,7.3648095703125,-1.3569793701171875,-0.66851806640625,0.096435546875
1700516975916819500,7.3748193359375,-1.1241607666015625,-0.00543212890625,0.0098876953125
1700516975926830600,7.38483056640625,-0.3817596435546875,-0.5301055908203125,0.20916748046875
1700516975936840400,7.39484033203125,-0.9920654296875,-0.5326995849609375,-0.0205535888671875
1700516975946850600,7.4048505859375,-1.4473419189453125,-0.4629974365234375,0.093292236328125
1700516975956860400,7.4148603515625,-0.5748443603515625,0.0183258056640625,0.000885009765625
1700516975966871800,7.424871826171875,-0.933380126953125,-0.5192718505859375,0.102264404296875
1700516975976881700,7.434881591796875,-1.2106475830078125,-0.8130950927734375,0.0338287353515625
1700516975986891800,7.444891845703125,-1.0939178466796875,0.136871337890625,-0.0533447265625
1700516975996901600,7.454901611328125,-0.60394287109375,-0.3205718994140625,0.1670074462890625
1700516976006912800,7.464912841796875,-0.9434661865234375,-0.7493133544921875,0.04937744140625
1700516976016922600,7.474922607421875,-1.153106689453125,-0.3640594482421875,0.02520751953125
1700516976026932700,7.4849326171875,-0.5738677978515625,-0.0959014892578125,0.094390869140625
1700516976036943600,7.494943603515625,-1.0870208740234375,-0.4984283447265625,0.0596466064453125
1700516976046953700,7.50495361328125,-1.4719696044921875,-0.5924072265625,0.126251220703125
1700516976056963600,7.514963623046875,-0.8455352783203125,-0.0086517333984375,0.0220947265625
1700516976066973700,7.5249736328125,-0.4049835205078125,-0.6186981201171875,-0.00244140625
1700516976076984600,7.534984619140625,-1.5873260498046875,-0.535858154296875,-0.036407470703125
1700516976086994700,7.54499462890625,-1.1451416015625,-0.036895751953125,0.0670318603515625
1700516976097004500,7.555004638671875,-0.4240570068359375,-0.6622161865234375,0.09515380859375
1700516976107015700,7.565015625,-1.14215087890625,-0.4947052001953125,-0.0306396484375
1700516976117025500,7.575025634765625,-1.33062744140625,-0.4014129638671875,0.1385040283203125
1700516976127035600,7.58503564453125,-0.5651702880859375,0.0220794677734375,-0.0008697509765625
1700516976137045500,7.59504541015625,-0.749725341796875,-0.55352783203125,0.17266845703125
1700516976147056600,7.605056640625,-0.8739013671875,-0.5862884521484375,0.1254425048828125
1700516976157066500,7.61506640625,-1.0428009033203125,-0.2199554443359375,0.0045928955078125
1700516976167076600,7.62507666015625,-0.34423828125,-0.191650390625,0.0402069091796875
1700516976177087500,7.63508740234375,-1.206756591796875,-0.41046142578125,0.090606689453125
1700516976187097600,7.64509765625,-1.6106414794921875,-0.56085205078125,0.1024169921875
1700516976197107500,7.655107421875,-0.80322265625,-0.0563507080078125,-0.00830078125
1700516976207117600,7.66511767578125,-0.7674713134765625,-0.341339111328125,-0.0779876708984375
1700516976217128700,7.675128662109375,-1.4054107666015625,-0.9425811767578125,-0.03948974609375
1700516976227138800,7.685138916015625,-0.9840545654296875,-0.13006591796875,0.0031890869140625
1700516976237148400,7.6951484375,-0.402099609375,-0.3340606689453125,0.0452880859375
1700516976247159800,7.705159912109375,-1.0682830810546875,-0.5794677734375,-0.0709075927734375
1700516976257169700,7.715169677734375,-1.133056640625,-0.13006591796875,0.1140289306640625
1700516976267179800,7.7251796875,-0.3261260986328125,-0.495208740234375,0.2138519287109375
1700516976277190700,7.735190673828125,-1.0120391845703125,-0.3705902099609375,-0.0460205078125
1700516976287200800,7.74520068359375,-1.3391265869140625,-0.3670196533203125,0.2385711669921875
1700516976297210600,7.755210693359375,-0.5913238525390625,0.089630126953125,0.0284423828125
1700516976307220700,7.765220703125,-0.8438262939453125,-0.639678955078125,0.1898040771484375
1700516976317231600,7.775231689453125,-1.2630767822265625,-0.7161407470703125,0.1752471923828125
1700516976327241700,7.78524169921875,-1.1815185546875,0.035797119140625,0.1078338623046875
1700516976337251600,7.79525146484375,-0.792022705078125,-0.40936279296875,-0.0063934326171875
1700516976347262700,7.8052626953125,-1.4000091552734375,-0.6237335205078125,-0.089874267578125
1700516976357272600,7.8152724609375,-1.2447357177734375,-0.3609161376953125,0.13006591796875
1700516976367282700,7.82528271484375,-0.5010223388671875,-0.34124755859375,0.1257476806640625
1700516976377293600,7.83529345703125,-1.014251708984375,-0.477569580078125,-0.10125732421875
1700516976387303700,7.8453037109375,-1.6194915771484375,-0.583892822265625,0.19171142578125
1700516976397313500,7.8553134765625,-0.741607666015625,0.0925140380859375,0.1799468994140625
1700516976407323600,7.86532373046875,-0.37579345703125,-0.681884765625,0.1541748046875
1700516976417334500,7.87533447265625,-1.2610321044921875,-0.536163330078125,-0.0607757568359375
1700516976427344600,7.8853447265625,-1.07281494140625,0.094757080078125,0.1329803466796875
1700516976437354500,7.8953544921875,-0.2999420166015625,-0.2078094482421875,0.0986480712890625
1700516976447365600,7.90536572265625,-0.9810791015625,-0.5360107421875,0.0807342529296875
1700516976457375500,7.91537548828125,-1.0095977783203125,-0.435638427734375,0.0669708251953125
1700516976467385600,7.925385498046875,-0.5931396484375,-0.01318359375,-0.0337066650390625
1700516976477396700,7.935396728515625,-0.3866119384765625,-0.3046875,-0.00518798828125
1700516976487406800,7.94540673828125,-1.0625762939453125,-0.64801025390625,-0.0140228271484375
1700516976497416700,7.955416748046875,-1.0425567626953125,-0.27386474609375,-0.07293701171875
1700516976507427600,7.965427490234375,-0.0651092529296875,-0.2480621337890625,-0.0637359619140625
1700516976517437700,7.975437744140625,-1.0704498291015625,-0.6058197021484375,0.12811279296875
1700516976527447800,7.98544775390625,-1.4920654296875,-0.453125,0.225341796875
1700516976537458700,7.995458740234375,-0.8815155029296875,-0.02880859375,0.1318511962890625
1700516976547468500,8.005468505859374,-1.167816162109375,-0.3050384521484375,0.108062744140625
1700516976557478700,8.015478759765625,-1.6038818359375,-0.6287994384765625,0.1824798583984375
1700516976567489500,8.025489501953125,-1.4374237060546875,0.0850372314453125,0.140533447265625
1700516976577499600,8.035499755859375,-1.0001220703125,-0.3151702880859375,0.09246826171875
1700516976587509800,8.045509765625,-1.074615478515625,-0.7154388427734375,0.00067138671875
1700516976597520600,8.055520751953125,-0.865478515625,-0.473297119140625,0.092987060546875
1700516976607530500,8.065530517578125,-0.793060302734375,-0.1392974853515625,0.1395263671875
1700516976617540600,8.07554052734375,-0.94659423828125,-0.4345855712890625,-0.2567291259765625
1700516976627550700,8.08555078125,-1.3651580810546875,-0.3846282958984375,0.09906005859375
1700516976637561600,8.0955615234375,-0.748321533203125,-0.1475677490234375,0.176483154296875
1700516976647571500,8.105571533203126,-0.73516845703125,-0.3236083984375,0.11767578125
1700516976657581600,8.11558154296875,-1.432952880859375,-0.5776519775390625,0.1853179931640625
1700516976667592400,8.125592529296876,-1.1024017333984375,0.0606231689453125,0.0930938720703125
1700516976677602600,8.1356025390625,-0.550567626953125,-0.43353271484375,0.04644775390625
1700516976687612400,8.1456123046875,-0.875762939453125,-0.52935791015625,0.0679168701171875
1700516976697623800,8.155623779296874,-1.1052703857421875,-0.27703857421875,0.226043701171875
1700516976707633700,8.165633544921874,-0.256591796875,-0.12408447265625,-0.065460205078125
1700516976717643800,8.175643798828125,-0.906097412109375,-0.4656829833984375,-0.04461669921875
1700516976727654700,8.185654541015625,-1.2131805419921875,-0.5751495361328125,0.0228271484375
1700516976737664800,8.195664794921875,-0.91558837890625,-0.0071563720703125,-0.0166168212890625
1700516976747674000,8.205674072265625,-0.4445648193359375,-0.29638671875,0.1147918701171875
1700516976757685000,8.21568505859375,-1.0905914306640625,-0.594757080078125,0.0990753173828125
1700516976767694800,8.22569482421875,-1.572235107421875,0.025054931640625,0.1729736328125
1700516976777705000,8.235705078125,-0.8685455322265625,-0.1603240966796875,0.1394500732421875
1700516976787715800,8.2457158203125,-1.27777099609375,-0.440948486328125,-0.040313720703125
1700516976797726000,8.255725830078125,-1.18682861328125,-0.43927001953125,0.03778076171875
1700516976807735800,8.26573583984375,-0.27587890625,-0.296722412109375,0.0895233154296875
1700516976817747000,8.275746826171876,-1.1996917724609375,-0.4568328857421875,-0.0908050537109375
1700516976827756800,8.2857568359375,-1.2070770263671875,-0.53662109375,-0.0565032958984375
1700516976837767000,8.295766845703126,-1.125457763671875,-0.17340087890625,0.3230133056640625
1700516976847777800,8.30577783203125,-0.290313720703125,-0.3680877685546875,0.086944580078125
1700516976857788000,8.315787841796874,-1.533447265625,-0.4878997802734375,0.1652984619140625
1700516976867797800,8.3257978515625,-1.168792724609375,0.1214752197265625,0.230133056640625
1700516976877809200,8.33580908203125,-0.473724365234375,-0.579132080078125,0.166961669921875
1700516976887818800,8.34581884765625,-0.989471435546875,-0.5884246826171875,-0.054107666015625
1700516976897828900,8.355828857421875,-1.164398193359375,-0.10919189453125,0.1833648681640625
1700516976907840000,8.365840087890625,-0.7241058349609375,-0.034698486328125,-0.0670166015625
1700516976917850000,8.37585009765625,-1.250946044921875,-0.6645355224609375,0.085205078125
1700516976927860000,8.38585986328125,-1.68011474609375,-0.491973876953125,0.127960205078125
1700516976937871000,8.39587109375,-1.192962646484375,0.1363525390625,0.1292266845703125
1700516976947881000,8.405880859375,-0.3025970458984375,-0.6242828369140625,-0.0789337158203125
1700516976957891000,8.41589111328125,-1.003082275390625,-0.5086822509765625,0.0282440185546875
1700516976967902000,8.42590185546875,-1.412628173828125,-0.2064056396484375,0.1582489013671875
1700516976977912000,8.435912109375,-0.8163604736328125,-0.3524627685546875,-0.091522216796875
1700516976987922000,8.445921875,-1.1386566162109375,-0.4075775146484375,-0.1092071533203125
1700516976997932800,8.455932861328124,-0.945159912109375,-0.394775390625,0.09521484375
1700516977007943000,8.46594287109375,-0.3521728515625,0.1322174072265625,-0.050445556640625
1700516977017953000,8.475953125,-0.9946746826171875,-0.54803466796875,0.030303955078125
1700516977027964000,8.4859638671875,-1.3812713623046875,-0.6402587890625,-0.0217437744140625
1700516977037973800,8.495973876953125,-1.0003509521484375,0.099029541015625,0.08154296875
1700516977047983900,8.50598388671875,-0.43853759765625,-0.0794677734375,0.0038909912109375
1700516977057994800,8.515994873046875,-0.9963226318359375,-0.4276275634765625,-0.02178955078125
1700516977068004900,8.5260048828125,-0.7729644775390625,-0.49993896484375,0.101470947265625
1700516977078015000,8.536014892578125,-0.6277618408203125,-0.11370849609375,0.0092010498046875
1700516977088026000,8.546026123046875,-0.9152679443359375,-0.3419036865234375,0.1435089111328125
1700516977098035700,8.55603564453125,-1.3013763427734375,-0.638885498046875,0.1269683837890625
1700516977108045800,8.5660458984375,-0.9929656982421875,-0.0408477783203125,0.0698394775390625
1700516977118057000,8.576056884765626,-0.970703125,-0.126434326171875,0.182525634765625
1700516977128067000,8.586067138671876,-1.2420806884765625,-0.6533050537109375,-0.0644683837890625
1700516977138077000,8.596076904296876,-1.3787078857421875,-0.27813720703125,0.0119781494140625
1700516977148088000,8.606088134765624,-0.756744384765625,-0.2380523681640625,0.1624603271484375
1700516977158098000,8.616097900390624,-0.6405181884765625,-0.48101806640625,-0.33905029296875
1700516977168108000,8.62610791015625,-1.5404815673828125,-0.2818603515625,0.1100616455078125
1700516977178119000,8.636118896484374,-0.81158447265625,-0.0473785400390625,0.167388916015625
1700516977188129000,8.64612890625,-0.4815673828125,-0.55126953125,-0.1341400146484375
1700516977198139000,8.656138916015625,-1.505859375,-0.4780120849609375,0.00128173828125
1700516977208150000,8.66614990234375,-0.7896881103515625,0.101104736328125,0.0367889404296875
1700516977218159900,8.676159912109375,-0.4961700439453125,-0.516632080078125,0.0171051025390625
1700516977228170000,8.686169921875,-1.1744537353515625,-0.387542724609375,-0.1068572998046875
1700516977238180900,8.696180908203125,-1.1614227294921875,-0.2791748046875,0.2111663818359375
1700516977248191000,8.70619091796875,-0.57415771484375,0.0246124267578125,-0.05792236328125
1700516977258200800,8.716200927734375,-0.69610595703125,-0.380584716796875,0.0242462158203125
1700516977268212000,8.7262119140625,-0.8251190185546875,-0.563873291015625,-0.028106689453125
1700516977278221800,8.736221923828126,-1.165069580078125,-0.072998046875,-0.006591796875
1700516977288232000,8.74623193359375,-0.9397430419921875,-0.225189208984375,0.1561279296875
1700516977298243000,8.7562431640625,-1.1076202392578125,-0.4981842041015625,0.0960845947265625
1700516977308253000,8.7662529296875,-0.8129425048828125,-0.3050384521484375,0.110321044921875
1700516977318262800,8.7762626953125,-0.9198455810546875,0.0666351318359375,0.2525634765625
1700516977328274000,8.78627392578125,-1.320709228515625,-0.5920562744140625,0.0988311767578125
1700516977338284000,8.796283935546874,-1.350799560546875,-0.484710693359375,-0.1250457763671875
1700516977348294100,8.806294189453125,-0.8981475830078125,0.21783447265625,0.085784912109375
1700516977358305000,8.816304931640625,-0.628082275390625,-0.730926513671875,0.099945068359375
1700516977368315000,8.82631494140625,-1.6230926513671875,-0.4826812744140625,-0.3083648681640625
1700516977378325000,8.836324951171875,-1.1783599853515625,0.02581787109375,0.228515625
1700516977388335900,8.8463359375,-0.4554901123046875,-0.590484619140625,0.029571533203125
1700516977398346000,8.856345947265625,-0.8552093505859375,-0.24847412109375,-0.210113525390625
1700516977408355800,8.86635595703125,-1.029296875,-0.4742431640625,0.246185302734375
1700516977418367000,8.876366943359375,-0.9088134765625,0.09716796875,-0.09100341796875
1700516977428376800,8.886376953125,-0.7041473388671875,-0.373992919921875,0.2519378662109375
1700516977438387000,8.896386962890626,-0.8773956298828125,-0.4910736083984375,-0.034820556640625
1700516977448397800,8.906397705078126,-1.0397796630859375,-0.090484619140625,0.251953125
1700516977458408000,8.916407958984376,-0.6956634521484375,0.00128173828125,-0.0074615478515625
1700516977468417800,8.926417724609376,-1.2413177490234375,-0.5937347412109375,0.0574188232421875
1700516977478429000,8.936428955078124,-1.339691162109375,-0.50518798828125,-0.0832061767578125
1700516977488438800,8.946438720703124,-0.931640625,0.2301025390625,0.036041259765625
1700516977498449000,8.956448974609375,-0.8447265625,-0.5442962646484375,0.1009979248046875
1700516977508460000,8.9664599609375,-1.4452972412109375,-0.4794464111328125,-0.0099639892578125
1700516977518470100,8.97647021484375,-0.727569580078125,-0.0545806884765625,0.18798828125
1700516977528479700,8.986479736328125,-0.4801483154296875,-0.488494873046875,0.0488739013671875
1700516977538491100,8.9964912109375,-1.7593994140625,-0.3255157470703125,-0.11480712890625
1700516977548501000,9.0065009765625,-1.1279449462890625,-0.3710479736328125,0.2683258056640625
1700516977558511000,9.016510986328125,-0.6490631103515625,-0.1419525146484375,0.0458526611328125
1700516977568522000,9.02652197265625,-0.7981414794921875,-0.29278564453125,0.1468048095703125
1700516977578532000,9.036531982421875,-1.7225189208984375,-0.67303466796875,0.1651763916015625
1700516977588542000,9.0465419921875,-1.148468017578125,0.2523345947265625,-0.0377960205078125
1700516977598552800,9.056552734375,-0.1124725341796875,-0.507904052734375,0.1593170166015625
1700516977608563000,9.06656298828125,-1.0142059326171875,-0.5852508544921875,-0.1476593017578125
1700516977618573000,9.076572998046874,-1.33843994140625,0.119842529296875,0.1495208740234375
1700516977628584000,9.086583984375,-0.815521240234375,-0.3275146484375,0.02239990234375
1700516977638593800,9.09659375,-1.1113433837890625,-0.475799560546875,-0.1945343017578125
1700516977648604000,9.10660400390625,-1.3023529052734375,-0.3187255859375,0.0471038818359375
1700516977658614800,9.11661474609375,-0.9117279052734375,0.0358123779296875,-0.1110076904296875
1700516977668625000,9.126625,-0.81353759765625,-0.4533538818359375,0.079193115234375
1700516977678635000,9.136635009765625,-1.2695770263671875,-0.5626373291015625,0.05078125
1700516977688646000,9.14664599609375,-0.9105072021484375,-0.1325225830078125,0.027313232421875
1700516977698655700,9.15665576171875,-0.5153656005859375,-0.1439208984375,0.062744140625
1700516977708665900,9.166665771484375,-0.7449951171875,-0.49530029296875,0.1631011962890625
1700516977718677000,9.176677001953125,-1.23492431640625,-0.5201263427734375,0.0749664306640625
1700516977728687000,9.18668701171875,-0.8044586181640625,0.3520355224609375,-0.0121002197265625
1700516977738696700,9.19669677734375,-0.9559326171875,-0.3069000244140625,0.104217529296875
1700516977748708400,9.206708251953126,-1.2412567138671875,-0.6844940185546875,0.051513671875
1700516977758718200,9.21671826171875,-1.2497100830078125,-0.1300201416015625,0.0560302734375
1700516977768728300,9.226728271484374,-0.7583770751953125,-0.2105255126953125,-0.1066741943359375
1700516977778739200,9.2367392578125,-0.9405059814453125,-0.304351806640625,-0.119415283203125
1700516977788749300,9.246749267578124,-1.216278076171875,-0.607452392578125,0.1139068603515625
1700516977798759200,9.25675927734375,-0.754241943359375,0.1125640869140625,-0.11419677734375
1700516977808770300,9.266770263671875,-0.4666595458984375,-0.39874267578125,0.1236419677734375
1700516977818780200,9.2767802734375,-1.402801513671875,-0.5424652099609375,-0.1334686279296875
1700516977828790300,9.286790283203125,-1.3673095703125,0.2233428955078125,0.0073394775390625
1700516977838801200,9.29680126953125,-0.5048980712890625,-0.4812469482421875,0.1212615966796875
1700516977848811300,9.306811279296875,-1.0828399658203125,-0.4237213134765625,-0.141326904296875
1700516977858821000,9.316821044921875,-1.285797119140625,-0.1494903564453125,0.1780242919921875
1700516977868832000,9.32683203125,-0.799102783203125,-0.1173553466796875,-0.0896148681640625
1700516977878842000,9.336842041015625,-0.73779296875,-0.36859130859375,-0.012847900390625
1700516977888852200,9.346852294921876,-1.1211090087890625,-0.532684326171875,-0.0074310302734375
1700516977898863000,9.356863037109376,-0.9658203125,0.1322174072265625,-0.1524810791015625
1700516977908873000,9.366873046875,-0.4888458251953125,-0.41192626953125,0.080413818359375
1700516977918883000,9.376883056640626,-0.9799041748046875,-0.502838134765625,-0.1185455322265625
1700516977928894000,9.38689404296875,-1.2846221923828125,-0.249664306640625,0.0598297119140625
1700516977938904000,9.396904052734374,-0.55352783203125,0.3045501708984375,-0.1440887451171875
1700516977948914200,9.4069140625,-0.8180389404296875,-0.54052734375,-0.0618896484375
1700516977958925300,9.41692529296875,-0.9593048095703125,-0.64947509765625,-0.02117919921875
1700516977968935200,9.42693505859375,-0.502532958984375,-0.1192779541015625,-0.0258026123046875
1700516977978945300,9.4369453125,-0.534759521484375,-0.1034088134765625,-0.0356292724609375
1700516977988956200,9.4469560546875,-1.07818603515625,-0.282562255859375,-0.0179290771484375
1700516977998966300,9.45696630859375,-1.022979736328125,-0.5097198486328125,-0.017547607421875
1700516978008976100,9.46697607421875,-0.5059967041015625,0.1957855224609375,-0.096160888671875
1700516978018987300,9.4769873046875,-0.8065643310546875,-0.1454010009765625,-0.0180816650390625
1700516978028997000,9.4869970703125,-1.6924896240234375,-0.4912109375,0.003265380859375
1700516978039007200,9.49700732421875,-0.71002197265625,-0.0807647705078125,-0.144927978515625
1700516978049018000,9.50701806640625,-0.911102294921875,-0.1631622314453125,-0.06060791015625
1700516978059028200,9.5170283203125,-1.5296478271484375,-0.386962890625,0.0702667236328125
1700516978069038000,9.5270380859375,-1.0632476806640625,-0.5069580078125,0.0887603759765625
1700516978079049200,9.53704931640625,-0.9603424072265625,0.0543365478515625,0.059234619140625
1700516978089059000,9.54705908203125,-0.8281097412109375,-0.3752593994140625,0.0675048828125
1700516978099069200,9.557069091796874,-1.5502471923828125,-0.572174072265625,-0.017547607421875
1700516978109080000,9.567080078125,-0.753326416015625,0.201385498046875,0.0681610107421875
1700516978119090200,9.577090087890625,-0.4444732666015625,-0.7125396728515625,0.0223388671875
1700516978129100000,9.58710009765625,-1.3347015380859375,-0.3368072509765625,-0.1789093017578125
1700516978139111200,9.597111083984375,-0.2280426025390625,-0.4215240478515625,0.1939849853515625
1700516978149121000,9.60712109375,-2.68701171875,-0.0905914306640625,0.1399993896484375
1700516978159131100,9.617131103515625,-0.99371337890625,0.0491943359375,-0.148284912109375
1700516978169142300,9.627142333984375,-0.9834747314453125,-0.4976654052734375,-0.09033203125
1700516978179152100,9.637152099609375,-0.2602691650390625,-0.1209259033203125,-0.01605224609375
1700516978189162200,9.647162353515625,-0.497467041015625,-0.251953125,0.081085205078125
1700516978199173000,9.657173095703126,-1.2281341552734375,-0.645111083984375,-0.0304412841796875
1700516978209183200,9.667183349609376,-1.113433837890625,0.0230712890625,-0.0283050537109375
1700516978219193300,9.677193359375,-1.3496551513671875,-0.0829620361328125,0.0080718994140625
1700516978229204200,9.687204345703124,-0.72247314453125,-0.235626220703125,0.0297393798828125
1700516978239214000,9.697214111328124,-1.0407562255859375,-0.5538177490234375,0.05035400390625
1700516978249224200,9.70722412109375,-0.6582183837890625,0.130462646484375,-0.0255279541015625
1700516978259235000,9.717235107421875,-0.6278228759765625,-0.37646484375,0.1197509765625
1700516978269245200,9.7272451171875,-1.4287567138671875,-0.49163818359375,-0.128753662109375
1700516978279255000,9.737255126953125,-1.5689849853515625,-0.0014495849609375,0.1307373046875
1700516978289266200,9.74726611328125,-0.92669677734375,-0.343048095703125,0.0439605712890625
1700516978299276000,9.757276123046875,-0.9439544677734375,-0.2037811279296875,-0.19769287109375
1700516978309286100,9.7672861328125,-1.2872772216796875,-0.69622802734375,0.2050323486328125
1700516978319296000,9.7772958984375,-1.2119293212890625,0.281402587890625,-0.2624969482421875
1700516978329307100,9.78730712890625,-0.8413848876953125,-0.574951171875,0.1828765869140625
1700516978339317000,9.79731689453125,-1.3874359130859375,-0.5386199951171875,-0.042633056640625
1700516978349327000,9.8073271484375,-0.9980926513671875,0.1146392822265625,0.060028076171875
1700516978359338000,9.817337890625,-0.7590179443359375,-0.4978790283203125,0.12249755859375
1700516978369348000,9.82734814453125,-0.76837158203125,-0.3085174560546875,-0.0517120361328125
1700516978379358000,9.83735791015625,-0.9772491455078125,-0.4205474853515625,0.2143402099609375
1700516978389369300,9.847369384765624,-0.4334259033203125,0.248870849609375,-0.1465606689453125
1700516978399379200,9.857379150390624,-0.8902435302734375,-0.3934173583984375,0.088134765625
1700516978409389300,9.867389404296874,-0.978057861328125,-0.6516265869140625,-0.04461669921875
1700516978419400200,9.877400146484375,-0.9831390380859375,0.0740966796875,-0.0481109619140625
1700516978429410300,9.887410400390625,-0.5704345703125,0.14959716796875,-0.0528106689453125
1700516978439420200,9.897420166015625,-1.136932373046875,-0.305023193359375,0.055938720703125
1700516978449431300,9.907431396484375,-0.9628143310546875,-0.5316009521484375,0.0529327392578125
1700516978459441200,9.917441162109375,-0.957733154296875,0.1372833251953125,-0.0762481689453125
1700516978469451300,9.927451171875,-1.1162109375,-0.3199615478515625,0.1148681640625
1700516978479462100,9.937462158203125,-1.1021575927734375,-0.4673309326171875,-0.1298675537109375
1700516978489472300,9.94747216796875,-1.3173370361328125,-0.037078857421875,0.052001953125
1700516978499482000,9.957482177734375,-0.62896728515625,-0.401092529296875,0.22821044921875
1700516978509493000,9.967492919921876,-1.0962982177734375,-0.3819580078125,-0.250640869140625
1700516978519503000,9.977503173828126,-1.3902587890625,-0.42535400390625,0.2070159912109375
1700516978529513200,9.98751318359375,-1.00537109375,0.059478759765625,-0.0594482421875
1700516978539524000,9.997524169921874,-0.73516845703125,-0.4526519775390625,0.090423583984375
1700516978549534200,10.0075341796875,-1.222869873046875,-0.6147003173828125,0.028839111328125
1700516978559544000,10.0175439453125,-0.9574432373046875,0.236968994140625,0.112579345703125
1700516978569554200,10.02755419921875,-0.83111572265625,-0.5339508056640625,0.24066162109375
1700516978579565000,10.03756494140625,-1.202850341796875,-0.2092437744140625,-0.1493072509765625
1700516978589575200,10.0475751953125,-1.162261962890625,-0.3371124267578125,0.2825469970703125
1700516978599585000,10.0575849609375,-0.5836334228515625,0.152557373046875,-0.10638427734375
1700516978609596200,10.06759619140625,-0.48504638671875,-0.4443206787109375,0.079345703125
1700516978619606300,10.077606201171875,-0.9290771484375,-0.4100341796875,-0.0720977783203125
1700516978629616000,10.0876162109375,-1.3041839599609375,0.2134857177734375,-0.0064239501953125
1700516978639627300,10.097627197265625,-0.78759765625,-0.4553985595703125,0.040191650390625
1700516978649637000,10.10763720703125,-0.9798126220703125,-0.2237396240234375,-0.12396240234375
1700516978659647200,10.117647216796875,-1.17144775390625,-0.3557586669921875,0.2074127197265625
1700516978669658000,10.127658203125,-0.907684326171875,0.07452392578125,-0.05706787109375
1700516978679668200,10.137668212890626,-0.80889892578125,-0.4521026611328125,0.2823028564453125
1700516978689678000,10.147677978515626,-1.496551513671875,-0.52398681640625,0.1396026611328125
1700516978699689200,10.157689208984374,-1.3668060302734375,0.1977386474609375,0.1434478759765625
1700516978709699000,10.167698974609374,-0.8831329345703125,-0.5406494140625,0.2437286376953125
1700516978719709200,10.177709228515624,-1.0251007080078125,-0.373809814453125,-0.0990753173828125
1700516978729719000,10.187718994140624,-0.8801422119140625,-0.3471832275390625,0.3034515380859375
1700516978739730200,10.197730224609375,-1.0035552978515625,0.0942840576171875,0.078582763671875
1700516978749740500,10.207740478515625,-0.9156036376953125,-0.544921875,0.147125244140625
1700516978759750700,10.217750732421875,-1.290740966796875,-0.3544158935546875,0.01953125
1700516978769761500,10.227761474609375,-0.675994873046875,0.2027130126953125,0.146575927734375
1700516978779771600,10.237771728515625,-0.6866455078125,-0.4967498779296875,0.1669769287109375
1700516978789781500,10.247781494140625,-1.2789459228515625,-0.2986297607421875,-0.1397552490234375
1700516978799792600,10.257792724609375,-1.312347412109375,-0.34173583984375,0.1643524169921875
1700516978809802500,10.267802490234375,-0.8218536376953125,0.2445831298828125,-0.03619384765625
1700516978819812600,10.2778125,-0.655487060546875,-0.4746551513671875,0.2056732177734375
1700516978829823500,10.287823486328126,-1.2718048095703125,-0.5279998779296875,0.09368896484375
1700516978839833600,10.29783349609375,-1.0916748046875,0.1812744140625,0.1432342529296875
1700516978849843500,10.307843505859376,-0.629547119140625,-0.3547515869140625,0.2593841552734375
1700516978859854300,10.317854248046874,-1.2486572265625,-0.40625,0.0059356689453125
1700516978869864400,10.327864501953124,-1.2124786376953125,-0.3727569580078125,0.258880615234375
1700516978879874600,10.33787451171875,-0.6863861083984375,0.111175537109375,0.0543060302734375
1700516978889884400,10.347884521484374,-0.6178131103515625,-0.5333099365234375,0.128082275390625
1700516978899895600,10.3578955078125,-1.220123291015625,-0.3635406494140625,0.028961181640625
1700516978909905400,10.367905517578125,-0.816070556640625,0.1210784912109375,0.146697998046875
1700516978919915500,10.37791552734375,-0.64239501953125,-0.389190673828125,0.1348419189453125
1700516978929926400,10.387926513671875,-0.9909515380859375,-0.325653076171875,-0.0027008056640625
1700516978939936500,10.3979365234375,-1.15924072265625,-0.131622314453125,0.1269989013671875
1700516978949946400,10.4079462890625,-0.82891845703125,0.0442352294921875,-0.0332489013671875
1700516978959957500,10.41795751953125,-0.647247314453125,-0.3489990234375,0.1679840087890625
1700516978969967600,10.427967529296875,-1.24993896484375,-0.4540863037109375,0.153106689453125
1700516978979977700,10.437977783203126,-1.048614501953125,0.210906982421875,-0.0232696533203125
1700516978989987600,10.447987548828126,-0.660430908203125,-0.344635009765625,0.197784423828125
1700516978999998500,10.45799853515625,-1.2470855712890625,-0.54461669921875,0.062103271484375
1700516979010008600,10.468008544921876,-1.221527099609375,-0.135223388671875,0.2144927978515625
1700516979020018700,10.478018798828124,-0.7580413818359375,-0.0641326904296875,0.1734771728515625
1700516979030029600,10.488029541015624,-1.1477203369140625,-0.473968505859375,0.1396026611328125
1700516979040039400,10.498039306640624,-1.53228759765625,-0.543975830078125,0.2560882568359375
1700516979050049500,10.508049560546874,-1.07354736328125,0.2548980712890625,-0.0030975341796875
1700516979060060400,10.518060302734375,-0.5509796142578125,-0.57281494140625,0.3039093017578125
1700516979070070500,10.528070556640625,-0.9779815673828125,-0.4240264892578125,-0.07330322265625
1700516979080080400,10.538080322265625,-1.072052001953125,-0.114166259765625,0.217529296875
1700516979090091500,10.548091552734375,-0.8529815673828125,-0.1786956787109375,0.057342529296875
1700516979100101400,10.558101318359375,-0.9293365478515625,-0.17047119140625,-0.011688232421875
1700516979110111500,10.568111572265625,-1.14300537109375,-0.555877685546875,0.1653900146484375
1700516979120121600,10.57812158203125,-0.65692138671875,0.389251708984375,-0.03814697265625
1700516979130132500,10.588132568359375,-0.60186767578125,-0.4389495849609375,0.1072845458984375
1700516979140142300,10.598142333984375,-1.024444580078125,-0.3239898681640625,-0.012115478515625
1700516979150152400,10.60815234375,-1.2098846435546875,-0.315765380859375,0.2220916748046875
1700516979160163300,10.618163330078126,-0.6921539306640625,0.2652587890625,0.0845947265625
1700516979170173400,10.62817333984375,-0.7566070556640625,-0.39654541015625,0.2270965576171875
1700516979180183300,10.638183349609376,-1.3109130859375,-0.48687744140625,0.1933135986328125
1700516979190194700,10.648194580078124,-1.3108367919921875,0.1869354248046875,0.1253509521484375
1700516979200204500,10.65820458984375,-0.8823089599609375,-0.4875030517578125,0.2587890625
1700516979210214700,10.668214599609374,-1.3495635986328125,-0.3893585205078125,-0.235626220703125
1700516979220224500,10.678224609375,-1.1121978759765625,-0.253936767578125,0.1826019287109375
1700516979230235600,10.688235595703125,-0.6262664794921875,-0.1905975341796875,0.11224365234375
1700516979240245500,10.69824560546875,-0.919769287109375,-0.4159088134765625,0.028656005859375
1700516979250255600,10.708255615234375,-1.5316925048828125,-0.31884765625,0.313385009765625
1700516979260266500,10.7182666015625,-0.861083984375,0.1374969482421875,0.0522613525390625
1700516979270276600,10.728276611328125,-0.3974151611328125,-0.401702880859375,0.3123931884765625
1700516979280286500,10.738286376953125,-0.9344635009765625,-0.4369659423828125,-0.143035888671875
1700516979290297600,10.748297607421875,-1.2244415283203125,-0.0684814453125,0.1914520263671875
1700516979300307500,10.758307373046875,-0.75244140625,0.0399932861328125,0.01953125
1700516979310317600,10.768317626953126,-0.72894287109375,-0.36517333984375,0.1109466552734375
1700516979320327400,10.778327392578126,-1.110565185546875,-0.5202789306640625,0.0756988525390625
1700516979330338600,10.788338623046876,-0.9288330078125,0.2053680419921875,-0.0030364990234375
1700516979340348400,10.798348388671876,-0.9025726318359375,-0.277435302734375,0.0174407958984375
1700516979350358500,10.808358642578124,-0.8249969482421875,-0.47393798828125,0.0533905029296875
1700516979360369400,10.818369384765624,-1.1972808837890625,-0.1884765625,0.187225341796875
1700516979370379500,10.828379638671874,-0.7319793701171875,-0.0273895263671875,0.1143951416015625
1700516979380389400,10.838389404296874,-0.7574005126953125,-0.2513580322265625,0.06585693359375
1700516979390400500,10.848400390625,-1.2703399658203125,-0.510345458984375,0.1627655029296875
1700516979400410400,10.858410400390625,-0.7935791015625,0.2025299072265625,0.099090576171875
1700516979410420500,10.86842041015625,-0.43841552734375,-0.24407958984375,0.2008514404296875
1700516979420430300,10.878430419921875,-1.117950439453125,-0.378814697265625,-0.0469970703125
1700516979430441700,10.888441650390625,-1.346588134765625,-0.2112274169921875,0.194244384765625
1700516979440451600,10.89845166015625,-0.799713134765625,0.033203125,0.0902557373046875
1700516979450461700,10.908461669921875,-0.6904449462890625,-0.3580474853515625,-0.1032867431640625
1700516979460472600,10.91847265625,-1.1321563720703125,-0.3987579345703125,0.0440826416015625
1700516979470482700,10.928482666015626,-1.1353759765625,0.1573944091796875,0.0809783935546875
1700516979480492500,10.938492431640626,-0.7607269287109375,-0.3730621337890625,0.2206878662109375
1700516979490502700,10.948502685546876,-1.178131103515625,-0.3655853271484375,-0.0771636962890625
1700516979500513500,10.958513427734376,-1.3421173095703125,-0.1923675537109375,0.144866943359375
1700516979510523600,10.968523681640624,-0.850250244140625,-0.1143035888671875,0.085723876953125
1700516979520533500,10.978533447265624,-0.8152008056640625,-0.359344482421875,0.125213623046875
1700516979530544600,10.988544677734374,-1.3718719482421875,-0.3932952880859375,0.1326141357421875
1700516979540554500,10.998554443359374,-0.950408935546875,0.130279541015625,0.150604248046875
1700516979550564600,11.008564697265625,-0.7376556396484375,-0.368804931640625,0.16632080078125
1700516979560575500,11.018575439453125,-0.9966583251953125,-0.383087158203125,-0.083221435546875
1700516979570585600,11.028585693359375,-0.894287109375,0.0881195068359375,0.200958251953125
1700516979580595500,11.038595458984375,-0.6848602294921875,-0.2198333740234375,0.032012939453125
1700516979590605600,11.04860546875,-1.00799560546875,-0.300567626953125,0.0269622802734375
1700516979600616400,11.058616455078125,-1.0928955078125,-0.4140777587890625,0.0725250244140625
1700516979610626600,11.06862646484375,-0.5923614501953125,0.3123626708984375,-0.129913330078125
1700516979620636400,11.078636474609375,-0.9625396728515625,-0.2871551513671875,0.06927490234375
1700516979630647300,11.088647216796875,-1.0082550048828125,-0.4857177734375,-0.0089874267578125
1700516979640657400,11.098657470703126,-1.183624267578125,0.0064544677734375,0.091094970703125
1700516979650667500,11.10866748046875,-0.9130859375,-0.0481414794921875,0.0727996826171875
1700516979660677400,11.118677490234376,-1.010528564453125,-0.3741455078125,0.12200927734375
1700516979670688500,11.1286884765625,-1.259429931640625,-0.4034271240234375,0.2299041748046875
1700516979680698600,11.13869873046875,-1.085784912109375,0.1926727294921875,0.0951690673828125
1700516979690708500,11.14870849609375,-0.9278564453125,-0.3408050537109375,0.2063140869140625
1700516979700719600,11.1587197265625,-1.4932403564453125,-0.5782928466796875,0.1336822509765625
1700516979710729500,11.1687294921875,-1.113189697265625,0.1819915771484375,0.1785125732421875
1700516979720739600,11.178739501953125,-0.709136962890625,-0.2757568359375,0.0773468017578125
1700516979730749700,11.188749755859375,-0.98114013671875,-0.4267425537109375,-0.1666259765625
1700516979740760600,11.198760498046875,-1.3270263671875,-0.2747039794921875,0.26239013671875
1700516979750769700,11.208769775390625,-0.7265167236328125,0.056640625,-0.0444488525390625
1700516979760779500,11.218779541015625,-0.8628082275390625,-0.325836181640625,0.01629638671875
1700516979770790700,11.228790771484375,-1.0243072509765625,-0.4617156982421875,0.01751708984375
1700516979780800500,11.238800537109375,-0.91510009765625,-0.0242767333984375,0.0163116455078125
1700516979790810600,11.248810546875,-0.279388427734375,-0.0589141845703125,-0.00335693359375
1700516979800821500,11.258821533203125,-1.059356689453125,-0.3700714111328125,0.0960235595703125
1700516979810831600,11.26883154296875,-1.49853515625,-0.3499908447265625,0.2087249755859375
1700516979820841500,11.278841552734375,-0.411773681640625,0.22039794921875,-0.0149078369140625
1700516979830851600,11.2888515625,-0.52264404296875,-0.2245330810546875,0.1468658447265625
1700516979840862700,11.29886279296875,-1.3921051025390625,-0.3943023681640625,0.2236328125
1700516979850872800,11.308872802734374,-1.1219635009765625,0.2858734130859375,0.030975341796875
1700516979860882400,11.31888232421875,-1.689666748046875,-0.284088134765625,0.0146484375
1700516979870893800,11.328893798828124,-1.3791656494140625,-0.420013427734375,-0.08978271484375
1700516979880903700,11.338903564453124,-1.5259246826171875,0.08477783203125,-0.0530853271484375
1700516979890913800,11.348913818359375,-0.9297027587890625,-0.13482666015625,0.074493408203125
1700516979900923600,11.358923583984375,-1.10430908203125,-0.3632354736328125,0.0645599365234375
1700516979910934800,11.368934814453125,-1.0285186767578125,-0.500152587890625,0.139373779296875
1700516979920944600,11.378944580078125,-0.4510650634765625,0.1978607177734375,0.051605224609375
1700516979930954800,11.388954833984375,-0.614105224609375,-0.2763519287109375,0.093719482421875
1700516979940965600,11.398965576171875,-0.7816009521484375,-0.5762786865234375,0.1696014404296875
1700516979950975700,11.408975830078125,-0.9427642822265625,-0.048095703125,0.1219329833984375
1700516979960985600,11.418985595703125,-0.3673095703125,-0.0764007568359375,0.0506744384765625
1700516979970995700,11.42899560546875,-1.1856842041015625,-0.2944488525390625,0.0365753173828125
1700516979981006600,11.439006591796876,-1.195159912109375,-0.1100921630859375,0.040191650390625
1700516979991016700,11.4490166015625,-0.8582000732421875,0.1149444580078125,-0.0040130615234375
1700516980001026600,11.459026611328126,-1.147308349609375,-0.1680145263671875,-0.051605224609375
1700516980011037700,11.46903759765625,-1.407623291015625,-0.462615966796875,-0.069061279296875
1700516980021047600,11.479047607421874,-0.84039306640625,0.214111328125,0.026336669921875
1700516980031057700,11.4890576171875,-0.5983734130859375,-0.0678863525390625,0.0233612060546875
1700516980041067500,11.499067626953124,-1.4202880859375,-0.4801025390625,0.03131103515625
1700516980051078700,11.50907861328125,-1.4398345947265625,-0.046234130859375,0.1226959228515625
1700516980061088500,11.519088623046875,-0.490692138671875,-0.015716552734375,0.148834228515625
1700516980071098600,11.5290986328125,-1.227691650390625,-0.382110595703125,0.1206207275390625
1700516980081109500,11.539109619140625,-1.414154052734375,-0.4986724853515625,0.2199249267578125
1700516980091119600,11.54911962890625,-0.5691375732421875,0.1728057861328125,0.0035858154296875
1700516980101129500,11.55912939453125,-0.7608489990234375,-0.1690826416015625,0.1491241455078125
1700516980111139600,11.5691396484375,-1.3177947998046875,-0.704132080078125,0.1105194091796875
1700516980121150700,11.579150634765625,-0.93975830078125,0.119842529296875,0.04345703125
1700516980131160800,11.589160888671875,-0.44317626953125,-0.0318145751953125,-0.0103302001953125
1700516980141170700,11.599170654296875,-1.0987701416015625,-0.4485015869140625,0.023590087890625
1700516980151180800,11.609180908203125,-1.3614349365234375,-0.111175537109375,0.0140533447265625
1700516980161191700,11.619191650390626,-0.6768798828125,0.0381317138671875,0.0059661865234375
1700516980171201800,11.629201904296876,-1.2046966552734375,-0.39324951171875,-0.022003173828125
1700516980181211600,11.639211669921876,-1.0912017822265625,-0.4268035888671875,0.09710693359375
1700516980191222800,11.649222900390624,-0.466888427734375,0.261962890625,0.0387115478515625
1700516980201232600,11.659232666015624,-0.9262847900390625,-0.017242431640625,0.1521148681640625
1700516980211242800,11.66924267578125,-1.427642822265625,-0.6455841064453125,0.110015869140625
1700516980221252600,11.679252685546874,-0.789703369140625,0.15008544921875,0.1102294921875
1700516980231263700,11.689263671875,-0.422149658203125,-0.000885009765625,0.0385894775390625
1700516980241273600,11.699273681640625,-1.1256256103515625,-0.4349212646484375,0.11669921875
1700516980251283700,11.70928369140625,-1.2431640625,-0.2162322998046875,0.1200408935546875
1700516980261294600,11.719294677734375,-0.4773101806640625,0.001007080078125,0.008758544921875
1700516980271304700,11.7293046875,-1.238555908203125,-0.214813232421875,-0.096038818359375
1700516980281314600,11.739314453125,-1.6094207763671875,-0.464508056640625,0.024749755859375
1700516980291324700,11.74932470703125,-0.9249725341796875,0.1336517333984375,0.045562744140625
1700516980301335600,11.75933544921875,-0.972686767578125,-0.0531005859375,0.2254180908203125
1700516980311345700,11.769345703125,-1.436737060546875,-0.597869873046875,0.0480194091796875
1700516980321355500,11.77935546875,-0.91229248046875,0.0996246337890625,0.188812255859375
1700516980331366700,11.78936669921875,-0.6575927734375,-0.0901336669921875,0.17987060546875
1700516980341376500,11.79937646484375,-0.516021728515625,-0.386566162109375,0.0198822021484375
1700516980351386600,11.80938671875,-0.993743896484375,0.0135498046875,0.186614990234375
1700516980361396500,11.819396484375,-0.89788818359375,-0.2360992431640625,0.083343505859375
1700516980371408000,11.829407958984374,-1.538299560546875,-0.3640899658203125,-0.078094482421875
1700516980381417700,11.839417724609374,-1.19317626953125,-0.112091064453125,0.0799713134765625
1700516980391427800,11.849427734375,-0.8826751708984375,0.1080169677734375,-0.0428924560546875
1700516980401437400,11.8594375,-0.9192352294921875,-0.2681884765625,0.076080322265625
1700516980411448800,11.86944873046875,-0.9853973388671875,-0.559722900390625,-0.046356201171875
1700516980421458700,11.879458740234375,-1.2089080810546875,0.16455078125,0.1195068359375
1700516980431468800,11.88946875,-1.0577850341796875,-0.152801513671875,0.256378173828125
1700516980441479700,11.899479736328125,-1.22625732421875,-0.3374176025390625,0.0706787109375
1700516980451489800,11.90948974609375,-1.237884521484375,0.04754638671875,0.3047943115234375
1700516980461499600,11.919499755859375,-0.5829010009765625,-0.0858917236328125,0.20928955078125
1700516980471509800,11.929509765625,-0.7737884521484375,-0.4968414306640625,-0.1133575439453125
1700516980481520600,11.939520751953125,-1.14453125,-0.0997314453125,0.144744873046875
1700516980491530800,11.94953076171875,-0.6581268310546875,0.0078277587890625,-0.036407470703125
1700516980501540600,11.95954052734375,-0.9023590087890625,-0.1844482421875,0.018798828125
1700516980511550700,11.96955078125,-1.1873321533203125,-0.5118560791015625,0.02435302734375
1700516980521561600,11.9795615234375,-0.8152923583984375,0.3574066162109375,0.0721588134765625
1700516980531571700,11.98957177734375,-0.7091827392578125,-0.149169921875,0.1328887939453125
1700516980541581600,11.99958154296875,-1.2581634521484375,-0.4778594970703125,0.0261688232421875
1700516980551592700,12.0095927734375,-1.0603485107421875,0.1845703125,0.13775634765625
1700516980561602600,12.0196025390625,-0.8890380859375,0.01861572265625,0.294769287109375
1700516980571612700,12.02961279296875,-1.27374267578125,-0.596038818359375,0.064544677734375
1700516980581622500,12.03962255859375,-1.2301177978515625,0.0019989013671875,0.1770782470703125
1700516980591633700,12.049633544921875,-0.760986328125,-0.16339111328125,0.1865692138671875
1700516980601643500,12.0596435546875,-0.6919403076171875,-0.3046722412109375,-0.072784423828125
1700516980611653600,12.069653564453125,-1.210662841796875,-0.325286865234375,0.0792999267578125
1700516980621663500,12.07966357421875,-0.904022216796875,0.1163482666015625,0.1345367431640625
1700516980631674600,12.089674560546875,-0.680206298828125,-0.24957275390625,0.0751190185546875
1700516980641684500,12.0996845703125,-0.9231109619140625,-0.3615570068359375,-0.0273590087890625
1700516980651694600,12.109694580078125,-0.944000244140625,0.0892791748046875,0.26318359375
1700516980661705700,12.119705810546876,-0.601318359375,-0.055938720703125,0.1161346435546875
1700516980671715800,12.1297158203125,-1.25115966796875,-0.4744720458984375,-0.0843963623046875
1700516980681725700,12.1397255859375,-1.2447357177734375,0.0206756591796875,0.123291015625
1700516980691735800,12.14973583984375,-0.3291778564453125,0.118072509765625,-0.0373382568359375
1700516980701746700,12.15974658203125,-0.8680419921875,-0.2604827880859375,0.062164306640625
1700516980711756800,12.1697568359375,-1.2901611328125,-0.4000091552734375,0.1252593994140625
1700516980721766700,12.1797666015625,-0.729278564453125,0.20257568359375,-0.0025787353515625
1700516980731776800,12.18977685546875,-0.8701019287109375,-0.1758270263671875,0.144927978515625
1700516980741787600,12.19978759765625,-1.133697509765625,-0.32476806640625,0.078887939453125
1700516980751797200,12.20979736328125,-0.9969329833984375,0.0386962890625,0.114471435546875
1700516980761807000,12.21980712890625,-0.897857666015625,-0.0265045166015625,0.130859375
1700516980771817200,12.229817138671875,-1.1074066162109375,-0.5791168212890625,0.00616455078125
1700516980781828000,12.239828125,-1.2646484375,0.10089111328125,0.172943115234375
1700516980791838200,12.249838134765625,-0.7813720703125,-0.1634979248046875,0.09124755859375
1700516980801848000,12.25984814453125,-1.13458251953125,-0.427734375,-0.1606903076171875
1700516980811859500,12.269859375,-1.3448944091796875,0.000152587890625,0.1864471435546875
1700516980821869300,12.279869384765625,-0.783905029296875,-0.154144287109375,0.0537261962890625
1700516980831879400,12.28987939453125,-0.681976318359375,-0.2167816162109375,-0.09637451171875
1700516980841889300,12.29988916015625,-1.2801971435546875,-0.30694580078125,0.032989501953125
1700516980851900400,12.309900390625,-0.9109344482421875,0.1920166015625,0.1562347412109375
1700516980861910300,12.31991015625,-0.881439208984375,-0.1366119384765625,0.167083740234375
1700516980871920400,12.32992041015625,-1.3148956298828125,-0.397216796875,0.0246124267578125
1700516980881930200,12.33993017578125,-0.955963134765625,0.2171630859375,0.1876220703125
1700516980891941400,12.34994140625,-0.65533447265625,-0.111328125,0.1970062255859375
1700516980901951200,12.359951171875,-1.109222412109375,-0.610687255859375,-0.12921142578125
1700516980911961300,12.36996142578125,-1.3319091796875,0.171173095703125,0.140899658203125
1700516980921971200,12.37997119140625,-0.7505645751953125,-0.1621551513671875,0.1076812744140625
1700516980931982300,12.389982421875,-0.912994384765625,-0.33917236328125,-0.118072509765625
1700516980941992200,12.3999921875,-1.16009521484375,-0.1229095458984375,0.122772216796875
1700516980952002300,12.410002197265625,-0.8122406005859375,0.053131103515625,0.133056640625
1700516980962012400,12.420012451171875,-1.0402984619140625,-0.268707275390625,-0.04925537109375
1700516980972023300,12.430023193359375,-1.2879791259765625,-0.2729339599609375,0.1470489501953125
1700516980982033200,12.440033203125,-0.9606781005859375,0.1313018798828125,-0.0094451904296875
1700516980992043300,12.450043212890625,-0.69573974609375,-0.0328216552734375,0.2041473388671875
1700516981002054100,12.46005419921875,-1.15185546875,-0.5183868408203125,-0.002777099609375
1700516981012064300,12.470064208984375,-1.1717071533203125,0.209197998046875,0.209991455078125
1700516981022074000,12.48007421875,-0.7526092529296875,-0.1148681640625,0.1684722900390625
1700516981032084200,12.490084228515625,-1.14007568359375,-0.4292449951171875,-0.102020263671875
1700516981042095000,12.50009521484375,-1.2552337646484375,-0.0161895751953125,0.2208709716796875
1700516981052105200,12.510105224609376,-0.75408935546875,-0.0458831787109375,-0.0009307861328125
1700516981062115000,12.520114990234376,-1.053192138671875,-0.3355865478515625,0.0155792236328125
1700516981072125200,12.530125244140624,-1.4766998291015625,-0.2158050537109375,0.125457763671875
1700516981082136000,12.540135986328124,-0.6441802978515625,0.0130615234375,-0.0194854736328125
1700516981092146200,12.550146240234374,-0.483551025390625,-0.027008056640625,0.0866851806640625
1700516981102156300,12.56015625,-1.18939208984375,-0.4902496337890625,0.064422607421875
1700516981112166100,12.570166259765625,-1.09759521484375,0.1816864013671875,0.0815887451171875
1700516981122177300,12.58017724609375,-0.669830322265625,0.0040130615234375,0.1529388427734375
1700516981132187400,12.5901875,-0.9384918212890625,-0.26068115234375,-0.03753662109375
1700516981142197200,12.600197265625,-0.8679351806640625,0.0490875244140625,0.1231231689453125
1700516981152207400,12.610207275390625,-0.688323974609375,-0.04095458984375,0.0203704833984375
1700516981162218200,12.62021826171875,-1.3258819580078125,-0.4281005859375,-0.10797119140625
1700516981172228400,12.630228271484375,-1.0475921630859375,0.02313232421875,0.026580810546875
1700516981182238500,12.640238525390625,-0.7177734375,0.0506744384765625,0.030120849609375
1700516981192248300,12.650248291015625,-0.9959564208984375,-0.16326904296875,0.0303192138671875
1700516981202259200,12.66025927734375,-0.99639892578125,-0.388763427734375,0.0395050048828125
1700516981212269300,12.670269287109376,-1.095703125,0.0312957763671875,0.031463623046875
1700516981222279400,12.680279541015626,-1.1511993408203125,-0.07196044921875,0.19854736328125
1700516981232289300,12.690289306640626,-1.460296630859375,-0.454681396484375,0.0234222412109375
1700516981242300200,12.700300048828124,-1.41229248046875,0.180938720703125,0.291259765625
1700516981252310300,12.710310302734374,-0.824859619140625,-0.282989501953125,0.1687469482421875
1700516981262320400,12.7203203125,-0.8341064453125,-0.381317138671875,-0.1954345703125
1700516981272331300,12.730331298828125,-0.974151611328125,0.1571502685546875,0.0441436767578125
1700516981282341000,12.740341064453125,-0.7201995849609375,-0.1722259521484375,0.0632476806640625
1700516981292351200,12.750351318359375,-1.0850982666015625,-0.343841552734375,-0.1075897216796875
1700516981302361300,12.760361328125,-1.226593017578125,0.097747802734375,0.103118896484375
1700516981312372200,12.770372314453125,-0.6009368896484375,0.061126708984375,-0.0745849609375
1700516981322382300,12.78038232421875,-1.04998779296875,-0.126220703125,0.042755126953125
1700516981332392200,12.79039208984375,-1.014312744140625,-0.423858642578125,0.0419464111328125
1700516981342402300,12.80040234375,-0.3837432861328125,0.2616729736328125,0.0895233154296875
1700516981352413200,12.8104130859375,-0.6375274658203125,0.0929412841796875,0.074554443359375
1700516981362423300,12.82042333984375,-1.3569488525390625,-0.393646240234375,0.1224212646484375
1700516981372433200,12.83043310546875,-1.8493804931640625,0.0559234619140625,0.025360107421875
1700516981382443300,12.840443359375,-0.9293670654296875,0.0477447509765625,0.16241455078125
1700516981392453000,12.850453125,-1.9723358154296875,-0.631134033203125,0.0202178955078125
1700516981402464300,12.86046435546875,-1.16107177734375,0.0016937255859375,0.1606292724609375
1700516981412474000,12.87047412109375,-0.4265594482421875,-0.0832366943359375,0.2191925048828125
