time,seconds_elapsed,z,y,x
1700516968599620000,0.0576201171875,-0.021900465711951256,0.0230186078697443,-0.23978114128112793
1700516968609629000,0.06762890625,-0.033053718507289886,0.017475537955760956,0.05382838100194931
1700516968619639000,0.07763916015625,-0.002826038049533963,-0.13117891550064087,0.07383937388658524
1700516968629648000,0.08764794921875,-0.018872534856200218,0.22845683991909027,-0.05047566443681717
1700516968639658000,0.097657958984375,-0.0017465443816035986,-0.2699902355670929,0.12766291201114655
1700516968649667000,0.1076669921875,-0.02927638776600361,0.16096191108226776,-0.2810952067375183
1700516968659677000,0.117677001953125,-0.05173269286751747,0.04637327790260315,-0.08359919488430023
1700516968669686000,0.12768603515625,0.021972665563225746,-0.09308448433876038,0.15167342126369476
1700516968679696100,0.137696044921875,-0.005150298587977886,0.022920414805412292,-0.05825929716229439
1700516968689706000,0.1477060546875,-0.0382988415658474,0.11790551990270615,-0.23492537438869476
1700516968699714800,0.15771484375,0.005182323511689901,-0.07207826524972916,0.06878577172756195
1700516968709725000,0.167724853515625,0.014121870510280132,0.041530415415763855,0.02633630484342575
1700516968719734000,0.177734130859375,0.038718294352293015,0.14984038472175598,0.14951948821544647
1700516968729744000,0.187743896484375,0.02678416483104229,-0.16786015033721924,0.09203115105628967
1700516968739756300,0.19775634765625,-0.011412221007049084,0.29307204484939575,-0.1625276356935501
1700516968749766400,0.207766357421875,0.02995908446609974,-0.030618885532021523,0.16388462483882904
1700516968759775500,0.217775390625,0.09877889603376389,0.050605930387973785,0.1839374154806137
1700516968769785300,0.227785400390625,0.001659998088143766,0.0071039581671357155,-0.10758152604103088
1700516968779794400,0.23779443359375,-0.016589846462011337,0.1629398912191391,-0.07148530334234238
1700516968789804500,0.247804443359375,0.04289492964744568,-0.14918413758277893,0.1928030401468277
1700516968799813400,0.2578134765625,0.012835031375288963,0.16980530321598053,0.03184984624385834
1700516968809823200,0.2678232421875,0.03524746373295784,-0.08885951340198517,0.15154670178890228
1700516968819832300,0.277832275390625,-0.02708381973206997,-0.0324857234954834,-0.13476574420928955
1700516968829842400,0.287842529296875,-0.02852802351117134,0.055810533463954926,-0.05648907274007797
1700516968839851300,0.297851318359375,0.01339199673384428,-0.04356957972049713,0.13557010889053345
1700516968849861400,0.307861328125,0.011101805604994297,-0.034833893179893494,0.029680514708161354
1700516968859870500,0.317870361328125,-0.05362206697463989,-0.061490803956985474,-0.22471368312835693
1700516968869880300,0.32788037109375,-0.03625505790114403,0.04933688044548035,-0.023295408114790916
1700516968879889400,0.337889404296875,0.007366984151303768,-0.20271053910255432,0.14486616849899292
1700516968889899500,0.3478994140625,-0.013254404999315739,0.19404160976409912,-0.05831997096538544
1700516968899908400,0.357908447265625,0.0031392162200063467,-0.17841212451457977,0.14295828342437744
1700516968909918200,0.367918212890625,-0.04324357584118843,0.017647836357355118,-0.17194105684757233
1700516968919927300,0.37792724609375,-0.03613879531621933,0.03467582166194916,-0.01937016099691391
1700516968929937400,0.3879375,0.008056703954935074,-0.05478694289922714,0.16281850636005402
1700516968939947300,0.397947265625,0.022376254200935364,0.00645830761641264,0.00313670770265162
1700516968949956400,0.407956298828125,-0.037567999213933945,0.012091509066522121,-0.20241029560565948
1700516968959966500,0.417966552734375,0.018440674990415573,0.05910082906484604,0.041577331721782684
1700516968969975600,0.4279755859375,0.009540464729070663,-0.10646548867225647,0.13906949758529663
1700516968979985400,0.4379853515625,0.020494844764471054,0.23592513799667358,-0.03826720267534256
1700516968989994200,0.447994140625,0.03352013975381851,-0.19105935096740723,0.14200544357299805
1700516969000004400,0.45800439453125,-0.02943512424826622,0.08116763830184937,-0.20354369282722473
1700516969010013400,0.468013427734375,0.005784410517662764,-0.014228736981749535,0.024188460782170296
1700516969020023300,0.478023193359375,0.015198418870568275,-0.0276769008487463,0.12558405101299286
1700516969030032400,0.488032470703125,0.015491055324673653,-0.05152663215994835,-0.0390850268304348
1700516969040042500,0.49804248046875,-0.04824052006006241,0.03131072595715523,-0.2694460451602936
1700516969050051300,0.50805126953125,0.019468097016215324,0.01667909510433674,0.046734243631362915
1700516969060061400,0.5180615234375,0.013075712136924267,-0.0519644133746624,0.10549583286046982
1700516969070070500,0.528070556640625,0.04038889333605766,0.2996748685836792,-0.029307249933481216
1700516969080080400,0.538080322265625,0.03658962994813919,-0.2320404052734375,0.09062075614929199
1700516969090089200,0.548089111328125,-0.04744509235024452,0.12539109587669373,-0.26224252581596375
1700516969100099300,0.558099365234375,0.012356989085674286,-0.04907897487282753,0.020932188257575035
1700516969110108400,0.5681083984375,0.03444688022136688,0.03804402053356171,0.10035912692546844
1700516969120118300,0.5781181640625,0.028683265671133995,0.0057702381163835526,-0.06307161599397659
1700516969130127400,0.58812744140625,-0.04058856517076492,0.07512067258358002,-0.20198263227939606
1700516969140137500,0.598137451171875,0.03519994020462036,0.0002203356707468629,0.12206041812896729
1700516969150147300,0.608147216796875,0.005498136393725872,-0.019907020032405853,0.07960164546966553
1700516969160156400,0.618156494140625,0.0247192345559597,0.24907252192497253,-0.0008628359064459801
1700516969170166500,0.62816650390625,0.0047692605294287205,-0.26311758160591125,0.09971196204423904
1700516969180175400,0.63817529296875,-0.040945231914520264,0.17943719029426575,-0.22456517815589905
1700516969190185200,0.648185302734375,0.0001392718404531479,-0.12400538474321365,0.08397507667541504
1700516969200194300,0.6581943359375,0.017821596935391426,0.06385399401187897,0.08761082589626312
1700516969210204400,0.668204345703125,-0.003081661881878972,-0.0703868567943573,-0.052600301802158356
1700516969220213500,0.678213623046875,-0.06119929254055023,0.09658960998058319,-0.20559917390346527
1700516969230223400,0.688223388671875,0.037049923092126846,-0.03749890625476837,0.1545584499835968
1700516969240232400,0.698232421875,-0.0019174511544406414,-0.01931564137339592,0.05336126312613487
1700516969250242600,0.70824267578125,0.036143381148576736,0.196802020072937,0.01217787154018879
1700516969260251400,0.71825146484375,-0.007320309057831764,-0.23045888543128967,0.06000209599733353
1700516969270261200,0.72826123046875,-0.026555828750133514,0.1740974634885788,-0.2280389666557312
1700516969280270300,0.738270263671875,0.011714061722159386,-0.12129265069961548,0.06958286464214325
1700516969290280400,0.748280517578125,0.027743518352508545,0.07929932326078415,0.03492416441440582
1700516969300289300,0.758289306640625,0.017154790461063385,-0.06028866022825241,-0.0921405702829361
1700516969310299400,0.76829931640625,-0.06568754464387894,0.05895957723259926,-0.22988753020763397
1700516969320309500,0.7783095703125,0.04194410890340805,-0.0250847265124321,0.10366860777139664
1700516969330318300,0.788318359375,-0.007497054990381002,-0.039665497839450836,0.03252043202519417
1700516969340328400,0.798328369140625,0.025696584954857826,0.2063477486371994,-0.027175653725862503
1700516969350337500,0.808337646484375,-0.002811059355735779,-0.27798667550086975,0.08801719546318054
1700516969360347400,0.818347412109375,-0.03709898889064789,0.15645715594291687,-0.23701681196689606
1700516969370356200,0.828356201171875,0.024065177887678146,-0.07949154078960419,0.049312151968479156
1700516969380366300,0.838366455078125,0.020312517881393433,0.019451286643743515,0.08857806771993637
1700516969390375400,0.84837548828125,0.01026937272399664,-0.07923732697963715,-0.0642966702580452
1700516969400385300,0.85838525390625,-0.06305863708257675,0.052789945155382156,-0.21524862945079803
1700516969410394400,0.868394287109375,0.05051765590906143,-0.02297927811741829,0.11345811188220978
1700516969420404500,0.878404541015625,-0.017465386539697647,-0.06995770335197449,0.07514374703168869
1700516969430413600,0.88841357421875,0.04387954622507095,0.23097831010818481,-0.010910174809396267
1700516969440423400,0.89842333984375,-0.014604004099965096,-0.2877516746520996,0.09082311391830444
1700516969450432300,0.908432373046875,-0.03437817469239235,0.1863488107919693,-0.23732227087020874
1700516969460442400,0.9184423828125,0.015943849459290504,-0.08413620293140411,0.10179507732391357
1700516969470452200,0.9284521484375,0.025288932025432587,0.026924991980195045,0.12538030743598938
1700516969480461300,0.93846142578125,0.013465030118823051,-0.08371123671531677,-0.061867352575063705
1700516969490471400,0.948471435546875,-0.0766373798251152,0.0728876143693924,-0.19446265697479248
1700516969500480500,0.95848046875,0.046886689960956573,-0.06559383124113083,0.18553633987903595
1700516969510490400,0.968490478515625,-0.012303364463150501,-0.004632918164134026,0.07427369058132172
1700516969520499500,0.97849951171875,0.018800493329763412,0.11385218054056168,0.07995793968439102
1700516969530509600,0.988509521484375,-0.0024641845375299454,-0.19515682756900787,0.016538742929697037
1700516969540518400,0.998518310546875,-0.04641805961728096,0.1022314578294754,-0.22478173673152924
1700516969550528300,1.0085283203125,0.0017284961650148034,-0.11045273393392563,0.13986949622631073
1700516969560537300,1.018537353515625,0.008230337873101234,0.0018192166462540627,0.1111755296587944
1700516969570547500,1.02854736328125,-0.01307737361639738,-0.0795215368270874,-0.16468316316604614
1700516969580556300,1.038556396484375,-0.05513188615441322,0.0535435751080513,-0.19340217113494873
1700516969590566400,1.04856640625,0.03351234644651413,-0.10598500818014145,0.17754578590393066
1700516969600576500,1.058576416015625,0.006688454654067755,0.007050735875964165,0.01225271075963974
1700516969610585300,1.06858544921875,0.02623715251684189,0.08113729953765869,0.06550577282905579
1700516969620595500,1.078595458984375,-0.008710445836186409,-0.1362498700618744,-0.07280389964580536
1700516969630604500,1.0886044921875,-0.026250669732689857,0.06912435591220856,-0.18861545622348785
1700516969640614100,1.0986142578125,0.013061849400401115,-0.04860413447022438,0.15114343166351318
1700516969650623200,1.108623291015625,0.04057924076914787,0.036906205117702484,0.10574986785650253
1700516969660633300,1.11863330078125,-0.003734961850568652,-0.03855979070067406,-0.16846811771392822
1700516969670642400,1.128642333984375,-0.033546581864356995,0.08256201446056366,-0.0953582227230072
1700516969680652300,1.13865234375,0.03862614929676056,-0.052799537777900696,0.23417706787586212
1700516969690661400,1.148661376953125,0.024379801005125046,0.07162570208311081,0.049445826560258865
1700516969700671500,1.15867138671875,0.032259561121463776,0.03475237637758255,0.1556795984506607
1700516969710680600,1.1686806640625,-0.012471208348870277,-0.04045539349317551,-0.06363411247730255
1700516969720690400,1.1786904296875,-0.01687474548816681,0.04282218590378761,-0.060698509216308594
1700516969730700500,1.188700439453125,0.0077488417737185955,-0.010604288429021835,0.18060119450092316
1700516969740706600,1.19870654296875,0.012632280588150024,0.031750891357660294,0.11349965631961823
1700516969750716700,1.208716552734375,-0.02689221315085888,-0.042074453085660934,-0.1993485540151596
1700516969760725800,1.218725830078125,-0.03287367522716522,0.033618178218603134,-0.011199410073459148
1700516969770735600,1.228735595703125,0.02082214690744877,-0.09097862243652344,0.2235712856054306
1700516969780744400,1.238744384765625,0.008845113217830658,0.028593311086297035,0.009744221344590187
1700516969790754600,1.248754638671875,0.007420137524604797,-0.029850415885448456,0.10635731369256973
1700516969800763600,1.258763671875,-0.014918724074959755,-0.04828241840004921,-0.16653813421726227
1700516969810773500,1.2687734375,-0.016496144235134125,0.01151194702833891,-0.06193527951836586
1700516969820783600,1.27878369140625,0.010524554178118706,-0.009230614639818668,0.15109069645404816
1700516969830792700,1.288792724609375,0.008889693766832352,0.01466120034456253,0.006677061785012484
1700516969840802600,1.298802490234375,-0.02710878476500511,-0.03649599105119705,-0.2681366801261902
1700516969850811600,1.308811767578125,-0.025909138843417168,-0.0014479442033916712,-0.0014735455624759197
1700516969860821800,1.31882177734375,0.005962241441011429,-0.07816962152719498,0.14554066956043243
1700516969870830600,1.32883056640625,-0.00787584949284792,0.07579229772090912,-0.027157602831721306
1700516969880840400,1.33884033203125,-0.008054280653595924,-0.06455016881227493,0.07310881465673447
1700516969890849500,1.348849609375,-0.026652468368411064,-0.06728865951299667,-0.21640902757644653
1700516969900859600,1.358859619140625,-0.021473418921232224,-0.04355110600590706,0.0015725784469395876
1700516969910869500,1.368869384765625,0.01614971272647381,-0.010211695916950703,0.12535817921161652
1700516969920878600,1.378878662109375,-0.00021567876683548093,-0.022783679887652397,-0.019401412457227707
1700516969930888700,1.388888671875,-0.036816541105508804,-0.06185700744390488,-0.2662578225135803
1700516969940897800,1.398897705078125,-0.005034376867115498,-0.019609954208135605,0.07767480611801147
1700516969950907600,1.40890771484375,-0.0034887809306383133,-0.04675142839550972,0.1279342621564865
1700516969960916700,1.418916748046875,0.00701632397249341,0.1349208950996399,0.02538364753127098
1700516969970926600,1.428926513671875,0.00714257825165987,-0.09144407510757446,0.08569517731666565
1700516969980935700,1.438935791015625,-0.015028770081698895,0.012933466583490372,-0.18758749961853027
1700516969990945500,1.448945556640625,0.00041942449752241373,-0.03817811235785484,0.0807717964053154
1700516970000955600,1.45895556640625,0.021931108087301254,0.028719430789351463,0.12857261300086975
1700516970010964700,1.46896484375,0.006322549190372229,-0.0064057172276079655,-0.05909768119454384
1700516970020974600,1.478974609375,-0.014998451806604862,0.011651313863694668,-0.19870910048484802
1700516970030983700,1.488983642578125,0.010862661525607109,-0.04611876979470253,0.14414145052433014
1700516970040993800,1.498993896484375,-0.0003449853975325823,-0.014915312640368938,0.050939060747623444
1700516970051002600,1.509002685546875,0.0055336616933345795,0.05729280784726143,0.045863356441259384
1700516970061012700,1.5190126953125,-0.010542777366936207,-0.11522836983203888,-0.013919282704591751
1700516970071021600,1.529021484375,-0.018549244850873947,0.00980254728347063,-0.19865477085113525
1700516970081031700,1.53903173828125,-0.007947200909256935,-0.05057743936777115,0.09014798700809479
1700516970091041500,1.54904150390625,0.021446138620376587,0.04073452204465866,0.10470325499773026
1700516970101050600,1.559050537109375,-0.014552340842783451,-0.025235706940293312,-0.1564287394285202
1700516970111060700,1.569060791015625,-0.02242445945739746,0.044990912079811096,-0.19187195599079132
1700516970121069600,1.579069580078125,0.02350228652358055,-0.030428212136030197,0.1965402364730835
1700516970131079700,1.58907958984375,0.013407992199063301,0.04962955042719841,0.029277488589286804
1700516970141088800,1.5990888671875,0.01610364392399788,0.026444071903824806,0.059843651950359344
1700516970151098600,1.6090986328125,-0.008418327197432518,-0.04179368540644646,-0.08417073637247086
1700516970161108700,1.619108642578125,-0.016873065382242203,0.03809075802564621,-0.10970112681388855
1700516970171117600,1.62911767578125,0.0047575123608112335,-0.026767482981085777,0.11923321336507797
1700516970181127400,1.63912744140625,0.018380112946033478,0.043345823884010315,0.05649099871516228
1700516970191136500,1.649136474609375,-0.019791312515735626,-0.05399252101778984,-0.20101138949394226
1700516970201146600,1.659146728515625,-0.027419669553637505,0.05049367621541023,-0.0978463888168335
1700516970211155700,1.66915576171875,0.023098908364772797,-0.056767549365758896,0.20325756072998047
1700516970221165600,1.67916552734375,0.010875264182686806,0.06650564819574356,-0.008738039992749691
1700516970231175700,1.68917578125,0.011056235991418362,-0.011834201402962208,0.09896175563335419
1700516970241184800,1.699184814453125,-0.010327616706490517,-0.02654843218624592,-0.10879968851804733
1700516970251194600,1.709194580078125,-0.015854135155677795,0.030949821695685387,-0.029751460999250412
1700516970261203500,1.719203369140625,0.00803521927446127,-0.00099585996940732,0.13850651681423187
1700516970271213600,1.729213623046875,0.015488708391785622,0.028392046689987183,0.043957144021987915
1700516970281223400,1.739223388671875,-0.02368319407105446,-0.03674780949950218,-0.21161575615406036
1700516970291232500,1.749232421875,-0.0193108431994915,0.03470895066857338,0.01538781076669693
1700516970301242600,1.75924267578125,0.015366978012025356,-0.06542723625898361,0.2021060287952423
1700516970311251700,1.769251708984375,0.006385013926774263,0.10229840129613876,-0.012486374005675316
1700516970321261600,1.779261474609375,0.007971725426614285,-0.04672650247812271,0.11734725534915924
1700516970331270700,1.789270751953125,-0.008444638922810555,0.0035446682013571262,-0.14773207902908325
1700516970341280800,1.79928076171875,-0.012540580704808235,-0.011430286802351475,0.0020520826801657677
1700516970351290600,1.80929052734375,0.009584587067365646,0.013733463361859322,0.1255209892988205
1700516970361299700,1.8192998046875,0.00682448735460639,0.010395457036793232,0.012880723923444748
1700516970371309800,1.829309814453125,-0.0190789345651865,-0.0046632480807602406,-0.2414434254169464
1700516970381318700,1.839318603515625,-0.006569800898432732,0.007942025549709797,0.058583762496709824
1700516970391328500,1.84932861328125,0.010537493973970413,-0.059753481298685074,0.1695558726787567
1700516970401338600,1.859338623046875,-0.0016741645522415638,0.10819291323423386,-0.02858518436551094
1700516970411347700,1.86934765625,0.011571599170565605,-0.036997776478528976,0.10696249455213547
1700516970421357600,1.879357666015625,-0.013446669094264507,0.009338296949863434,-0.17382150888442993
1700516970431366700,1.88936669921875,-0.00422089034691453,-0.019977610558271408,0.04291165620088577
1700516970441376800,1.899376708984375,0.018328094854950905,0.025531817227602005,0.12422062456607819
1700516970451386600,1.90938671875,0.009342585690319538,-0.005219909828156233,-0.016474740579724312
1700516970461395700,1.919395751953125,-0.021883243694901466,0.0024105794727802277,-0.24085111916065216
1700516970471405800,1.92940576171875,0.009678736329078674,-0.0019943832885473967,0.12097878009080887
1700516970481414700,1.93941455078125,0.009196171537041664,-0.0447855219244957,0.1430976688861847
1700516970491424500,1.949424560546875,-0.00776703143492341,0.12022065371274948,-0.025391411036252975
1700516970501434600,1.9594345703125,0.010153379291296005,-0.05218467116355896,0.07751206308603287
1700516970511443700,1.969443603515625,-0.015091274864971638,0.006824679672718048,-0.1709432452917099
1700516970521453600,1.97945361328125,0.00346509856171906,-0.03883867710828781,0.05867023766040802
1700516970531462700,1.989462646484375,0.01869390159845352,0.019748756662011147,0.10335592925548553
1700516970541472800,1.99947265625,0.0019751079380512238,-0.024785155430436134,-0.04579387232661247
1700516970551482600,2.009482666015625,-0.02313411235809326,0.006143359001725912,-0.24598531424999237
1700516970561491700,2.01949169921875,0.011461681686341763,-0.017336932942271233,0.14428548514842987
1700516970571501800,2.029501708984375,-0.0044847941026091576,-0.03140321746468544,0.10567605495452881
1700516970581510700,2.0395107421875,0.00037760520353913307,0.11503255367279053,-0.024204980581998825
1700516970591520500,2.0495205078125,0.011696913279592991,-0.0840393528342247,0.05669500678777695
1700516970601530600,2.059530517578125,-0.02204001136124134,0.013857385143637657,-0.20825862884521484
1700516970611539700,2.069539794921875,0.0012768167071044445,-0.053803700953722,0.08348417282104492
1700516970621549600,2.079549560546875,0.01890028454363346,0.0302046500146389,0.10276546329259872
1700516970631559700,2.0895595703125,-0.002876121085137129,-0.023407362401485443,-0.08249610662460327
1700516970641568800,2.09956884765625,-0.02985207736492157,0.025909321382641792,-0.22150751948356628
1700516970651578600,2.10957861328125,0.018714891746640205,-0.027335641905665398,0.19298499822616577
1700516970661587700,2.119587646484375,-0.0033643110655248165,0.0030702000949531794,0.0834699422121048
1700516970671597800,2.129597900390625,0.007987349294126034,0.08666286617517471,0.007969297468662262
1700516970681607700,2.139607666015625,0.007399856112897396,-0.07730156928300858,0.0372139997780323
1700516970691616500,2.149616455078125,-0.018671352416276932,0.04076436534523964,-0.18283940851688385
1700516970701626600,2.159626708984375,0.00563425337895751,-0.03818238154053688,0.10889364778995514
1700516970711636500,2.169636474609375,0.015900516882538795,0.03509291633963585,0.10026737302541733
1700516970721645600,2.1796455078125,-0.007891098968684673,-0.02219380810856819,-0.13325509428977966
1700516970731655700,2.18965576171875,-0.03325935825705528,0.04366343095898628,-0.184353768825531
1700516970741664000,2.1996640625,0.028827447444200516,-0.028241116553544998,0.21611933410167694
1700516970751673900,2.209673828125,0.0039084251038730145,0.019891483709216118,0.03374424949288368
1700516970761684000,2.21968408203125,0.012453443370759487,0.04410973936319351,0.0388449989259243
1700516970771693000,2.229693115234375,0.006723203230649233,-0.05750394985079765,-0.02999676950275898
1700516970781703000,2.239702880859375,-0.01713499054312706,0.050268854945898056,-0.1365538388490677
1700516970791713000,2.249713134765625,0.006111594848334789,-0.030222902074456215,0.11215101927518845
1700516970801722000,2.25972216796875,0.022650090977549553,0.04828708618879318,0.0840354934334755
1700516970811732000,2.26973193359375,-0.014485910534858704,-0.03149406611919403,-0.17592811584472656
1700516970821742000,2.2797421875,-0.03112746961414814,0.0551590695977211,-0.11723844707012177
1700516970831751200,2.289751220703125,0.032677531242370605,-0.04492159187793732,0.23568180203437805
1700516970841761000,2.299760986328125,0.00762410880997777,0.04134511947631836,0.011846578679978848
1700516970851769900,2.309769775390625,0.017163440585136414,-0.0013983432436361909,0.07301858067512512
1700516970861780000,2.319780029296875,-0.002079230733215809,-0.028697874397039413,-0.06782722473144531
1700516970871789800,2.329789794921875,-0.014453495852649212,0.03568163886666298,-0.07186935842037201
1700516970881799000,2.339798828125,0.0035747727379202843,-0.02194969914853573,0.10233733057975769
1700516970891809000,2.34980908203125,0.018068980425596237,0.04348878189921379,0.04825499653816223
1700516970901819000,2.35981884765625,-0.022696824744343758,-0.04011397063732147,-0.21483415365219116
1700516970911828000,2.369827880859375,-0.030666377395391464,0.04781341180205345,-0.07819680869579315
1700516970921838000,2.379838134765625,0.029644634574651718,-0.0606699213385582,0.21326859295368195
1700516970931848000,2.389847900390625,0.00514712929725647,0.04350307583808899,-0.031471364200115204
1700516970941857000,2.39985693359375,0.01068197749555111,-0.012115176767110825,0.07274265587329865
1700516970951867100,2.4098671875,-0.006708995439112186,-0.017675483599305153,-0.12119400501251221
1700516970961877000,2.419876953125,-0.013710979372262955,0.021982712671160698,-0.05053927004337311
1700516970971885800,2.4298857421875,0.003858730662614107,-0.004408666398376226,0.09992077201604843
1700516970981896000,2.43989599609375,0.013215746730566025,0.020335562527179718,0.03004528395831585
1700516970991906000,2.449906005859375,-0.02339327521622181,-0.0409262590110302,-0.2044440507888794
1700516971001915000,2.459914794921875,-0.02543405443429947,0.05124521255493164,-0.02365189418196678
1700516971011925000,2.469925048828125,0.02851792983710766,-0.07858891785144806,0.20246931910514832
1700516971021935000,2.47993505859375,-0.0011422268580645323,0.05422079190611839,-0.03974784165620804
1700516971031944000,2.48994384765625,0.0108790947124362,-0.0308829378336668,0.100273497402668
1700516971041954000,2.4999541015625,-0.011094114743173122,0.0002645954955369234,-0.12108791619539261
1700516971051964200,2.509964111328125,-0.019082196056842804,0.022410836070775986,-0.04108535870909691
1700516971061973000,2.519972900390625,0.0015674227615818381,-0.008155596442520618,0.09671378135681152
1700516971071983000,2.529983154296875,0.01039958093315363,0.020004844292998314,0.024967370554804802
1700516971081993200,2.5399931640625,-0.02507558837532997,-0.07982347905635834,-0.1904115229845047
1700516971092001800,2.550001708984375,-0.02496960014104843,0.09742138534784317,-0.026874277740716934
1700516971102012000,2.560011962890625,0.03063800372183323,-0.09240713715553284,0.22133126854896545
1700516971112022000,2.57002197265625,0.0007619495736435056,0.09129232168197632,-0.03988693654537201
1700516971122030800,2.58003076171875,0.02393731102347374,0.01675337180495262,0.11988515406847
1700516971132041000,2.590041015625,-0.019574638456106186,-0.0369802825152874,-0.11322671175003052
1700516971142051000,2.600051025390625,0.0016219932585954666,0.09952190518379211,-0.020785726606845856
1700516971152060000,2.610059814453125,0.004452216904610395,-0.021884972229599953,0.10362150520086288
1700516971162070000,2.620070068359375,0.023283429443836212,0.02373790554702282,0.029834363609552383
1700516971172080000,2.630080078125,-0.007589341141283512,-0.02835392765700817,-0.1664200872182846
1700516971182089200,2.640089111328125,-0.02114642970263958,0.08603603392839432,-0.008303424343466759
1700516971192099000,2.65009912109375,0.04370409995317459,-0.08881843090057373,0.21138156950473785
1700516971202109200,2.660109130859375,0.0019454712746664882,0.09712933003902435,-0.041647493839263916
1700516971212119000,2.670119140625,0.026116808876395226,-0.012782910838723183,0.13795232772827148
1700516971222127900,2.6801279296875,-0.01233524177223444,-0.01439492218196392,-0.11360587179660797
1700516971232138000,2.690137939453125,-0.015996156260371208,0.050234243273735046,-0.04989231005311012
1700516971242147800,2.70014794921875,0.012953204102814198,-0.006619982421398163,0.1154380589723587
1700516971252157000,2.710156982421875,0.01999048888683319,0.013583029620349407,0.02468310296535492
1700516971262167000,2.7201669921875,-0.01864931546151638,-0.02958308346569538,-0.2168794572353363
1700516971272177000,2.730177001953125,-0.02205619402229786,0.06203566491603851,0.01866190880537033
1700516971282186000,2.74018603515625,0.03503691777586937,-0.09642854332923889,0.1849944293498993
1700516971292196000,2.750196044921875,-0.00600614445284009,0.1195276603102684,-0.015311526134610176
1700516971302206000,2.7602060546875,0.02710786648094654,-0.061043448746204376,0.12143620103597641
1700516971312216000,2.770216064453125,-0.01863650418817997,0.016341596841812134,-0.15053103864192963
1700516971322225200,2.78022509765625,-0.01851799339056015,-0.0028760386630892754,-0.003661166876554489
1700516971332235000,2.790235107421875,0.01814097724854946,0.010846441611647606,0.13995453715324402
1700516971342245000,2.8002451171875,0.024423107504844666,0.001957342494279146,0.03893657773733139
1700516971352254000,2.81025390625,-0.015343192964792252,0.006755676120519638,-0.22961729764938354
1700516971362263800,2.820263916015625,-0.008140673860907555,0.043431930243968964,0.06952732801437378
1700516971372274000,2.83027392578125,0.03524947911500931,-0.07168642431497574,0.21305932104587555
1700516971382284000,2.840283935546875,0.004042292479425669,0.11519797146320343,-0.002842885907739401
1700516971392292900,2.85029296875,0.0252736434340477,-0.015879474580287933,0.10879197716712952
1700516971402303000,2.860302978515625,-0.013850856572389603,0.01615595631301403,-0.18005022406578064
1700516971412313000,2.87031298828125,-0.013853229582309723,0.008344222791492939,-0.027058452367782593
1700516971422322000,2.880322021484375,0.017831996083259583,0.021097036078572273,0.10411820560693741
1700516971432332000,2.89033203125,0.020091090351343155,-0.007611487992107868,-0.03773423284292221
1700516971442342100,2.900342041015625,-0.023786619305610657,-0.007470873184502125,-0.28772249817848206
1700516971452352000,2.91035205078125,-0.018937719985842705,0.020620398223400116,0.037612851709127426
1700516971462361000,2.920361083984375,0.02700021117925644,-0.08740780502557755,0.16607043147087097
1700516971472371200,2.93037109375,-0.010680589824914932,0.11023309826850891,-0.056681159883737564
1700516971482381000,2.940381103515625,0.018443474546074867,-0.042866699397563934,0.07365820556879044
1700516971492390000,2.950389892578125,-0.01386013813316822,-0.013583911582827568,-0.1683696061372757
1700516971502400000,2.96039990234375,-0.01213840488344431,-0.0016580094816163182,-0.0076395804062485695
1700516971512409900,2.970409912109375,0.012678252533078194,0.008490119129419327,0.09737217426300049
1700516971522420000,2.980419921875,0.013031654059886932,0.012205760926008224,-0.008902067318558693
1700516971532429000,2.990428955078125,-0.01562991924583912,-0.03413167595863342,-0.2263403832912445
1700516971542439000,3.00043896484375,-0.01767655834555626,0.029017196968197823,0.0559467114508152
1700516971552449000,3.010448974609375,0.024582961574196815,-0.076125867664814,0.16951024532318115
1700516971562459000,3.020458984375,-0.01344910915941,0.1016412004828453,-0.03390545770525932
1700516971572468000,3.030468017578125,0.022855065762996674,-0.031062526628375053,0.1191401332616806
1700516971582478000,3.04047802734375,-0.006495367269963026,-0.01163449976593256,-0.16952203214168549
1700516971592488000,3.050488037109375,-0.014659721404314041,-0.0014092596247792244,-0.017675252631306648
1700516971602498000,3.060498046875,0.021470852196216583,-0.0018268433632329106,0.10138189792633057
1700516971612507100,3.070507080078125,0.02788737416267395,0.022682039067149162,-0.0227105263620615
1700516971622517000,3.08051708984375,-0.03477733954787254,-0.07202635705471039,-0.2771502435207367
1700516971632527000,3.090527099609375,-0.014201818965375423,0.02828877419233322,0.0025569885037839413
1700516971642537200,3.100537109375,0.01713133603334427,-0.12724168598651886,0.12144449353218079
1700516971652546000,3.110546142578125,-0.031578049063682556,0.05869251862168312,-0.07788334786891937
1700516971662556000,3.120555908203125,0.0011793655576184392,-0.05732996016740799,0.07189175486564636
1700516971672566000,3.13056591796875,-0.020266704261302948,-0.0874122753739357,-0.22980137169361115
1700516971682576000,3.140575927734375,-0.029995497316122055,-0.013448037207126617,-0.09440945833921432
1700516971692585000,3.1505849609375,0.010869351215660572,-0.06976214796304703,0.09306623041629791
1700516971702595000,3.160594970703125,-0.005833995062857866,0.0015740846283733845,-0.014812033623456955
1700516971712605000,3.17060498046875,-0.03300176188349724,-0.08905649930238724,-0.2963468134403229
1700516971722615000,3.180614990234375,-0.019992217421531677,0.06351227313280106,-0.021341592073440552
1700516971732625000,3.190625,0.002127647865563631,-0.1033780574798584,0.134194016456604
1700516971742633700,3.2006337890625,-0.014070496894419193,0.11050014197826385,-0.0008655334822833538
1700516971752643800,3.210643798828125,0.00037872418761253357,-0.07541166990995407,0.11870067566633224
1700516971762654000,3.220654052734375,-0.01985517516732216,-0.016719596460461617,-0.24336619675159454
1700516971772663800,3.230663818359375,-0.014747938141226768,0.005099672824144363,-0.005032224114984274
1700516971782673000,3.2406728515625,0.02002948336303234,0.006151621229946613,0.15718863904476166
1700516971792683000,3.25068310546875,0.017124082893133163,-0.021306905895471573,0.0005768274422734976
1700516971802692900,3.26069287109375,-0.03827312961220741,0.00786562729626894,-0.26159435510635376
1700516971812703000,3.270702880859375,0.0032492796890437603,0.002605085028335452,0.11261467635631561
1700516971822712800,3.280712890625,0.006683213170617819,-0.0436103381216526,0.14340901374816895
1700516971832721700,3.2907216796875,-0.0001246372703462839,0.13096918165683746,0.046874549239873886
1700516971842731800,3.300731689453125,0.009219329804182053,-0.12458427995443344,0.07959042489528656
1700516971852741600,3.31074169921875,-0.029529448598623276,0.0447181835770607,-0.22119010984897614
1700516971862751700,3.320751708984375,-0.004170562606304884,-0.06255634129047394,0.09601686894893646
1700516971872760800,3.3307607421875,0.014213229529559612,0.027359697967767715,0.1438385248184204
1700516971882770700,3.340770751953125,-0.00014573615044355392,-0.022225698456168175,-0.07107245177030563
1700516971892780800,3.35078076171875,-0.04832704737782478,0.036893680691719055,-0.22106409072875977
1700516971902791000,3.360791015625,0.02360839769244194,-0.035976797342300415,0.1957019716501236
1700516971912800800,3.37080078125,0.0016714263474568725,-0.0033902288414537907,0.07905519008636475
1700516971922809900,3.380809814453125,-0.0008817460620775819,0.09229927510023117,0.0587531141936779
1700516971932820000,3.390820068359375,0.0014107085298746824,-0.10731689631938934,0.016057245433330536
1700516971942829800,3.400829833984375,-0.023435786366462708,0.059845466166734695,-0.1626368761062622
1700516971952840000,3.41083984375,0.0025680013932287693,-0.03750185668468475,0.11594877392053604
1700516971962849800,3.420849853515625,0.01844283752143383,0.04650063440203667,0.11049328744411469
1700516971972859000,3.43085888671875,-0.011565972119569778,-0.03933783620595932,-0.1208186224102974
1700516971982869000,3.440868896484375,-0.04236782714724541,0.06229903921484947,-0.15427006781101227
1700516971992878800,3.45087890625,0.027928873896598816,-0.04616325721144676,0.22073042392730713
1700516972002889000,3.460888916015625,0.018612071871757507,0.02539880946278572,0.021224504336714745
1700516972012898800,3.47089892578125,0.012450439855456352,0.04577172175049782,0.10064620524644852
1700516972022907600,3.48090771484375,-0.003811619943007827,-0.06210893765091896,-0.045656949281692505
1700516972032917800,3.490917724609375,-0.024324893951416016,0.06779340654611588,-0.09681639820337296
1700516972042927600,3.500927734375,0.009896990843117237,-0.013102510944008827,0.1347808837890625
1700516972052937700,3.510937744140625,0.02243294194340706,0.03982129693031311,0.07586116343736649
1700516972062947800,3.52094775390625,-0.02106979489326477,-0.04341393709182739,-0.1836433857679367
1700516972072957000,3.53095703125,-0.03682592511177063,0.04628252610564232,-0.06647930294275284
1700516972082966800,3.540966796875,0.02574131451547146,-0.06748637557029724,0.2087826281785965
1700516972092977000,3.550976806640625,0.009997036308050156,0.05982750281691551,-0.0178670734167099
1700516972102986800,3.56098681640625,0.01315128430724144,-0.012428315356373787,0.12190946936607361
1700516972112996900,3.570996826171875,-0.013808093965053558,-0.03521418944001198,-0.12337042391300201
1700516972123006700,3.5810068359375,-0.022279608994722366,0.02934456244111061,-0.03467278555035591
1700516972133015800,3.591015869140625,0.009837180376052856,0.011445458978414536,0.12477397918701172
1700516972143026000,3.60102587890625,0.02044135518372059,0.011631614528596401,0.035761021077632904
1700516972153035800,3.611035888671875,-0.02846413478255272,-0.04576936364173889,-0.23325835168361664
1700516972163046000,3.6210458984375,-0.018935076892375946,0.026704035699367523,0.023049594834446907
1700516972173056000,3.631055908203125,0.021777864545583725,-0.0719788447022438,0.18049317598342896
1700516972183065900,3.64106591796875,-0.004287025425583124,0.1085515171289444,-0.028340987861156464
1700516972193074700,3.65107470703125,0.009009603410959244,-0.05850726366043091,0.11400891840457916
1700516972203084800,3.661084716796875,-0.01599641516804695,-0.016891907900571823,-0.17447906732559204
1700516972213094700,3.6710947265625,-0.009358419105410576,-0.025304695591330528,0.02736710011959076
1700516972223104800,3.681104736328125,0.017965879291296005,0.030978020280599594,0.1006477028131485
1700516972233114600,3.691114501953125,0.004679237958043814,-0.008732371032238007,-0.01126033067703247
1700516972243124700,3.701124755859375,-0.024107670411467552,-0.03318445011973381,-0.24192576110363007
1700516972253133800,3.7111337890625,-0.0019471703562885523,-0.0031638285145163536,0.09349498152732849
1700516972263143700,3.721143798828125,0.006417818833142519,-0.05370636284351349,0.12869425117969513
1700516972273153800,3.73115380859375,-0.00838788878172636,0.12348785996437073,-0.04043419659137726
1700516972283164000,3.741163818359375,0.008868861943483353,-0.08342483639717102,0.09757400304079056
1700516972293173800,3.751173828125,-0.01209347415715456,-0.004674762021750212,-0.1984226554632187
1700516972303184000,3.761183837890625,-0.00038541905814781785,-0.05166490748524666,0.06988975405693054
1700516972313193000,3.77119287109375,0.024083372205495834,0.03665337339043617,0.09916137158870697
1700516972323202800,3.781202880859375,-0.0010499435011297464,-0.012236140668392181,-0.0465601421892643
1700516972333213000,3.791212890625,-0.022729039192199707,0.0002297514583915472,-0.21480637788772583
1700516972343222800,3.801222900390625,0.01726977527141571,-0.01409352757036686,0.17106090486049652
1700516972353233000,3.81123291015625,0.001985615584999323,-0.003968467004597187,0.08793336153030396
1700516972363242800,3.82124267578125,-0.004041917156428099,0.13535188138484955,-0.010285088792443275
1700516972373252900,3.8312529296875,0.0016415611607953906,-0.08980505168437958,0.06114710122346878
1700516972383263000,3.841262939453125,-0.010188200511038303,0.020876185968518257,-0.16851165890693665
1700516972393271800,3.851271728515625,-0.0039785075932741165,-0.043471913784742355,0.07554707676172256
1700516972403281700,3.86128173828125,0.02439081482589245,0.05379312112927437,0.08279886096715927
1700516972413291800,3.871291748046875,-0.004783588461577892,-0.026992276310920715,-0.07472613453865051
1700516972423301600,3.881301513671875,-0.03169136866927147,0.03062627837061882,-0.2083667516708374
1700516972433311700,3.891311767578125,0.02296684868633747,-0.019180400297045708,0.19991110265254974
1700516972443321600,3.901321533203125,0.0030242991633713245,0.025376148521900177,0.05084572732448578
1700516972453331700,3.911331787109375,0.003487333655357361,0.0977276936173439,-0.0007125185802578926
1700516972463340800,3.9213408203125,0.0027347239665687084,-0.10066182911396027,0.02730899676680565
1700516972473350700,3.9313505859375,-0.016799049451947212,0.0337454155087471,-0.14890924096107483
1700516972483360800,3.94136083984375,-0.00011434592306613922,-0.046500951051712036,0.09809549152851105
1700516972493371000,3.951370849609375,0.022655606269836426,0.05060015618801117,0.0637315884232521
1700516972503380700,3.961380615234375,-0.013820645399391651,-0.04134361445903778,-0.10736559331417084
1700516972513390800,3.971390869140625,-0.036375898867845535,0.04800755903124809,-0.16989009082317352
1700516972523400700,3.981400634765625,0.030890753492712975,-0.029790032655000687,0.22636404633522034
1700516972533410800,3.991410888671875,0.010182862170040607,0.042404040694236755,0.018142584711313248
1700516972543420000,4.001419921875,0.010523746721446514,0.07248790562152863,0.03207171708345413
1700516972553429800,4.0114296875,0.0008025853894650936,-0.09554288536310196,0.003014292335137725
1700516972563439900,4.02143994140625,-0.020468348637223244,0.05039301887154579,-0.1451892852783203
1700516972573449700,4.03144970703125,0.002224637195467949,-0.03618941456079483,0.10871268808841705
1700516972583459800,4.0414599609375,0.018878182396292686,0.056455034762620926,0.059694547206163406
1700516972593470000,4.051469970703125,-0.01640445366501808,-0.046348582953214645,-0.14368316531181335
1700516972603479800,4.061479736328125,-0.0362364798784256,0.0523790568113327,-0.1353733092546463
1700516972613490000,4.071489990234375,0.03363639861345291,-0.04482460021972656,0.23863638937473297
1700516972623499800,4.081499755859375,0.016323717311024666,0.04869949072599411,-0.009854116477072239
1700516972633508900,4.0915087890625,0.01611309126019478,0.031998470425605774,0.05975041538476944
1700516972643519000,4.10151904296875,-0.005730156321078539,-0.06954919546842575,-0.03599821403622627
1700516972653528600,4.111528564453125,-0.01786467619240284,0.03515603020787239,-0.10686296969652176
1700516972663538700,4.12153857421875,0.005325066391378641,-0.02460530214011669,0.10557445883750916
1700516972673548800,4.131548828125,0.016733640804886818,0.05499959737062454,0.05762956291437149
1700516972683558700,4.14155859375,-0.01870104856789112,-0.055757276713848114,-0.16526104509830475
1700516972693568800,4.15156884765625,-0.036521825939416885,0.05645760893821716,-0.10391709953546524
1700516972703578600,4.16157861328125,0.03136907145380974,-0.05456478148698807,0.23834437131881714
1700516972713588700,4.171588623046875,0.017497997730970383,0.05961921811103821,-0.016223054379224777
1700516972723597800,4.181597900390625,0.016496116295456886,0.01726483926177025,0.08206542581319809
1700516972733607700,4.191607666015625,-0.007662137504667044,-0.05908039212226868,-0.06597402691841125
1700516972743618800,4.201618896484375,-0.02721000649034977,0.04408487677574158,-0.09432018548250198
1700516972753628700,4.211628662109375,0.006040686275810003,-0.015003256499767303,0.12346896529197693
1700516972763638800,4.221638671875,0.0225211251527071,0.04508058726787567,0.04631319269537926
1700516972773648600,4.231648681640625,-0.02288089692592621,-0.062299348413944244,-0.1979120373725891
1700516972783658800,4.24165869140625,-0.03191913291811943,0.04803701490163803,-0.06000183895230293
1700516972793668900,4.2516689453125,0.0347868837416172,-0.06941516697406769,0.23317822813987732
1700516972803678700,4.2616787109375,0.01338145975023508,0.07783660292625427,-0.0294086504727602
1700516972813688800,4.271688720703125,0.013516509905457497,-0.012181863188743591,0.10986007004976273
1700516972823698400,4.281698486328125,-0.013339871540665627,-0.03340858966112137,-0.1031307652592659
1700516972833708500,4.29170849609375,-0.023542042821645737,0.022817572578787804,-0.05249304696917534
1700516972843717600,4.301717529296875,0.010499813593924046,0.0006464902544394135,0.11723233759403229
1700516972853727500,4.3117275390625,0.015547197312116623,0.030742093920707703,0.033243577927351
1700516972863737600,4.321737548828125,-0.02779787965118885,-0.06687954068183899,-0.22234904766082764
1700516972873747700,4.331747802734375,-0.024339498952031136,0.03921094536781311,-0.012489020824432373
1700516972883757600,4.341757568359375,0.031147994101047516,-0.07588794827461243,0.21751408278942108
1700516972893767700,4.351767578125,0.006972021888941526,0.09705697745084763,-0.035636596381664276
1700516972903777500,4.361777587890625,0.014681072905659676,-0.02687935344874859,0.12480980157852173
1700516972913787600,4.37178759765625,-0.016673222184181213,-0.03161034733057022,-0.14780326187610626
1700516972923797500,4.381797607421875,-0.02117183431982994,0.004529283381998539,-0.03061937727034092
1700516972933807600,4.3918076171875,0.014149487018585205,0.012319437228143215,0.12501129508018494
1700516972943817700,4.401817626953125,0.015666689723730087,0.006670339964330196,0.004690751899033785
1700516972953827600,4.41182763671875,-0.033409979194402695,-0.059454578906297684,-0.24736806750297546
1700516972963837700,4.421837646484375,-0.01328873261809349,0.022010982036590576,0.04547683894634247
1700516972973847600,4.43184765625,0.0221838541328907,-0.06976903229951859,0.1875690072774887
1700516972983856600,4.441856689453125,-0.0011688723461702466,0.13244372606277466,-0.03253113478422165
1700516972993866800,4.45186669921875,0.01329287700355053,-0.05777568742632866,0.0957413911819458
1700516973003876600,4.461876708984375,-0.019457612186670303,-0.018592864274978638,-0.15490467846393585
1700516973013886700,4.47188671875,-0.013542575761675835,-0.02928580716252327,0.01842942275106907
1700516973023896600,4.481896484375,0.02217414416372776,0.023087386041879654,0.09781079739332199
1700516973033906700,4.49190673828125,0.01290288008749485,-0.004195899236947298,-0.010501295328140259
1700516973043916800,4.501916748046875,-0.022705180570483208,-0.03794188052415848,-0.2427353411912918
1700516973053926700,4.5119267578125,-0.00441131042316556,0.0067570265382528305,0.08712787181138992
1700516973063936800,4.521936767578125,0.015593823976814747,-0.056110087782144547,0.15919886529445648
1700516973073946600,4.531946533203125,-0.007748989854007959,0.1261589080095291,-0.04712343588471413
1700516973083956700,4.541956787109375,0.01362447626888752,-0.05507291853427887,0.08617017418146133
1700516973093966800,4.551966796875,-0.01185663789510727,-0.021115917712450027,-0.16243934631347656
1700516973103976700,4.561976806640625,-0.0072115520015358925,-0.032648202031850815,0.02813432738184929
1700516973113986800,4.57198681640625,0.016266005113720894,0.02805832028388977,0.09097267687320709
1700516973123996700,4.58199658203125,0.00893112737685442,-0.008387837558984756,-0.017920514568686485
1700516973134006800,4.5920068359375,-0.025877350941300392,-0.02589620277285576,-0.24314334988594055
1700516973144016600,4.6020166015625,0.0016932905418798327,-0.00016447273083031178,0.11221209168434143
1700516973154026800,4.61202685546875,0.011212888173758984,-0.049039773643016815,0.14593273401260376
1700516973164036900,4.622036865234375,-0.007534168194979429,0.13700225949287415,-0.03633880242705345
1700516973174046700,4.632046630859375,0.010153583250939846,-0.07890157401561737,0.08719447255134583
1700516973184056600,4.642056640625,-0.01448864582926035,-0.014564665965735912,-0.1782774180173874
1700516973194065700,4.652065673828125,-0.008246778510510921,-0.03940176963806152,0.04237699881196022
1700516973204075500,4.662075439453125,0.016613829880952835,0.02398199774324894,0.0964205265045166
1700516973214085600,4.672085693359375,0.011531411670148373,-0.011589191854000092,-0.02602434530854225
1700516973224095500,4.682095458984375,-0.029292451217770576,-0.02121651917695999,-0.23982051014900208
1700516973234105600,4.692105712890625,0.005391346290707588,-0.002029782859608531,0.12253231555223465
1700516973244115700,4.70211572265625,0.011761893518269062,-0.038999252021312714,0.1392953246831894
1700516973254125600,4.71212548828125,0.0007448423421010375,0.1414751410484314,-0.03539640083909035
1700516973264135700,4.7221357421875,0.012446505948901176,-0.08710610866546631,0.09873078018426895
1700516973274145500,4.7321455078125,-0.02022373490035534,-0.010917283594608307,-0.20154163241386414
1700516973284155600,4.74215576171875,-0.004628264810889959,-0.03736407309770584,0.04451288282871246
1700516973294165500,4.75216552734375,0.02026480622589588,0.025709155946969986,0.10826565325260162
1700516973304175600,4.762175537109375,0.007763128262013197,-0.002211159560829401,-0.047095444053411484
1700516973314185700,4.772185791015625,-0.03445649892091751,-0.022817732766270638,-0.23695459961891174
1700516973324195600,4.782195556640625,0.007093342952430248,-0.001839214120991528,0.1433597058057785
1700516973334205700,4.792205810546875,0.011364965699613094,-0.027738964185118675,0.1261547952890396
1700516973344215600,4.802215576171875,-0.00608060322701931,0.15766924619674683,-0.029673421755433083
1700516973354225700,4.8122255859375,0.01248879637569189,-0.09646550565958023,0.09108135849237442
1700516973364235500,4.822235595703125,-0.01701956056058407,0.0006250896258279681,-0.20804649591445923
1700516973374245600,4.83224560546875,-0.007146656978875399,-0.04277084022760391,0.050833918154239655
1700516973384255700,4.842255859375,0.023465579375624657,0.03190978989005089,0.1102069616317749
1700516973394265600,4.852265625,0.00971919484436512,-0.013060919009149075,-0.06318534910678864
1700516973404275700,4.862275634765625,-0.0381828173995018,0.002530823228880763,-0.23957422375679016
1700516973414285600,4.87228564453125,0.017485953867435455,-0.014491545036435127,0.17257408797740936
1700516973424295700,4.882295654296875,0.0041251396760344505,-0.0008348551928065717,0.10383310914039612
1700516973434305800,4.892305908203125,-0.004547087475657463,0.1604260802268982,-0.014484128914773464
1700516973444315600,4.902315673828125,0.008251531980931759,-0.10096264630556107,0.06492441147565842
1700516973454325800,4.91232568359375,-0.017384998500347137,0.02194000594317913,-0.1852245032787323
1700516973464335600,4.922335693359375,-0.002663042861968279,-0.05127641558647156,0.07258173078298569
1700516973474345700,4.932345703125,0.0236420389264822,0.04381003975868225,0.0988030955195427
1700516973484355600,4.94235546875,-0.0034399116411805153,-0.030300406739115715,-0.08055148273706436
1700516973494365700,4.95236572265625,-0.04198380559682846,0.02754134126007557,-0.2189507782459259
1700516973504375800,4.962375732421875,0.02451106160879135,-0.03274570032954216,0.2031991332769394
1700516973514385700,4.9723857421875,0.0019144907128065825,0.02341391332447529,0.06815818697214127
1700516973524395800,4.982395751953125,0.008028576150536537,0.13628214597702026,0.011752435937523842
1700516973534405600,4.992405517578125,0.004450619220733643,-0.14647498726844788,0.03639733046293259
1700516973544415700,5.002415771484375,-0.030144643038511276,0.05502457171678543,-0.20720387995243073
1700516973554425600,5.012425537109375,-0.000014959950931370258,-0.05945359915494919,0.11630719155073166
1700516973564435700,5.022435791015625,0.0173919927328825,0.036915816366672516,0.09575584530830383
1700516973574445800,5.03244580078125,-0.0210438072681427,-0.05177174136042595,-0.12689785659313202
1700516973584455700,5.04245556640625,-0.03408264368772507,0.07458912581205368,-0.1999233365058899
1700516973594465800,5.0524658203125,0.02666853740811348,-0.08900239318609238,0.21941842138767242
1700516973604475600,5.0624755859375,0.00217065098695457,0.04990356042981148,0.01595238782465458
1700516973614485800,5.07248583984375,0.007455325219780207,0.062007877975702286,0.07330138236284256
1700516973624495900,5.082495849609375,-0.026336992159485817,-0.17600761353969574,-0.005713011138141155
1700516973634505700,5.092505615234375,-0.01660764589905739,0.1831728219985962,-0.22203199565410614
1700516973644515800,5.102515869140625,-0.0048481919802725315,-0.10602569580078125,0.12203776836395264
1700516973654525700,5.112525634765625,0.019936591386795044,0.04615076258778572,0.09388796985149384
1700516973664535600,5.12253564453125,-0.023264940828084946,-0.12960533797740936,-0.12294500321149826
1700516973674545400,5.13254541015625,-0.03297893702983856,0.2364322990179062,-0.19473285973072052
1700516973684555500,5.142555419921875,0.030720414593815804,-0.2189517319202423,0.24698835611343384
1700516973694565600,5.152565673828125,0.007113775238394737,0.16680309176445007,-0.004055670462548733
1700516973704575500,5.162575439453125,0.02807098813354969,0.017761152237653732,0.14045783877372742
1700516973714585600,5.172585693359375,-0.04148649796843529,-0.15903741121292114,-0.07571946829557419
1700516973724595500,5.182595458984375,-0.009276364929974079,0.2938840091228485,-0.20857417583465576
1700516973734605600,5.19260546875,0.004706130363047123,-0.19363698363304138,0.19843190908432007
1700516973744615200,5.202615234375,0.029542237520217896,0.08288674801588058,0.05331386998295784
1700516973754625000,5.212625,-0.052744943648576736,-0.13796648383140564,-0.18734210729599
1700516973764636200,5.22263623046875,-0.024266162887215614,0.2253616452217102,-0.10729574412107468
1700516973774646000,5.23264599609375,0.02441244199872017,-0.24622920155525208,0.2443375140428543
1700516973784656100,5.24265625,-0.004413081798702478,0.2743048071861267,-0.012878047302365303
1700516973794666000,5.252666015625,0.026681706309318542,-0.18159759044647217,0.1907079964876175
1700516973804676000,5.262676025390625,-0.03482959046959877,0.014779650606215,-0.22023853659629822
1700516973814686000,5.27268603515625,-0.008634515106678009,0.13519684970378876,-0.0872957855463028
1700516973824696000,5.282696044921875,0.015649519860744476,-0.1141330748796463,0.21080034971237183
1700516973834706200,5.2927060546875,0.008531729690730572,0.029689624905586243,0.017321554943919182
1700516973844716000,5.302716064453125,-0.033115848898887634,0.01264299638569355,-0.23799648880958557
1700516973854726100,5.31272607421875,-0.004419742152094841,0.07825962454080582,0.02692614682018757
1700516973864736000,5.322736083984375,-0.0032093352638185024,-0.13883700966835022,0.16505339741706848
1700516973874746000,5.33274609375,0.014198479242622852,0.27274104952812195,0.007569528184831142
1700516973884756000,5.342755859375,-0.011472796089947224,-0.27787309885025024,0.09538726508617401
1700516973894766000,5.35276611328125,-0.015263965353369713,0.1624060422182083,-0.2714284062385559
1700516973904776200,5.362776123046875,-0.016304463148117065,-0.08007636666297913,0.03519037738442421
1700516973914786000,5.3727861328125,0.03707122802734375,0.009994179010391235,0.13748610019683838
1700516973924796200,5.382796142578125,-0.02868940681219101,-0.0782022625207901,-0.06222114711999893
1700516973934806000,5.392805908203125,-0.00043132982682436705,0.13319939374923706,-0.24436524510383606
1700516973944816000,5.402816162109375,0.003631322644650936,-0.06663781404495239,0.1350976675748825
1700516973954826200,5.412826171875,0.0005032289773225784,-0.0002125900937244296,0.08866861462593079
1700516973964836000,5.422836181640625,0.020414885133504868,0.13387010991573334,0.05482569336891174
1700516973974847000,5.432846923828125,-0.029372965916991234,-0.24189965426921844,0.00559825636446476
1700516973984857000,5.442857177734375,-0.008367016911506653,0.24884262681007385,-0.23009122908115387
1700516973994867200,5.4528671875,-0.011638998053967953,-0.1705540418624878,0.12504588067531586
1700516974004877000,5.462876953125,0.03223205357789993,0.05698724091053009,0.08266619592905045
1700516974014887200,5.47288720703125,-0.02227851003408432,-0.10610507428646088,-0.12077465653419495
1700516974024897000,5.48289697265625,-0.01957433670759201,0.16440337896347046,-0.17144609987735748
1700516974034907100,5.4929072265625,0.032300062477588654,-0.15587560832500458,0.20350375771522522
1700516974044917000,5.5029169921875,0.011742858216166496,0.13868172466754913,0.0092109814286232
1700516974054927000,5.512927001953125,0.03591923788189888,0.0358954519033432,0.09374389797449112
1700516974064937200,5.522937255859375,-0.023614931851625443,-0.11258376389741898,-0.041671980172395706
1700516974074947000,5.532947021484375,-0.02166694588959217,0.1753789484500885,-0.14260903000831604
1700516974084957200,5.542957275390625,0.000006923219189047813,-0.1369544416666031,0.15267588198184967
1700516974094967000,5.552967041015625,0.027521999552845955,0.05265919864177704,0.03129219263792038
1700516974104977200,5.56297705078125,-0.03851587325334549,-0.10548409074544907,-0.16380059719085693
1700516974114988000,5.572988037109375,-0.015799641609191895,0.15651582181453705,-0.10000058263540268
1700516974124998100,5.582998046875,0.031246431171894073,-0.17830131947994232,0.22707074880599976
1700516974135008000,5.593008056640625,0.0031515564769506454,0.16798798739910126,-0.033265370875597
1700516974145018000,5.60301806640625,0.03175470605492592,-0.03669857606291771,0.09907934814691544
1700516974155028200,5.6130283203125,-0.024265971034765244,-0.030351348221302032,-0.10451439768075943
1700516974165038000,5.6230380859375,-0.0006730269524268806,0.1474340856075287,-0.0848432257771492
1700516974175048200,5.633048095703125,0.013359582051634789,-0.07092095166444778,0.16652894020080566
1700516974185058000,5.64305810546875,0.04481550678610802,0.035216666758060455,0.024840788915753365
1700516974195068200,5.653068115234375,-0.037265267223119736,-0.045725103467702866,-0.19429267942905426
1700516974205078000,5.663078125,-0.008020562119781971,0.06308340281248093,-0.019071588292717934
1700516974215088000,5.673088134765625,0.018344352021813393,-0.16087175905704498,0.193404421210289
1700516974225098200,5.68309814453125,-0.0011499866377562284,0.037934012711048126,-0.14198103547096252
1700516974235109000,5.693109130859375,-0.04483819380402565,0.1400441974401474,0.4100542962551117
1700516974245119000,5.703118896484375,-0.00004755496047437191,-0.3842962682247162,-0.29342103004455566
1700516974255129000,5.713129150390625,-0.16861343383789062,0.8051725029945374,-0.48684802651405334
1700516974265139200,5.72313916015625,0.07736729085445404,-0.6364418268203735,0.6673134565353394
1700516974275149000,5.733149169921875,0.07303740829229355,0.10864760726690292,-0.12664678692817688
1700516974285159200,5.7431591796875,-0.13807563483715057,0.18715493381023407,-0.47471049427986145
1700516974295169000,5.7531689453125,-0.0031479080207645893,-0.16660259664058685,0.23954211175441742
1700516974305179100,5.76317919921875,-0.038001760840415955,0.12346144020557404,0.1158185750246048
1700516974315189200,5.773189208984375,0.06688535213470459,-0.1753668636083603,0.020475678145885468
1700516974325199000,5.78319921875,-0.08756067603826523,0.0292067751288414,-0.18321378529071808
1700516974335209200,5.793209228515625,-0.019294917583465576,0.02649798057973385,0.003859917400404811
1700516974345220000,5.80322021484375,0.06827408075332642,-0.05004526302218437,0.08789010345935822
1700516974355230200,5.813230224609375,-0.05091654509305954,-0.16590648889541626,-0.05304327979683876
1700516974365240000,5.823239990234375,-0.021280890330672264,0.13306982815265656,-0.19333355128765106
1700516974375250200,5.833250244140625,0.016089649870991707,-0.16692566871643066,-0.02344197779893875
1700516974385260000,5.843260009765625,-0.014124548994004726,0.5675167441368103,0.3514687120914459
1700516974395270100,5.853270263671875,0.09540104120969772,-0.8150659799575806,0.016643889248371124
1700516974405280000,5.863280029296875,-0.2366189807653427,1.2290095090866089,-0.5078244209289551
1700516974415290000,5.8732900390625,0.21362759172916412,-0.8198721408843994,0.6703409552574158
1700516974425300200,5.88330029296875,0.05042295902967453,0.12629838287830353,-0.0678873360157013
1700516974435311000,5.89331103515625,-0.10924798250198364,0.1978246420621872,-0.2079101800918579
1700516974445321000,5.903321044921875,0.07000938802957535,0.1300213485956192,0.18389193713665009
1700516974455331000,5.9133310546875,0.13220356404781342,-0.6567476391792297,0.4070475697517395
1700516974465341200,5.923341064453125,-0.12870338559150696,0.30193230509757996,-0.6218103766441345
1700516974475351000,5.93335107421875,-0.038261737674474716,0.3680100440979004,0.31550246477127075
1700516974485361200,5.943361083984375,0.0833645612001419,-0.8059715032577515,0.3399047255516052
1700516974495371000,5.95337109375,-0.13842923939228058,0.6717800498008728,-0.40276870131492615
1700516974505381000,5.963381103515625,0.027533359825611115,0.11338946223258972,0.22741912305355072
1700516974515392000,5.97339208984375,0.169978067278862,-0.895521879196167,0.46093249320983887
1700516974525402000,5.983402099609375,-0.2111852616071701,0.7214560508728027,-0.6011343002319336
1700516974535412000,5.993411865234375,0.15859583020210266,-0.02635771594941616,0.3371756076812744
1700516974545422000,6.003422119140625,-0.02465389482676983,-0.7422513961791992,0.2860245406627655
1700516974555432200,6.01343212890625,-0.17083711922168732,0.579417884349823,-0.3866283595561981
1700516974565442000,6.023442138671875,0.16620641946792603,-0.12512296438217163,0.2235221117734909
1700516974575452200,6.0334521484375,-0.04457986354827881,-0.6200015544891357,0.05457019805908203
1700516974585462000,6.0434619140625,-0.1877298355102539,1.2599984407424927,-0.2562111020088196
1700516974595473200,6.05347314453125,0.2101878672838211,-0.9302915930747986,0.29668694734573364
1700516974605483000,6.06348291015625,-0.03712179511785507,0.08315731585025787,0.048734404146671295
1700516974615493000,6.0734931640625,-0.284237265586853,1.0433204174041748,0.4086533784866333
1700516974625503000,6.0835029296875,0.1540551483631134,-1.3927861452102661,0.25287339091300964
1700516974635513000,6.09351318359375,-0.1132517084479332,1.2219856977462769,-0.44874587655067444
1700516974645523000,6.10352294921875,0.09490601718425751,-0.3891132175922394,-0.3306005895137787
1700516974655533000,6.113532958984375,0.1433379054069519,-0.7013905048370361,-0.18471024930477142
1700516974665543200,6.123543212890625,-0.21431823074817657,1.2106742858886719,0.0628737136721611
1700516974675554000,6.133553955078125,0.04130784794688225,-0.8104546070098877,0.03826545551419258
1700516974685564200,6.143564208984375,0.07816813141107559,-0.17870141565799713,-0.24204210937023163
1700516974695574000,6.153573974609375,-0.07752502709627151,0.6859574317932129,0.030031204223632812
1700516974705584000,6.163584228515625,0.08549904823303223,-1.0533411502838135,-0.09145714342594147
1700516974715594000,6.173593994140625,-0.06633814424276352,1.0717142820358276,0.5868977904319763
1700516974725604000,6.18360400390625,0.012569984421133995,-0.20195980370044708,0.6201857328414917
1700516974735615000,6.193614990234375,-0.05147586017847061,0.08210617303848267,0.34167006611824036
1700516974745628700,6.203628662109375,-0.05454195663332939,0.2824310064315796,0.2876630425453186
1700516974755638500,6.213638427734375,-0.02346506528556347,-0.7187286615371704,-0.6931017637252808
1700516974765648600,6.223648681640625,-0.08732207864522934,0.7258210182189941,-0.15206247568130493
1700516974775658500,6.233658447265625,-0.007654069922864437,-0.7504974007606506,-0.19697965681552887
1700516974785668600,6.243668701171875,-0.06185179203748703,0.39804700016975403,-0.13235725462436676
1700516974795678700,6.2536787109375,-0.006543607451021671,0.4541756808757782,0.2664399743080139
1700516974805689600,6.263689697265625,-0.011035561561584473,-1.14533531665802,-0.22666454315185547
1700516974815699500,6.273699462890625,-0.11956900358200073,0.7776365876197815,0.1835697889328003
1700516974825709600,6.28370947265625,0.0036027259193360806,-0.8998174667358398,-0.33245548605918884
1700516974835719700,6.2937197265625,0.03602749481797218,1.0018327236175537,0.2745411992073059
1700516974845729500,6.3037294921875,0.06469909101724625,-0.36158910393714905,0.4545799493789673
1700516974855739600,6.31373974609375,-0.06874564290046692,0.3615935444831848,0.4981348514556885
1700516974865750500,6.32375048828125,-0.06331119686365128,0.13119494915008545,0.3854368031024933
1700516974875760600,6.3337607421875,-0.06580152362585068,-0.3608597218990326,-0.4037787914276123
1700516974885770500,6.3437705078125,-0.046009715646505356,0.4995173215866089,0.2394063025712967
1700516974895780600,6.353780517578125,-0.009857414290308952,-0.9145410656929016,-0.05498906597495079
1700516974905790500,6.36379052734375,-0.10495543479919434,0.5024480819702148,-0.02496352419257164
1700516974915800600,6.373800537109375,0.03065165877342224,-0.4234156608581543,-0.2628350853919983
1700516974925811500,6.3838115234375,-0.13038089871406555,-0.2819826304912567,-0.8865610361099243
1700516974935821600,6.393821533203125,-0.1414846032857895,0.3159346580505371,-0.43729907274246216
1700516974945831400,6.40383154296875,-0.1528586894273758,-0.30069366097450256,0.11528395116329193
1700516974955841500,6.413841552734375,0.06323052942752838,0.17714084684848785,0.9608907699584961
1700516974965851600,6.4238515625,-0.013552399352192879,-0.24149370193481445,0.6290398836135864
1700516974975861500,6.433861572265625,-0.03543971851468086,1.0331543684005737,0.7090834975242615
1700516974985872400,6.443872314453125,0.11740389466285706,-0.764015793800354,0.0789143443107605
1700516974995882500,6.453882568359375,-0.13975107669830322,0.631392240524292,-0.4241810142993927
1700516975005892600,6.463892578125,0.04770616069436073,-0.46612173318862915,-0.3283863067626953
1700516975015902500,6.47390234375,-0.037890348583459854,0.07489101588726044,-0.348932147026062
1700516975025912600,6.48391259765625,0.0077580977231264114,0.38808807730674744,0.4824870228767395
1700516975035922400,6.49392236328125,-0.028816983103752136,-0.9931948781013489,0.1295642852783203
1700516975045933600,6.50393359375,-0.13416896760463715,0.7335090637207031,0.008030673488974571
1700516975055943400,6.513943359375,0.036354780197143555,-0.7289749979972839,-0.4349648952484131
1700516975065953500,6.52395361328125,-0.0402744859457016,0.6675650477409363,-0.3463370203971863
1700516975075963400,6.53396337890625,0.06063949316740036,-0.16322633624076843,0.20333515107631683
1700516975085973500,6.543973388671875,-0.10165061801671982,-0.009126507677137852,0.28081077337265015
1700516975095984400,6.553984375,0.04432930052280426,0.30625468492507935,0.6492628455162048
1700516975105994500,6.563994384765625,-0.07395713031291962,-0.4203890562057495,-0.07346975803375244
1700516975116004400,6.57400439453125,0.04839243367314339,0.4808085560798645,0.23781971633434296
1700516975126014500,6.584014404296875,-0.034719496965408325,-0.8614611029624939,-0.26150351762771606
1700516975136024600,6.594024658203125,-0.08452755957841873,0.7722240686416626,-0.15942952036857605
1700516975146035500,6.604035400390625,0.05752759054303169,-0.8602166771888733,-0.17930282652378082
1700516975156045300,6.61404541015625,-0.11375676095485687,0.17212559282779694,-0.3164127767086029
1700516975166055400,6.624055419921875,-0.06983484327793121,0.11758404970169067,0.08955204486846924
1700516975176065500,6.6340654296875,-0.08519750088453293,-0.43893125653266907,-0.0498247891664505
1700516975186075400,6.644075439453125,0.012816942296922207,0.25610530376434326,0.2627246081829071
1700516975196086500,6.65408642578125,-0.035404764115810394,-0.4719652533531189,-0.35711348056793213
1700516975206096400,6.664096435546875,0.06373593211174011,0.8410088419914246,0.4830682873725891
1700516975216106500,6.6741064453125,-0.011955933645367622,-0.9522790312767029,0.46172547340393066
1700516975226116400,6.684116455078125,0.11599430441856384,0.7543256878852844,0.3477107584476471
1700516975236126500,6.69412646484375,0.03758754953742027,-0.42236825823783875,-0.3180357813835144
1700516975246137600,6.7041376953125,0.026294149458408356,0.8208650946617126,0.26301109790802
1700516975256147700,6.714147705078125,0.07090745866298676,-0.5022729635238647,0.6273931264877319
1700516975266157600,6.724157470703125,0.023067498579621315,0.9343841671943665,0.034828055649995804
1700516975276167700,6.734167724609375,0.08501633256673813,-0.5861051082611084,-0.09226345270872116
1700516975286177300,6.74417724609375,-0.13388511538505554,0.3470897078514099,-0.2093581110239029
1700516975296187400,6.7541875,-0.04271457716822624,-0.23000332713127136,0.3030501902103424
1700516975306198500,6.764198486328125,-0.09134843200445175,0.034984927624464035,-0.1861272007226944
1700516975316208600,6.774208740234375,0.06812064349651337,-0.45609065890312195,-0.17609059810638428
1700516975326218500,6.784218505859375,-0.1927117556333542,-0.2941094934940338,-0.6836856007575989
1700516975336228600,6.794228515625,-0.024725139141082764,0.041877154260873795,-0.02029534801840782
1700516975346239500,6.804239501953125,-0.11937015503644943,-0.6318703889846802,-0.16640914976596832
1700516975356249600,6.81424951171875,-0.05734749510884285,0.3132852017879486,-0.03793581202626228
1700516975366259500,6.824259521484375,-0.021110665053129196,-0.8734497427940369,-0.7423334121704102
1700516975376269600,6.83426953125,-0.06224511191248894,0.5396701693534851,-0.49674156308174133
1700516975386279700,6.84427978515625,-0.06596767902374268,-0.32484063506126404,-0.2080538421869278
1700516975396290600,6.85429052734375,-0.07128525525331497,0.04741373285651207,-0.08191443234682083
1700516975406300700,6.86430078125,-0.06951584666967392,0.22325798869132996,0.18840733170509338
1700516975416310500,6.874310546875,-0.05584700405597687,0.2856914699077606,0.37245550751686096
1700516975426320600,6.884320556640625,-0.023024342954158783,0.1207517683506012,0.492519348859787
1700516975436331500,6.89433154296875,-0.04416393116116524,0.8386892080307007,0.7912957072257996
1700516975446341600,6.904341552734375,0.018127935007214546,-0.3631432056427002,0.012653437443077564
1700516975456351500,6.9143515625,0.012438667006790638,0.7003061771392822,0.6436911225318909
1700516975466361600,6.924361572265625,0.05504471808671951,-0.2739039957523346,0.25943395495414734
1700516975476371500,6.934371337890625,0.17493033409118652,0.07176198810338974,0.13706852495670319
1700516975486382600,6.944382568359375,-0.07230369001626968,-0.007094215601682663,-0.3684500455856323
1700516975496392400,6.954392333984375,0.21287290751934052,-0.05780629813671112,0.14350226521492004
1700516975506402600,6.964402587890625,-0.08210760354995728,-0.12119218707084656,-0.22571784257888794
1700516975516412400,6.974412353515625,0.1873723715543747,-0.22029586136341095,-0.22422410547733307
1700516975526423600,6.984423583984375,-0.10827020555734634,-0.43504226207733154,-0.7011240720748901
1700516975536433400,6.994433349609375,0.043984003365039825,0.1608276665210724,-0.053355924785137177
1700516975546443500,7.004443603515625,-0.13210394978523254,-0.42500439286231995,-0.2210322767496109
1700516975556453400,7.014453369140625,-0.11327600479125977,0.00005307607352733612,0.02061629667878151
1700516975566464500,7.024464599609375,-0.06028495728969574,-0.24840147793293,-0.43892306089401245
1700516975576474400,7.034474365234375,0.0753805860877037,0.3372134566307068,0.3224394917488098
1700516975586484500,7.044484375,-0.11826691031455994,0.07873718440532684,0.5189799666404724
1700516975596494300,7.054494384765625,0.029400575906038284,-0.36425307393074036,0.09731118381023407
1700516975606504400,7.06450439453125,-0.05878174677491188,0.7618379592895508,-0.05781261995434761
1700516975616515300,7.074515380859375,0.09106270968914032,-0.47316521406173706,0.2841017544269562
1700516975626525400,7.084525390625,-0.13473500311374664,0.3111056089401245,0.2740462124347687
1700516975636535300,7.094535400390625,-0.0381762869656086,-0.480590283870697,-0.7782716155052185
1700516975646545400,7.10454541015625,-0.02085881680250168,0.2447890192270279,-0.327539324760437
1700516975656556500,7.114556640625,-0.1044677197933197,-0.6337056756019592,-0.19075797498226166
1700516975666566700,7.124566650390625,-0.028118086978793144,0.3616592586040497,0.18651607632637024
1700516975676576500,7.134576416015625,-0.03928159549832344,-0.5152411460876465,-0.4457795023918152
1700516975686586600,7.144586669921875,-0.012455841526389122,0.5032035708427429,0.16630174219608307
1700516975696597500,7.154597412109375,-0.037558022886514664,-0.21012838184833527,0.14172884821891785
1700516975706607600,7.164607666015625,0.053598251193761826,-0.4194302260875702,-0.1454073190689087
1700516975716617500,7.174617431640625,0.03856589272618294,0.8382800221443176,-0.09606563299894333
1700516975726627600,7.184627685546875,0.10650153458118439,-0.3729378581047058,0.702445924282074
1700516975736638500,7.194638427734375,0.13424892723560333,0.3865395784378052,0.6554279923439026
1700516975746645800,7.204645751953125,0.07130270451307297,0.29128122329711914,-0.20025281608104706
1700516975756655600,7.214655517578125,0.10584709793329239,0.174098938703537,0.38852760195732117
1700516975766665700,7.224665771484375,-0.0193137489259243,0.03713948652148247,0.22459301352500916
1700516975776676600,7.234676513671875,0.19727826118469238,-0.2945984899997711,-0.02160879410803318
1700516975786686700,7.244686767578125,-0.11725623905658722,0.22545482218265533,-0.3138774037361145
1700516975796696600,7.254696533203125,0.006745964754372835,-0.34065526723861694,-0.040309976786375046
1700516975806706700,7.264706787109375,-0.13503088057041168,0.19106480479240417,0.15266187489032745
1700516975816717600,7.274717529296875,-0.05698766931891441,-0.3151935040950775,-0.6098924875259399
1700516975826727700,7.284727783203125,0.022535916417837143,-0.029473070055246353,-0.358320415019989
1700516975836737500,7.294737548828125,-0.05317234992980957,-0.44201985001564026,-0.37863755226135254
1700516975846747600,7.30474755859375,0.0009928819490596652,0.10357049852609634,-0.09117726236581802
1700516975856758500,7.314758544921875,0.04410526901483536,0.03481229022145271,-0.24840494990348816
1700516975866768600,7.3247685546875,0.13361439108848572,0.11880332976579666,0.19830915331840515
1700516975876778500,7.334778564453125,-0.004857996478676796,0.33271971344947815,0.5250208377838135
1700516975886788600,7.34478857421875,0.12384059280157089,-0.10477879643440247,-0.18080870807170868
1700516975896799500,7.354799560546875,0.15480397641658783,0.6640737652778625,0.10119064897298813
1700516975906809600,7.3648095703125,0.062177903950214386,-0.29352596402168274,0.4236738979816437
1700516975916819500,7.3748193359375,0.1684110462665558,-0.22262461483478546,0.21363043785095215
1700516975926830600,7.38483056640625,-0.017922883853316307,0.38001197576522827,-0.54990154504776
1700516975936840400,7.39484033203125,0.07157189399003983,-0.27293986082077026,-0.18501630425453186
1700516975946850600,7.4048505859375,-0.12761470675468445,-0.017597302794456482,0.19470039010047913
1700516975956860400,7.4148603515625,0.019867049530148506,-0.3224612772464752,-0.25272804498672485
1700516975966871800,7.424871826171875,0.145847886800766,0.3782390356063843,-0.2150065004825592
1700516975976881700,7.434881591796875,-0.04527699202299118,-0.044743072241544724,0.23735366761684418
1700516975986891800,7.444891845703125,0.024078914895653725,-0.2671646773815155,0.5216484665870667
1700516975996901600,7.454901611328125,0.057863879948854446,0.36289361119270325,-0.13661907613277435
1700516976006912800,7.464912841796875,0.14644195139408112,0.11081768572330475,0.07716113328933716
1700516976016922600,7.474922607421875,-0.008390279486775398,0.09298231452703476,0.4864843785762787
1700516976026932700,7.4849326171875,0.06001274660229683,-0.3264373242855072,-0.4149591624736786
1700516976036943600,7.494943603515625,0.10993863642215729,1.0059363842010498,0.2825948894023895
1700516976046953700,7.50495361328125,0.05230169743299484,-0.2517073154449463,0.8226461410522461
1700516976056963600,7.514963623046875,0.13008712232112885,-0.15491890907287598,-0.20778930187225342
1700516976066973700,7.5249736328125,0.031142691150307655,0.574923574924469,-0.3369283974170685
1700516976076984600,7.534984619140625,-0.009865972213447094,-0.5717487335205078,0.3858112096786499
1700516976086994700,7.54499462890625,0.08054914325475693,-0.21203076839447021,0.15268582105636597
1700516976097004500,7.555004638671875,-0.03144476190209389,0.38432398438453674,-0.6347060799598694
1700516976107015700,7.565015625,0.055938348174095154,-0.27790430188179016,0.07163772732019424
1700516976117025500,7.575025634765625,-0.10281168669462204,-0.052171677350997925,0.16328918933868408
1700516976127035600,7.58503564453125,0.05632496997714043,-0.5651130080223083,-0.3566051125526428
1700516976137045500,7.59504541015625,0.013942903839051723,0.1360519677400589,-0.5398246049880981
1700516976147056600,7.605056640625,0.05259336158633232,-0.34169089794158936,-0.42095041275024414
1700516976157066500,7.61506640625,-0.018921956419944763,-0.21209096908569336,-0.1416473537683487
1700516976167076600,7.62507666015625,0.02887645736336708,0.15866047143936157,-0.10973575711250305
1700516976177087500,7.63508740234375,0.0595397911965847,0.1936265081167221,0.017319420352578163
1700516976187097600,7.64509765625,0.019294103607535362,0.11251408606767654,-0.007898317649960518
1700516976197107500,7.655107421875,0.03249000385403633,0.26737096905708313,0.1875341832637787
1700516976207117600,7.66511767578125,0.05878312513232231,0.5671645998954773,0.5747202038764954
1700516976217128700,7.675128662109375,-0.0011368065606802702,0.6898451447486877,1.0030900239944458
1700516976227138800,7.685138916015625,0.20311512053012848,-0.407995343208313,0.44120118021965027
1700516976237148400,7.6951484375,-0.015493077225983143,0.7807616591453552,-0.2847640812397003
1700516976247159800,7.705159912109375,0.027262108400464058,-0.47343355417251587,0.11473351716995239
1700516976257169700,7.715169677734375,0.048437684774398804,-0.5480502247810364,-0.0722556933760643
1700516976267179800,7.7251796875,-0.01662387140095234,0.28377801179885864,-0.8880754113197327
1700516976277190700,7.735190673828125,0.0721031203866005,-0.2132207155227661,-0.23042181134223938
1700516976287200800,7.74520068359375,-0.03919118270277977,-0.3383275270462036,-0.041311025619506836
1700516976297210600,7.755210693359375,0.04992203786969185,-0.2431821972131729,-0.4686233699321747
1700516976307220700,7.765220703125,0.1644960343837738,0.6273665428161621,-0.34450459480285645
1700516976317231600,7.775231689453125,0.1152590662240982,-0.04686810448765755,0.09566082805395126
1700516976327241700,7.78524169921875,0.20717914402484894,0.011212777346372604,0.5145928263664246
1700516976337251600,7.79525146484375,0.059636231511831284,0.8101686835289001,0.25735604763031006
1700516976347262700,7.8052626953125,0.07092270255088806,0.0392586924135685,0.6357139945030212
1700516976357272600,7.8152724609375,0.13231253623962402,0.20074006915092468,0.586517870426178
1700516976367282700,7.82528271484375,-0.011167398653924465,0.1099257543683052,-0.5356063842773438
1700516976377293600,7.83529345703125,-0.04255644604563713,0.027534911409020424,-0.07993850111961365
1700516976387303700,7.8453037109375,-0.16194862127304077,0.13930539786815643,0.5132609009742737
1700516976397313500,7.8553134765625,0.1756347119808197,-0.6742598414421082,-0.26460403203964233
1700516976407323600,7.86532373046875,-0.011730119585990906,0.2898997664451599,-0.6009184122085571
1700516976417334500,7.87533447265625,-0.04838697984814644,-0.5642054080963135,-0.1592075228691101
1700516976427344600,7.8853447265625,-0.02553332969546318,-0.4039262533187866,0.11904432624578476
1700516976437354500,7.8953544921875,0.0007068058475852013,0.005981879308819771,-0.6486561298370361
1700516976447365600,7.90536572265625,0.05658099055290222,0.1659182757139206,-0.5219615697860718
1700516976457375500,7.91537548828125,0.006882062181830406,-0.3858999013900757,-0.3233179450035095
1700516976467385600,7.925385498046875,-0.02282603271305561,0.026377687230706215,-0.11021659523248672
1700516976477396700,7.935396728515625,0.05162012577056885,0.37613096833229065,0.1550341695547104
1700516976487406800,7.94540673828125,0.037468086928129196,-0.052812669426202774,-0.00831187516450882
1700516976497416700,7.955416748046875,0.040396545082330704,-0.07684864103794098,-0.08076906949281693
1700516976507427600,7.965427490234375,0.01678469404578209,0.005950638093054295,-0.40011510252952576
1700516976517437700,7.975437744140625,-0.019777823239564896,-0.20364713668823242,-0.7559916973114014
1700516976527447800,7.98544775390625,-0.04030093923211098,-0.22593966126441956,-0.7622424364089966
1700516976537458700,7.995458740234375,0.05506239831447601,-0.06291496753692627,-0.3241383135318756
1700516976547468500,8.005468505859374,0.06781467795372009,0.2910367250442505,0.4291258752346039
1700516976557478700,8.015478759765625,0.06429028511047363,0.16546641290187836,0.6275869011878967
1700516976567489500,8.025489501953125,0.09152723103761673,0.4114173352718353,0.7234606742858887
1700516976577499600,8.035499755859375,0.13802696764469147,0.3958489000797272,0.5277454853057861
1700516976587509800,8.045509765625,0.24267561733722687,0.6202545762062073,0.5958861708641052
1700516976597520600,8.055520751953125,0.45161786675453186,-0.1635379046201706,0.5333238840103149
1700516976607530500,8.065530517578125,0.326934278011322,0.11924532055854797,-0.26998382806777954
1700516976617540600,8.07554052734375,0.027476033195853233,0.09055236726999283,-0.07134292274713516
1700516976627550700,8.08555078125,0.059501875191926956,-0.2950073182582855,0.4320048987865448
1700516976637561600,8.0955615234375,0.07752866297960281,-0.5394256114959717,-0.41580966114997864
1700516976647571500,8.105571533203126,0.16299349069595337,0.6593374609947205,-0.36848342418670654
1700516976657581600,8.11558154296875,-0.1411561667919159,-0.42885205149650574,0.19400383532047272
1700516976667592400,8.125592529296876,-0.10473158210515976,-0.6169673204421997,-0.007982557639479637
1700516976677602600,8.1356025390625,0.09743782877922058,0.6421078443527222,-0.39430058002471924
1700516976687612400,8.1456123046875,0.001155767822638154,-0.48907989263534546,-0.28825777769088745
1700516976697623800,8.155623779296874,-0.25859540700912476,-0.323525995016098,0.03729962557554245
1700516976707633700,8.165633544921874,-0.21070726215839386,-0.31126612424850464,-0.28841668367385864
1700516976717643800,8.175643798828125,-0.06237992271780968,-0.0006179640768095851,-0.47096461057662964
1700516976727654700,8.185654541015625,-0.08855214715003967,-0.20983776450157166,-0.4057922661304474
1700516976737664800,8.195664794921875,0.0013703498989343643,-0.3545788824558258,-0.12328118085861206
1700516976747674000,8.205674072265625,0.05001644790172577,0.10937146842479706,0.35955870151519775
1700516976757685000,8.21568505859375,0.026679260656237602,0.10715200752019882,0.28581124544143677
1700516976767694800,8.22569482421875,0.09743864834308624,-0.014254581183195114,0.23287959396839142
1700516976777705000,8.235705078125,0.06350546330213547,0.405244380235672,0.08600682020187378
1700516976787715800,8.2457158203125,-0.015175499953329563,0.410548597574234,0.26884400844573975
1700516976797726000,8.255725830078125,0.0003070890670642257,0.7457888126373291,0.90358567237854
1700516976807735800,8.26573583984375,0.37293365597724915,-0.42185476422309875,0.6201598644256592
1700516976817747000,8.275746826171876,0.1964520514011383,1.081542730331421,0.3520624339580536
1700516976827756800,8.2857568359375,0.24991102516651154,0.2393694370985031,0.8808370232582092
1700516976837767000,8.295766845703126,0.2329503744840622,-0.24334438145160675,-0.18022987246513367
1700516976847777800,8.30577783203125,0.15756186842918396,0.39591148495674133,-0.39302685856819153
1700516976857788000,8.315787841796874,-0.07138543576002121,-0.4051874279975891,0.09359108656644821
1700516976867797800,8.3257978515625,0.1557616889476776,-0.4616791903972626,-0.05449584871530533
1700516976877809200,8.33580908203125,0.022296717390418053,-0.08093123883008957,-0.5877551436424255
1700516976887818800,8.34581884765625,-0.0931747555732727,-0.3773477077484131,-0.34263166785240173
1700516976897828900,8.355828857421875,-0.20863980054855347,-0.42755767703056335,-0.12708806991577148
1700516976907840000,8.365840087890625,-0.04097117856144905,-0.7287649512290955,-0.7484623789787292
1700516976917850000,8.37585009765625,-0.004061052110046148,0.8577423095703125,0.055813275277614594
1700516976927860000,8.38585986328125,-0.20534676313400269,-0.2215343415737152,0.9368287920951843
1700516976937871000,8.39587109375,0.02551148645579815,-0.3227243423461914,0.5781867504119873
1700516976947881000,8.405880859375,-0.06996014714241028,0.6991541981697083,-0.4586262106895447
1700516976957891000,8.41589111328125,-0.04582255333662033,-0.41468799114227295,-0.08862479031085968
1700516976967902000,8.42590185546875,-0.041041914373636246,-0.10237561911344528,0.36488568782806396
1700516976977912000,8.435912109375,-0.0665755644440651,0.1334272027015686,-0.17188405990600586
1700516976987922000,8.445921875,-0.005990512203425169,0.04061417281627655,0.09333082288503647
1700516976997932800,8.455932861328124,-0.19456809759140015,-0.3073197305202484,-0.07531271129846573
1700516977007943000,8.46594287109375,-0.13014648854732513,-0.5093564391136169,-0.7574984431266785
1700516977017953000,8.475953125,0.0895448625087738,0.4745151400566101,-0.630068838596344
1700516977027964000,8.4859638671875,0.004176164045929909,-0.2479884922504425,-0.014654694125056267
1700516977037973800,8.495973876953125,-0.16788192093372345,-0.17538608610630035,0.36468860507011414
1700516977047983900,8.50598388671875,-0.03324262797832489,-0.16361650824546814,-0.011300208047032356
1700516977057994800,8.515994873046875,0.06581777334213257,0.17475160956382751,-0.17799073457717896
1700516977068004900,8.5260048828125,0.05570894852280617,-0.07900875061750412,-0.2216913402080536
1700516977078015000,8.536014892578125,0.11472591757774353,-0.3422051966190338,-0.13073459267616272
1700516977088026000,8.546026123046875,0.05967118963599205,-0.11090965569019318,-0.21967697143554688
1700516977098035700,8.55603564453125,-0.0005222042673267424,0.5137401223182678,0.05322840437293053
1700516977108045800,8.5660458984375,0.08108983188867569,-0.01533251628279686,0.5055990815162659
1700516977118057000,8.576056884765626,0.19016939401626587,0.16089588403701782,0.36190685629844666
1700516977128067000,8.586067138671876,0.00008947285823523998,0.9420114159584045,0.6986145973205566
1700516977138077000,8.596076904296876,0.17588569223880768,-0.0384637676179409,1.050377368927002
1700516977148088000,8.606088134765624,0.07528851926326752,0.2856519818305969,-0.2585294842720032
1700516977158098000,8.616097900390624,-0.1673256754875183,0.6190833449363708,0.10833343118429184
1700516977168108000,8.62610791015625,-0.008020175620913506,-0.15083758533000946,0.5581802129745483
1700516977178119000,8.636118896484374,0.019158033654093742,-0.0019706804305315018,-0.5864101052284241
1700516977188129000,8.64612890625,-0.11395421624183655,0.20399713516235352,-0.32172146439552307
1700516977198139000,8.656138916015625,-0.08015040308237076,-0.349386602640152,0.03569647669792175
1700516977208150000,8.66614990234375,0.008535792119801044,-0.20088687539100647,-0.3884044885635376
1700516977218159900,8.676159912109375,-0.07142975181341171,0.10327159613370895,-0.7802906036376953
1700516977228170000,8.686169921875,-0.07370036095380783,-0.02021758072078228,-0.09540223330259323
1700516977238180900,8.696180908203125,-0.03523524850606918,-0.003456415608525276,0.10275779664516449
1700516977248191000,8.70619091796875,0.012400446459650993,-0.32334041595458984,-0.40641167759895325
1700516977258200800,8.716200927734375,0.07030778378248215,-0.08384614437818527,-0.45058301091194153
1700516977268212000,8.7262119140625,-0.016472388058900833,-0.4173695147037506,-0.5941502451896667
1700516977278221800,8.736221923828126,-0.04534556716680527,0.0893317461013794,0.02869422361254692
1700516977288232000,8.74623193359375,0.06397587060928345,-0.3660072684288025,0.05076596885919571
1700516977298243000,8.7562431640625,0.09731513261795044,0.2455986887216568,0.2466297149658203
1700516977308253000,8.7662529296875,-0.08913704007863998,0.32559579610824585,0.24110844731330872
1700516977318262800,8.7762626953125,0.23989669978618622,0.04354039952158928,0.13298162817955017
1700516977328274000,8.78627392578125,0.18257375061511993,0.8029842376708984,0.7251192331314087
1700516977338284000,8.796283935546874,0.13630403578281403,0.3705058693885803,0.8796288967132568
1700516977348294100,8.806294189453125,0.3566494584083557,0.009363115765154362,0.05851694941520691
1700516977358305000,8.816304931640625,-0.04872060567140579,0.7564179301261902,-0.1168026328086853
1700516977368315000,8.82631494140625,0.04986961558461189,-0.29425185918807983,0.6341997385025024
1700516977378325000,8.836324951171875,0.24376945197582245,0.12240966409444809,0.2747479975223541
1700516977388335900,8.8463359375,-0.07068941742181778,0.027357716113328934,-0.40437033772468567
1700516977398346000,8.856345947265625,0.0289771631360054,-0.2310120314359665,-0.19561253488063812
1700516977408355800,8.86635595703125,-0.12070686370134354,-0.007053771987557411,-0.2433702051639557
1700516977418367000,8.876366943359375,-0.009253404103219509,-0.6410983204841614,-0.4292214810848236
1700516977428376800,8.886376953125,-0.04411604627966881,-0.26073768734931946,-0.47790008783340454
1700516977438387000,8.896386962890626,-0.18832522630691528,-0.2672203779220581,-0.5059396028518677
1700516977448397800,8.906397705078126,-0.19038279354572296,-0.005916616879403591,0.0811377614736557
1700516977458408000,8.916407958984376,-0.0032629836350679398,-0.582543134689331,-0.21823173761367798
1700516977468417800,8.926417724609376,0.05619475245475769,0.8109750747680664,0.2383997142314911
1700516977478429000,8.936428955078124,-0.1353222280740738,0.4418250322341919,1.0018430948257446
1700516977488438800,8.946438720703124,0.11686980724334717,-0.3003265857696533,0.34128645062446594
1700516977498449000,8.956448974609375,0.006140615325421095,0.9987007975578308,0.3554553985595703
1700516977508460000,8.9664599609375,0.0825648158788681,-0.5252249240875244,0.7141744494438171
1700516977518470100,8.97647021484375,0.11017058044672012,-0.007667419966310263,-0.2295631617307663
1700516977528479700,8.986479736328125,-0.0379784069955349,-0.10020294785499573,-0.18810786306858063
1700516977538491100,8.9964912109375,0.04395746439695358,-0.2622310221195221,0.38835057616233826
1700516977548501000,9.0065009765625,0.021946974098682404,0.201646089553833,0.31178018450737
1700516977558511000,9.016510986328125,0.12325600534677505,-0.11682398617267609,-0.49456721544265747
1700516977568522000,9.02652197265625,0.134794682264328,-0.009930028580129147,-0.004370629787445068
1700516977578532000,9.036531982421875,0.029191482812166214,0.3571721017360687,0.5689080357551575
1700516977588542000,9.0465419921875,0.2381737232208252,-0.37357479333877563,0.22017264366149902
1700516977598552800,9.056552734375,-0.0641346424818039,0.2521556317806244,-0.5481152534484863
1700516977608563000,9.06656298828125,-0.14680476486682892,-0.27728506922721863,-0.003133745864033699
1700516977618573000,9.076572998046874,0.009040136821568012,0.008853483945131302,0.13134683668613434
1700516977628584000,9.086583984375,-0.06426283717155457,0.15084470808506012,-0.33644431829452515
1700516977638593800,9.09659375,-0.11614751815795898,0.045426927506923676,0.26475808024406433
1700516977648604000,9.10660400390625,-0.13567326962947845,0.023046255111694336,0.1577639877796173
1700516977658614800,9.11661474609375,-0.13572710752487183,-0.27054473757743835,-0.21190659701824188
1700516977668625000,9.126625,-0.06733526289463043,-0.0909116119146347,-0.15533466637134552
1700516977678635000,9.136635009765625,-0.09869279712438583,-0.2514886260032654,-0.02210492081940174
1700516977688646000,9.14664599609375,-0.10593632608652115,-0.12941467761993408,0.02344551868736744
1700516977698655700,9.15665576171875,-0.06261520832777023,-0.4790531098842621,-0.837122917175293
1700516977708665900,9.166665771484375,-0.019710086286067963,-0.038706351071596146,-0.7271066308021545
1700516977718677000,9.176677001953125,-0.049781542271375656,-0.19439898431301117,-0.14449387788772583
1700516977728687000,9.18668701171875,-0.055911872535943985,-0.32521265745162964,0.05029984563589096
1700516977738696700,9.19669677734375,0.07828184962272644,0.19879987835884094,-0.46858876943588257
1700516977748708400,9.206708251953126,0.05261216685175896,0.46174097061157227,0.36260297894477844
1700516977758718200,9.21671826171875,0.013404930010437965,-0.11825721710920334,0.8243313431739807
1700516977768728300,9.226728271484374,-0.01882064901292324,0.516318142414093,0.16282768547534943
1700516977778739200,9.2367392578125,0.06041204184293747,0.3476460576057434,0.4221377372741699
1700516977788749300,9.246749267578124,-0.16928958892822266,0.29570773243904114,0.5618029236793518
1700516977798759200,9.25675927734375,-0.03154753893613815,-0.39309465885162354,-0.24783369898796082
1700516977808770300,9.266770263671875,-0.11653672903776169,0.07913946360349655,-0.4542345404624939
1700516977818780200,9.2767802734375,-0.14926296472549438,-0.1303991824388504,0.23735764622688293
1700516977828790300,9.286790283203125,0.005590800195932388,-0.273316890001297,0.28975722193717957
1700516977838801200,9.29680126953125,-0.11995626986026764,0.4516300857067108,-0.46817508339881897
1700516977848811300,9.306811279296875,-0.05897148698568344,-0.2348897010087967,0.27646419405937195
1700516977858821000,9.316821044921875,-0.06951763480901718,0.4842129051685333,0.17743948101997375
1700516977868832000,9.32683203125,0.016610857099294662,-0.10540641099214554,-0.2054772675037384
1700516977878842000,9.336842041015625,-0.04199310392141342,0.17979796230793,-0.1403626948595047
1700516977888852200,9.346852294921876,-0.11308938264846802,-0.037708789110183716,-0.14400963485240936
1700516977898863000,9.356863037109376,-0.036978498101234436,-0.36630621552467346,-0.2606803774833679
1700516977908873000,9.366873046875,-0.13837622106075287,-0.05468097701668739,-0.8463513255119324
1700516977918883000,9.376883056640626,-0.17555224895477295,0.026158958673477173,-0.285881370306015
1700516977928894000,9.38689404296875,-0.2529386579990387,-0.1915864199399948,-0.051309067755937576
1700516977938904000,9.396904052734374,-0.18284717202186584,-0.06074824556708336,-0.27486786246299744
1700516977948914200,9.4069140625,0.06689873337745667,-0.3482556641101837,-0.6138246059417725
1700516977958925300,9.41692529296875,-0.02244909107685089,0.23309540748596191,-0.429012656211853
1700516977968935200,9.42693505859375,-0.0745072290301323,-0.11453951150178909,-0.16695520281791687
1700516977978945300,9.4369453125,-0.02802342176437378,-0.2746637165546417,-0.0909297913312912
1700516977988956200,9.4469560546875,-0.011142976582050323,0.2593381404876709,-0.09780607372522354
1700516977998966300,9.45696630859375,-0.07337871938943863,0.22246553003787994,-0.31231769919395447
1700516978008976100,9.46697607421875,-0.09902416169643402,0.30199047923088074,-0.33189138770103455
1700516978018987300,9.4769873046875,-0.007228662259876728,-0.9741842746734619,-0.3992641866207123
1700516978028997000,9.4869970703125,-0.1389472782611847,0.6668403744697571,-0.40268635749816895
1700516978039007200,9.49700732421875,-0.07291973382234573,1.028509497642517,0.5416731834411621
1700516978049018000,9.50701806640625,0.14752556383609772,-0.5157164931297302,0.8920581340789795
1700516978059028200,9.5170283203125,0.16896477341651917,1.0231735706329346,1.0443116426467896
1700516978069038000,9.5270380859375,0.058441467583179474,0.490133672952652,1.1394983530044556
1700516978079049200,9.53704931640625,0.13942505419254303,-0.0019065274391323328,-0.037603531032800674
1700516978089059000,9.54705908203125,-0.028749573975801468,0.2275194674730301,0.19241422414779663
1700516978099069200,9.557069091796874,0.05397963896393776,0.18833406269550323,0.39212965965270996
1700516978109080000,9.567080078125,0.235798180103302,-0.12095852941274643,-0.25006580352783203
1700516978119090200,9.577090087890625,-0.16588224470615387,0.01655564084649086,-0.47729334235191345
1700516978129100000,9.58710009765625,-0.0034983947407454252,2.5332190990448,-1.7745771408081055
1700516978139111200,9.597111083984375,-0.06922934949398041,-2.871978282928467,0.1412850320339203
1700516978149121000,9.60712109375,-0.10176678746938705,0.5382538437843323,0.36709684133529663
1700516978159131100,9.617131103515625,-0.1427096277475357,0.1222013458609581,0.7673965692520142
1700516978169142300,9.627142333984375,-0.267857164144516,-0.2535805404186249,0.4522700905799866
1700516978179152100,9.637152099609375,-0.27022701501846313,-0.35943344235420227,-0.13749945163726807
1700516978189162200,9.647162353515625,-0.02505001425743103,-0.508998453617096,-0.7739936113357544
1700516978199173000,9.657173095703126,-0.17460699379444122,0.7558320164680481,0.0769956037402153
1700516978209183200,9.667183349609376,-0.21508252620697021,-0.47243839502334595,0.6928645968437195
1700516978219193300,9.677193359375,-0.01799076236784458,0.18911883234977722,0.34922629594802856
1700516978229204200,9.687204345703124,0.07302303612232208,0.5150010585784912,0.4414145350456238
1700516978239214000,9.697214111328124,-0.020763268694281578,0.07199238985776901,0.35248297452926636
1700516978249224200,9.70722412109375,0.1339496225118637,-0.21324867010116577,-0.2740640342235565
1700516978259235000,9.717235107421875,0.0474529042840004,0.5806777477264404,-0.3519955277442932
1700516978269245200,9.7272451171875,-0.026929453015327454,-0.09852983802556992,0.5322260856628418
1700516978279255000,9.737255126953125,0.129890576004982,0.3437214195728302,0.6825312972068787
1700516978289266200,9.74726611328125,0.00906909629702568,0.1805649846792221,0.16131927073001862
1700516978299276000,9.757276123046875,0.03766267001628876,0.004813622683286667,0.12656639516353607
1700516978309286100,9.7672861328125,-0.13145391643047333,0.4681229591369629,0.25778913497924805
1700516978319296000,9.7772958984375,0.05556115135550499,-0.5460473895072937,0.029713157564401627
1700516978329307100,9.78730712890625,-0.14198867976665497,0.2575218081474304,-0.09743440896272659
1700516978339317000,9.79731689453125,-0.060554347932338715,-0.34499552845954895,0.11085473001003265
1700516978349327000,9.8073271484375,-0.0653110221028328,-0.20662352442741394,0.05378052219748497
1700516978359338000,9.817337890625,-0.1710306704044342,0.028363030403852463,-0.527876079082489
1700516978369348000,9.82734814453125,-0.08567342907190323,-0.24233663082122803,-0.3110868036746979
1700516978379358000,9.83735791015625,-0.23525725305080414,-0.246690034866333,-0.5816872715950012
1700516978389369300,9.847369384765624,-0.24268853664398193,-0.4821784496307373,-0.7737427353858948
1700516978399379200,9.857379150390624,-0.03579377010464668,-0.010262337513267994,-0.9072027802467346
1700516978409389300,9.867389404296874,-0.10065265744924545,-0.0004776168498210609,-0.32310420274734497
1700516978419400200,9.877400146484375,-0.3520887494087219,-0.21701860427856445,0.1680130511522293
1700516978429410300,9.887410400390625,-0.14645621180534363,-0.3563653230667114,-0.14205878973007202
1700516978439420200,9.897420166015625,0.10153155028820038,0.7280305027961731,-0.49866771697998047
1700516978449431300,9.907431396484375,0.044518064707517624,0.7038220763206482,0.18157629668712616
1700516978459441200,9.917441162109375,0.01163195539265871,-0.07029231637716293,0.5111072063446045
1700516978469451300,9.927451171875,0.039118442684412,0.7186121344566345,0.3306189477443695
1700516978479462100,9.937462158203125,-0.04769418388605118,0.15833811461925507,0.7079461216926575
1700516978489472300,9.94747216796875,0.06605661660432816,0.011425353586673737,0.5791173577308655
1700516978499482000,9.957482177734375,-0.00649276003241539,0.3846673369407654,-0.16065609455108643
1700516978509493000,9.967492919921876,-0.020969435572624207,-0.19742856919765472,0.2746783196926117
1700516978519503000,9.977503173828126,-0.03234349936246872,0.47582778334617615,0.3798381984233856
1700516978529513200,9.98751318359375,0.06625764071941376,-0.37454643845558167,-0.06868710368871689
1700516978539524000,9.997524169921874,-0.05711904540657997,0.29615941643714905,-0.22315606474876404
1700516978549534200,10.0075341796875,-0.0527125783264637,-0.3249395489692688,0.031727876514196396
1700516978559544000,10.0175439453125,0.11823975294828415,-0.18845848739147186,-0.07289634644985199
1700516978569554200,10.02755419921875,-0.024572785943746567,0.3420751392841339,-0.12579630315303802
1700516978579565000,10.03756494140625,-0.02323862537741661,0.08023259043693542,0.4495270252227783
1700516978589575200,10.0475751953125,-0.07312335819005966,0.45783475041389465,0.34099361300468445
1700516978599585000,10.0575849609375,0.08568430691957474,-0.3478851914405823,-0.4433559775352478
1700516978609596200,10.06759619140625,-0.140587717294693,0.1440773606300354,-0.4738856554031372
1700516978619606300,10.077606201171875,-0.10582151263952255,-0.22605451941490173,-0.17314091324806213
1700516978629616000,10.0876162109375,-0.024587642401456833,-0.23667120933532715,0.0923629179596901
1700516978639627300,10.097627197265625,-0.11701466888189316,0.14467129111289978,-0.22472159564495087
1700516978649637000,10.10763720703125,-0.03548039495944977,0.03732965514063835,0.17225344479084015
1700516978659647200,10.117647216796875,-0.06797255575656891,0.21494093537330627,0.3916558623313904
1700516978669658000,10.127658203125,0.026386434212327003,-0.23664969205856323,-0.07014666497707367
1700516978679668200,10.137668212890626,0.1218850314617157,0.6656909584999084,0.19292189180850983
1700516978689678000,10.147677978515626,0.08572622388601303,-0.04193330556154251,0.7184746265411377
1700516978699689200,10.157689208984374,0.2948249280452728,0.273855060338974,0.6098228096961975
1700516978709699000,10.167698974609374,0.00009661389049142599,0.3581385314464569,0.1425623595714569
1700516978719709200,10.177709228515624,0.08423842489719391,-0.24062064290046692,0.11740750819444656
1700516978729719000,10.187718994140624,0.02191353589296341,0.5058322548866272,0.05889999493956566
1700516978739730200,10.197730224609375,0.18797540664672852,-0.17288848757743835,-0.303814172744751
1700516978749740500,10.207740478515625,-0.044083405286073685,0.22732682526111603,-0.020397376269102097
1700516978759750700,10.217750732421875,-0.008395781740546227,-0.1715492457151413,-0.09397450089454651
1700516978769761500,10.227761474609375,0.131755992770195,-0.10804059356451035,-0.5676443576812744
1700516978779771600,10.237771728515625,-0.07456570118665695,-0.059747498482465744,-0.5048797726631165
1700516978789781500,10.247781494140625,-0.04252840578556061,0.03727811574935913,0.021860981360077858
1700516978799792600,10.257792724609375,-0.207920640707016,-0.014926793985068798,0.36838841438293457
1700516978809802500,10.267802490234375,-0.00807517021894455,-0.6197147369384766,-0.4485490024089813
1700516978819812600,10.2778125,-0.016268286854028702,0.5716658234596252,-0.11656785011291504
1700516978829823500,10.287823486328126,-0.07844910770654678,-0.433488667011261,0.2938636243343353
1700516978839833600,10.29783349609375,0.04331178218126297,-0.1956486701965332,0.11838918924331665
1700516978849843500,10.307843505859376,0.01237437129020691,0.4216233193874359,-0.0425616092979908
1700516978859854300,10.317854248046874,0.037934135645627975,-0.23077012598514557,0.39175179600715637
1700516978869864400,10.327864501953124,-0.010921822860836983,0.39472144842147827,0.5413684844970703
1700516978879874600,10.33787451171875,0.1093272939324379,-0.09732746332883835,-0.3806137442588806
1700516978889884400,10.347884521484374,0.016810940578579903,0.34885987639427185,-0.1954343169927597
1700516978899895600,10.3578955078125,0.016706015914678574,-0.12403871864080429,-0.10676158964633942
1700516978909905400,10.367905517578125,0.14805658161640167,-0.1453658491373062,-0.31529030203819275
1700516978919915500,10.37791552734375,-0.001001878292299807,0.04811175540089607,-0.37430712580680847
1700516978929926400,10.387926513671875,0.003691144287586212,0.08532889932394028,-0.1134859174489975
1700516978939936500,10.3979365234375,-0.030344508588314056,-0.0709991455078125,0.18487311899662018
1700516978949946400,10.4079462890625,0.02891668491065502,-0.24963733553886414,-0.4330470860004425
1700516978959957500,10.41795751953125,0.06671173125505447,0.46071428060531616,-0.09871134907007217
1700516978969967600,10.427967529296875,0.02378983236849308,-0.1477179080247879,0.2674517035484314
1700516978979977700,10.437977783203126,0.10689292848110199,-0.2563886046409607,0.07354860752820969
1700516978989987600,10.447987548828126,0.04088541492819786,0.38270267844200134,-0.02012968435883522
1700516978999998500,10.45799853515625,0.005517069716006517,-0.3287201225757599,0.4713647663593292
1700516979010008600,10.468008544921876,0.02163532003760338,0.31967970728874207,0.370029091835022
1700516979020018700,10.478018798828124,0.08882662653923035,0.050265468657016754,-0.14771980047225952
1700516979030029600,10.488029541015624,0.031137235462665558,0.09918028116226196,0.3230825960636139
1700516979040039400,10.498039306640624,0.04530283436179161,0.3122311234474182,0.38796839118003845
1700516979050049500,10.508049560546874,0.18739871680736542,-0.35462629795074463,0.2512055039405823
1700516979060060400,10.518060302734375,-0.00901495385915041,0.37654924392700195,-0.2788594663143158
1700516979070070500,10.528070556640625,0.02494514174759388,-0.4799201786518097,-0.050316836684942245
1700516979080080400,10.538080322265625,-0.005119014531373978,0.16954836249351501,-0.14213374257087708
1700516979090091500,10.548091552734375,-0.049924835562705994,-0.3151530623435974,-0.414156436920166
1700516979100101400,10.558101318359375,0.00853332132101059,0.13587859272956848,-0.1470082551240921
1700516979110111500,10.568111572265625,-0.12942294776439667,-0.3324923515319824,-0.02979375049471855
1700516979120121600,10.57812158203125,0.019308218732476234,-0.6686804890632629,-0.5223009586334229
1700516979130132500,10.588132568359375,-0.0680176317691803,0.1400359869003296,-0.5330417156219482
1700516979140142300,10.598142333984375,-0.000403856101911515,-0.28937479853630066,0.05599716678261757
1700516979150152400,10.60815234375,-0.1257615089416504,0.06168361380696297,0.4830358624458313
1700516979160163300,10.618163330078126,0.04619286209344864,-0.2834876477718353,-0.3276011347770691
1700516979170173400,10.62817333984375,0.0862172394990921,0.9165949821472168,0.16246497631072998
1700516979180183300,10.638183349609376,0.05344435200095177,-0.010045363567769527,0.62505042552948
1700516979190194700,10.648194580078124,0.29476669430732727,0.2318578064441681,0.5242905616760254
1700516979200204500,10.65820458984375,0.05917860567569733,0.5934851765632629,0.2853454351425171
1700516979210214700,10.668214599609374,0.06317628175020218,-0.28979188203811646,0.4302120804786682
1700516979220224500,10.678224609375,0.10569857805967331,0.20332711935043335,0.41503939032554626
1700516979230235600,10.688235595703125,0.017317848280072212,-0.0428999662399292,-0.47178658843040466
1700516979240245500,10.69824560546875,0.026700010523200035,-0.12613072991371155,-0.03287236765027046
1700516979250255600,10.708255615234375,0.03859315440058708,0.1427643895149231,0.06233963370323181
1700516979260266500,10.7182666015625,0.1086888387799263,-0.6799604892730713,-0.43202584981918335
1700516979270276600,10.728276611328125,-0.04167323559522629,-0.06333804875612259,-0.6939738392829895
1700516979280286500,10.738286376953125,-0.07540829479694366,-0.3618147671222687,-0.43114566802978516
1700516979290297600,10.748297607421875,-0.10793428122997284,-0.3312738835811615,0.018998589366674423
1700516979300307500,10.758307373046875,-0.06009059399366379,-0.5270644426345825,-0.6679067015647888
1700516979310317600,10.768317626953126,0.042215004563331604,0.4632900655269623,-0.21359886229038239
1700516979320327400,10.778327392578126,-0.02891027182340622,-0.23240838944911957,0.07752946764230728
1700516979330338600,10.788338623046876,-0.09924329072237015,-0.3560786545276642,0.2371918261051178
1700516979340348400,10.798348388671876,-0.0065885926596820354,0.3100244402885437,-0.5159879326820374
1700516979350358500,10.808358642578124,-0.026203306391835213,0.09693558514118195,0.2705564498901367
1700516979360369400,10.818369384765624,-0.10994825512170792,-0.327360063791275,0.4637962579727173
1700516979370379500,10.828379638671874,0.016672804951667786,0.059404678642749786,-0.3886919915676117
1700516979380389400,10.838389404296874,0.03289521113038063,0.5460469126701355,0.013253615237772465
1700516979390400500,10.848400390625,-0.015151143074035645,-0.4782556891441345,0.2636227011680603
1700516979400410400,10.858410400390625,0.12019164860248566,-0.5211407542228699,-0.3294561803340912
1700516979410420500,10.86842041015625,0.08879084885120392,0.6621917486190796,-0.5915607213973999
1700516979420430300,10.878430419921875,0.07167063653469086,0.19317948818206787,-0.17084884643554688
1700516979430441700,10.888441650390625,0.11233603954315186,-0.12267221510410309,0.40676575899124146
1700516979440451600,10.89845166015625,0.009069602005183697,-0.26771071553230286,-0.40980929136276245
1700516979450461700,10.908461669921875,-0.03542383015155792,0.6717856526374817,-0.15784470736980438
1700516979460472600,10.91847265625,-0.07118639349937439,-0.04961312189698219,0.10912087559700012
1700516979470482700,10.928482666015626,0.03483457490801811,-0.44325655698776245,-0.12317308783531189
1700516979480492500,10.938492431640626,0.005890228785574436,0.3611079752445221,-0.16932615637779236
1700516979490502700,10.948502685546876,-0.08751162886619568,-0.1295352429151535,0.2135048359632492
1700516979500513500,10.958513427734376,-0.055762749165296555,-0.17158016562461853,0.5214008688926697
1700516979510523600,10.968523681640624,-0.0012539539020508528,0.09968004375696182,-0.18205910921096802
1700516979520533500,10.978533447265624,0.02077256515622139,0.28029096126556396,0.08113466948270798
1700516979530544600,10.988544677734374,0.03659547120332718,-0.13107581436634064,0.3263058066368103
1700516979540554500,10.998554443359374,0.1568286418914795,-0.257110595703125,-0.0895734578371048
1700516979550564600,11.008564697265625,0.04562702402472496,0.3262423276901245,-0.1149858757853508
1700516979560575500,11.018575439453125,0.008465002290904522,-0.4610637426376343,-0.01872927136719227
1700516979570585600,11.028585693359375,0.08076290786266327,0.012956823222339153,-0.18490120768547058
1700516979580595500,11.038595458984375,0.06699500232934952,0.14563624560832977,-0.33724522590637207
1700516979590605600,11.04860546875,0.04227447882294655,0.14352808892726898,-0.024034054949879646
1700516979600616400,11.058616455078125,-0.07228047400712967,0.09976211935281754,0.03426824510097504
1700516979610626600,11.06862646484375,-0.061014238744974136,-0.39094820618629456,-0.05952322483062744
1700516979620636400,11.078636474609375,0.006774789188057184,-0.09320744127035141,-0.916600227355957
1700516979630647300,11.088647216796875,-0.017885282635688782,0.08585099130868912,0.07098615914583206
1700516979640657400,11.098657470703126,-0.1051294207572937,-0.5056705474853516,0.3563593626022339
1700516979650667500,11.10866748046875,0.04288187995553017,-0.06346938014030457,-0.23468397557735443
1700516979660677400,11.118677490234376,0.027066916227340698,0.4620470106601715,0.37204861640930176
1700516979670688500,11.1286884765625,-0.00628970842808485,-0.1999698281288147,0.5913021564483643
1700516979680698600,11.13869873046875,0.07171501964330673,0.15059158205986023,-0.022578978911042213
1700516979690708500,11.14870849609375,0.12280163913965225,0.4467976987361908,0.19221746921539307
1700516979700719600,11.1587197265625,0.03190799802541733,0.040635112673044205,0.46966105699539185
1700516979710729500,11.1687294921875,0.2175351232290268,-0.3899998962879181,0.15245431661605835
1700516979720739600,11.178739501953125,0.006215010304003954,0.35039952397346497,-0.41934701800346375
1700516979730749700,11.188749755859375,-0.11250098794698715,-0.021024636924266815,-0.1360950767993927
1700516979740760600,11.198760498046875,-0.09492746740579605,-0.49368178844451904,-0.017419449985027313
1700516979750769700,11.208769775390625,-0.0169820636510849,-0.32529810070991516,-0.6480054259300232
1700516979760779500,11.218779541015625,-0.09389877319335938,0.39249491691589355,-0.5812488794326782
1700516979770790700,11.228790771484375,-0.06459707766771317,-0.42618528008461,-0.1227916032075882
1700516979780800500,11.238800537109375,-0.1216929703950882,-0.456086128950119,0.09559163451194763
1700516979790810600,11.248810546875,0.003035646863281727,0.04782389476895332,0.11437331140041351
1700516979800821500,11.258821533203125,0.16274623572826385,0.2619944214820862,-0.12863552570343018
1700516979810831600,11.26883154296875,-0.01650393195450306,-0.5018611550331116,-0.3030875027179718
1700516979820841500,11.278841552734375,-0.021146999672055244,-0.28548967838287354,-0.19631615281105042
1700516979830851600,11.2888515625,0.07629380375146866,0.3319775462150574,-0.07505977898836136
1700516979840862700,11.29886279296875,-0.05603332817554474,0.3962419927120209,-0.4428303837776184
1700516979850872800,11.308872802734374,0.05798964574933052,-0.5791338086128235,-0.3646530210971832
1700516979860882400,11.31888232421875,0.06801111251115799,0.29972001910209656,-0.18189163506031036
1700516979870893800,11.328893798828124,0.04220135137438774,0.43326717615127563,0.0984066054224968
1700516979880903700,11.338903564453124,0.017150139436125755,-0.0880817323923111,0.26972177624702454
1700516979890913800,11.348913818359375,0.11343486607074738,0.09069707244634628,0.4677262008190155
1700516979900923600,11.358923583984375,0.14200806617736816,0.16636504232883453,0.7676331400871277
1700516979910934800,11.368934814453125,-0.07019980251789093,-0.178751602768898,0.5667157769203186
1700516979920944600,11.378944580078125,-0.1296757459640503,-0.3415670692920685,0.40285834670066833
1700516979930954800,11.388954833984375,0.012005748227238655,0.06277427822351456,-0.363899827003479
1700516979940965600,11.398965576171875,0.008048348128795624,-0.13941684365272522,-0.7012439370155334
1700516979950975700,11.408975830078125,-0.05105225741863251,-0.2715418338775635,-0.5155444145202637
1700516979960985600,11.418985595703125,-0.01653475873172283,-0.2476799339056015,-0.21358317136764526
1700516979970995700,11.42899560546875,-0.02885454148054123,0.7609172463417053,0.10884041339159012
1700516979981006600,11.439006591796876,-0.13303236663341522,-0.11680996417999268,0.22861988842487335
1700516979991016700,11.4490166015625,-0.010601530782878399,-0.19695301353931427,0.1101054921746254
1700516980001026600,11.459026611328126,0.1198151484131813,0.5532747507095337,-0.25223085284233093
1700516980011037700,11.46903759765625,0.01744483783841133,-0.18122592568397522,-0.2427409291267395
1700516980021047600,11.479047607421874,-0.05652828514575958,-0.2169000208377838,-0.05208569020032883
1700516980031057700,11.4890576171875,0.052981697022914886,0.3540894091129303,-0.020400462672114372
1700516980041067500,11.499067626953124,0.14630402624607086,0.02328241430222988,-0.15890341997146606
1700516980051078700,11.50907861328125,0.04758090898394585,-0.13690778613090515,-0.09149347990751266
1700516980061088500,11.519088623046875,0.042607199400663376,0.11258240789175034,-0.012437129393219948
1700516980071098600,11.5290986328125,0.1251915544271469,0.13615457713603973,0.24252033233642578
1700516980081109500,11.539109619140625,-0.13466285169124603,-0.0950644388794899,0.364702969789505
1700516980091119600,11.54911962890625,-0.13366177678108215,-0.19502566754817963,0.37298592925071716
1700516980101129500,11.55912939453125,0.15456241369247437,0.4103805720806122,-0.15437005460262299
1700516980111139600,11.5691396484375,0.04877685755491257,-0.016589662060141563,-0.3841651678085327
1700516980121150700,11.579150634765625,-0.12264875322580338,-0.07938335090875626,-0.16013847291469574
1700516980131160800,11.589160888671875,-0.03820177912712097,0.2527024447917938,0.05132370442152023
1700516980141170700,11.599170654296875,0.07538175582885742,0.11974477767944336,0.14370447397232056
1700516980151180800,11.609180908203125,-0.023468391969799995,-0.173102006316185,0.11284696310758591
1700516980161191700,11.619191650390626,0.01654806360602379,0.05569016933441162,-0.061210066080093384
1700516980171201800,11.629201904296876,0.1327282041311264,0.04244893044233322,-0.0031576822511851788
1700516980181211600,11.639211669921876,-0.12152731418609619,-0.17132815718650818,0.0804770216345787
1700516980191222800,11.649222900390624,-0.1267108917236328,-0.2953515648841858,0.05734746903181076
1700516980201232600,11.659232666015624,0.11401554942131042,0.1625424474477768,-0.1724170446395874
1700516980211242800,11.66924267578125,0.022607069462537766,0.06428804248571396,-0.10786122828722
1700516980221252600,11.679252685546874,-0.127328023314476,0.01841033063828945,0.0724668800830841
1700516980231263700,11.689263671875,-0.019585048779845238,-0.09376014769077301,0.15549279749393463
1700516980241273600,11.699273681640625,0.05096059292554855,0.33620667457580566,-0.029783234000205994
1700516980251283700,11.70928369140625,-0.04534357041120529,0.0637945905327797,-0.02686600759625435
1700516980261294600,11.719294677734375,-0.05255527421832085,-0.3090406060218811,-0.15170353651046753
1700516980271304700,11.7293046875,0.05556879937648773,0.34833967685699463,-0.43862345814704895
1700516980281314600,11.739314453125,-0.14797258377075195,0.04433169215917587,-0.2993813455104828
1700516980291324700,11.74932470703125,-0.06812673807144165,-0.15820036828517914,0.2358197569847107
1700516980301335600,11.75933544921875,0.08449503034353256,-0.10167776793241501,0.577146589756012
1700516980311345700,11.769345703125,-0.0051645454950630665,0.5771247148513794,0.7944480180740356
1700516980321355500,11.77935546875,0.07693544775247574,-0.5432859063148499,0.5962064266204834
1700516980331366700,11.78936669921875,0.047665972262620926,-0.20515687763690948,-0.2616560757160187
1700516980341376500,11.79937646484375,-0.22468620538711548,0.21501700580120087,-0.787600040435791
1700516980351386600,11.80938671875,-0.09836369007825851,-0.12435227632522583,-0.47300803661346436
1700516980361396500,11.819396484375,-0.04353874549269676,-0.24557949602603912,-0.4515291452407837
1700516980371408000,11.829407958984374,-0.02559489756822586,0.5238649845123291,-0.009019365534186363
1700516980381417700,11.839417724609374,-0.14932647347450256,0.14732617139816284,0.7440133094787598
1700516980391427800,11.849427734375,0.020078260451555252,-0.5775428414344788,0.5393174290657043
1700516980401437400,11.8594375,0.03617430850863457,0.4577612578868866,0.01680154539644718
1700516980411448800,11.86944873046875,-0.24008522927761078,0.4369449317455292,0.11451879143714905
1700516980421458700,11.879458740234375,0.0056973607279360294,-0.8242173194885254,0.15669287741184235
1700516980431468800,11.88946875,0.12308204174041748,0.6897247433662415,0.07596713304519653
1700516980441479700,11.899479736328125,0.02981598675251007,0.2645253539085388,0.459401935338974
1700516980451489800,11.90948974609375,0.26788580417633057,-0.7860515117645264,0.45297253131866455
1700516980461499600,11.919499755859375,0.12603701651096344,0.3185169994831085,-0.2640913724899292
1700516980471509800,11.929509765625,-0.0975358858704567,0.17509061098098755,-0.1589766889810562
1700516980481520600,11.939520751953125,-0.11750323325395584,-0.5066817402839661,0.009445437230169773
1700516980491530800,11.94953076171875,-0.06457237154245377,-0.261698842048645,-0.5101482272148132
1700516980501540600,11.95954052734375,0.047352224588394165,0.44776880741119385,-0.36778002977371216
1700516980511550700,11.96955078125,-0.1647171527147293,-0.29761773347854614,-0.1500101536512375
1700516980521561600,11.9795615234375,-0.036311354488134384,-0.44797584414482117,0.05777038633823395
1700516980531571700,11.98957177734375,0.08321823924779892,0.21106678247451782,-0.2347640097141266
1700516980541581600,11.99958154296875,-0.08663763105869293,0.1557377725839615,-0.20500753819942474
1700516980551592700,12.0095927734375,0.0516965426504612,-0.1758502721786499,0.3293953835964203
1700516980561602600,12.0196025390625,0.24983812868595123,0.2745145559310913,0.16605986654758453
1700516980571612700,12.02961279296875,-0.09154610335826874,0.5298757553100586,0.46160706877708435
1700516980581622500,12.03962255859375,0.20489972829818726,-0.36913278698921204,0.6197981834411621
1700516980591633700,12.049633544921875,0.1343022584915161,0.019908960908651352,-0.19585484266281128
1700516980601643500,12.0596435546875,-0.11107905954122543,0.2102537453174591,-0.2063063681125641
1700516980611653600,12.069653564453125,-0.04842659458518028,-0.5005007982254028,-0.042381882667541504
1700516980621663500,12.07966357421875,-0.07775329798460007,-0.6892300844192505,-0.6117631196975708
1700516980631674600,12.089674560546875,-0.06757842004299164,0.2964244782924652,-0.6875185966491699
1700516980641684500,12.0996845703125,-0.11421006917953491,-0.3720839023590088,-0.3777284622192383
1700516980651694600,12.109694580078125,-0.08728764206171036,-0.3364015221595764,-0.127224862575531
1700516980661705700,12.119705810546876,0.059872884303331375,0.46055176854133606,-0.04306677356362343
1700516980671715800,12.1297158203125,0.05135875940322876,0.16103161871433258,0.04602901265025139
1700516980681725700,12.1397255859375,-0.03127697482705116,-0.10468585044145584,0.12596410512924194
1700516980691735800,12.14973583984375,0.016730763018131256,-0.3385409712791443,0.12806719541549683
1700516980701746700,12.15974658203125,0.04098591208457947,0.300908625125885,-0.17075210809707642
1700516980711756800,12.1697568359375,-0.13831700384616852,0.02820679359138012,-0.3410165011882782
1700516980721766700,12.1797666015625,0.0364120788872242,-0.3937813639640808,0.004876869730651379
1700516980731776800,12.18977685546875,0.08867980539798737,0.14383628964424133,0.1350220888853073
1700516980741787600,12.19978759765625,0.05943561717867851,0.4613626301288605,0.2572065591812134
