time,seconds_elapsed,z,y,x
1700516968559582000,0.01758203125,-0.042685944586992264,0.062006112188100815,-0.23841896653175354
1700516968569591000,0.027591064453125,-0.03341707959771156,0.02293141558766365,-0.001383778522722423
1700516968579601200,0.03760107421875,0.019057314842939377,-0.09919076412916183,0.16819912195205688
1700516968589610000,0.04760986328125,-0.028269721195101738,-0.014680675230920315,-0.039035551249980927
1700516968599620000,0.0576201171875,-0.020786505192518234,0.024582307785749435,-0.24404755234718323
1700516968609629000,0.06762890625,-0.03194009140133858,0.019039737060666084,0.04956302419304848
1700516968619639000,0.07763916015625,-0.0017124125733971596,-0.1296147108078003,0.0695740208029747
1700516968629648000,0.08764794921875,-0.01775849051773548,0.2300204187631607,-0.05474233999848366
1700516968639658000,0.097657958984375,-0.0006325007416307926,-0.26842665672302246,0.12339624017477036
1700516968649667000,0.1076669921875,-0.02816452644765377,0.16252872347831726,-0.2853550314903259
1700516968659677000,0.117677001953125,-0.05062083154916763,0.04794009402394295,-0.08785901218652725
1700516968669686000,0.12768603515625,0.023087209090590477,-0.09152165800333023,0.14740516245365143
1700516968679696100,0.137696044921875,-0.004035754129290581,0.02448323927819729,-0.06252755969762802
1700516968689706000,0.1477060546875,-0.03718571737408638,0.11947046965360641,-0.23918914794921875
1700516968699714800,0.15771484375,0.006295446306467056,-0.07051331549882889,0.06452199816703796
1700516968709725000,0.167724853515625,0.015235411934554577,0.04309473931789398,0.022071214392781258
1700516968719734000,0.177734130859375,0.03983183577656746,0.1514047086238861,0.14525440335273743
1700516968729744000,0.187743896484375,0.027898209169507027,-0.1662965714931488,0.08776447176933289
1700516968739756300,0.19775634765625,-0.010298177599906921,0.2946356236934662,-0.1667943149805069
1700516968749766400,0.207766357421875,0.031071366742253304,-0.02905268967151642,0.15962348878383636
1700516968759775500,0.217775390625,0.09989117830991745,0.05217212438583374,0.17967627942562103
1700516968769785300,0.227785400390625,0.002772616920992732,0.008669654838740826,-0.11184371262788773
1700516968779794400,0.23779443359375,-0.015477227047085762,0.16450558602809906,-0.07574748992919922
1700516968789804500,0.247804443359375,0.04400847107172012,-0.1476198136806488,0.18853795528411865
1700516968799813400,0.2578134765625,0.013948572799563408,0.17136962711811066,0.027584755793213844
1700516968809823200,0.2678232421875,0.03636066988110542,-0.08729469031095505,0.1472826600074768
1700516968819832300,0.277832275390625,-0.025970613583922386,-0.03092089854180813,-0.13902978599071503
1700516968829842400,0.287842529296875,-0.027414314448833466,0.057374607771635056,-0.060754694044589996
1700516968839851300,0.297851318359375,0.014505705796182156,-0.042005505412817,0.13130448758602142
1700516968849861400,0.307861328125,0.012212990783154964,-0.03326607868075371,0.025422802194952965
1700516968859870500,0.317870361328125,-0.052510879933834076,-0.05992298945784569,-0.22897139191627502
1700516968869880300,0.32788037109375,-0.03514227271080017,0.05090232938528061,-0.02755812369287014
1700516968879889400,0.337889404296875,0.008479771204292774,-0.20114509761333466,0.1406034529209137
1700516968889899500,0.3478994140625,-0.012141617946326733,0.1956070512533188,-0.06258268654346466
1700516968899908400,0.357908447265625,0.004252003040164709,-0.1768466830253601,0.13869556784629822
1700516968909918200,0.367918212890625,-0.042131207883358,0.019213907420635223,-0.1762024611234665
1700516968919927300,0.37792724609375,-0.0350264273583889,0.03624189272522926,-0.023631559684872627
1700516968929937400,0.3879375,0.009170329198241234,-0.053222741931676865,0.15855315327644348
1700516968939947300,0.397947265625,0.023489879444241524,0.008022506721317768,-0.0011286477092653513
1700516968949956400,0.407956298828125,-0.03645521402359009,0.013656956143677235,-0.2066730111837387
1700516968959966500,0.417966552734375,0.01955346204340458,0.0606662780046463,0.03731461614370346
1700516968969975600,0.4279755859375,0.010654508136212826,-0.10490191727876663,0.13480281829833984
1700516968979985400,0.4379853515625,0.02160888910293579,0.23748871684074402,-0.04253387823700905
1700516968989994200,0.447994140625,0.034631747752428055,-0.18949216604232788,0.1377464085817337
1700516969000004400,0.45800439453125,-0.028323516249656677,0.08273483067750931,-0.20780272781848907
1700516969010013400,0.468013427734375,0.006898119580000639,-0.012664662674069405,0.01992284134030342
1700516969020023300,0.478023193359375,0.01631212793290615,-0.02611282654106617,0.12131843715906143
1700516969030032400,0.488032470703125,0.01660401001572609,-0.049961432814598083,-0.043348271399736404
1700516969040042500,0.49804248046875,-0.04712756350636482,0.03287592530250549,-0.2737092971801758
1700516969050051300,0.50805126953125,0.02058197371661663,0.01824291981756687,0.04246809706091881
1700516969060061400,0.5180615234375,0.014189588837325573,-0.050400588661432266,0.10122968256473541
1700516969070070500,0.528070556640625,0.04150243476033211,0.3012391924858093,-0.03357234224677086
1700516969080080400,0.538080322265625,0.037703171372413635,-0.23047608137130737,0.08635566383600235
1700516969090089200,0.548089111328125,-0.04633021354675293,0.12695342302322388,-0.26651185750961304
1700516969100099300,0.558099365234375,0.013471866957843304,-0.04751665145158768,0.01666286587715149
1700516969110108400,0.5681083984375,0.03556092455983162,0.03960759565234184,0.09609244763851166
1700516969120118300,0.5781181640625,0.029797310009598732,0.007333812769502401,-0.06733829528093338
1700516969130127400,0.58812744140625,-0.03947443887591362,0.0766841247677803,-0.20624957978725433
1700516969140137500,0.598137451171875,0.036314066499471664,0.0017837852938100696,0.1177934780716896
1700516969150147300,0.608147216796875,0.006612096447497606,-0.01834332011640072,0.07533523440361023
1700516969160156400,0.618156494140625,0.025833195075392723,0.2506362199783325,-0.00512924836948514
1700516969170166500,0.62816650390625,0.005883721634745598,-0.26155462861061096,0.0954439640045166
1700516969180175400,0.63817529296875,-0.0398307703435421,0.18100014328956604,-0.2288331836462021
1700516969190185200,0.648185302734375,0.0012538161827251315,-0.12244255840778351,0.07970681041479111
1700516969200194300,0.6581943359375,0.018936140462756157,0.06541682034730911,0.08334255963563919
1700516969210204400,0.668204345703125,-0.0019688750617206097,-0.06882140785455704,-0.05686301738023758
1700516969220213500,0.678213623046875,-0.060086507350206375,0.09815505892038345,-0.2098618894815445
1700516969230223400,0.688223388671875,0.03816363215446472,-0.03593483194708824,0.15029282867908478
1700516969240232400,0.698232421875,-0.0008037420338951051,-0.01775156706571579,0.04909564182162285
1700516969250242600,0.70824267578125,0.03725709021091461,0.19836609065532684,0.00791225116699934
1700516969260251400,0.71825146484375,-0.006205431651324034,-0.22889655828475952,0.05573277175426483
1700516969270261200,0.72826123046875,-0.02544304169714451,0.17566290497779846,-0.23230168223381042
1700516969280270300,0.738270263671875,0.012826848775148392,-0.11972720175981522,0.06532014906406403
1700516969290280400,0.748280517578125,0.028858812525868416,0.08086102455854416,0.030653515830636024
1700516969300289300,0.758289306640625,0.018270084634423256,-0.0587269626557827,-0.09641122072935104
1700516969310299400,0.76829931640625,-0.06457233428955078,0.06052140146493912,-0.23415790498256683
1700516969320309500,0.7783095703125,0.043059319257736206,-0.02352290228009224,0.09939822554588318
1700516969330318300,0.788318359375,-0.006383596919476986,-0.03810104727745056,0.028255606070160866
1700516969340328400,0.798328369140625,0.026810042560100555,0.20791219174861908,-0.031440481543540955
1700516969350337500,0.808337646484375,-0.0016951019642874599,-0.2764259874820709,0.08374442905187607
1700516969360347400,0.818347412109375,-0.03598303347826004,0.1580178588628769,-0.24128958582878113
1700516969370356200,0.828356201171875,0.025180719792842865,-0.07793021947145462,0.045040711760520935
1700516969380366300,0.838366455078125,0.02142805978655815,0.02101260796189308,0.08430662751197815
1700516969390375400,0.84837548828125,0.011383416131138802,-0.07767375558614731,-0.06856334954500198
1700516969400385300,0.85838525390625,-0.061944592744112015,0.05435352027416229,-0.21951530873775482
1700516969410394400,0.868394287109375,0.05163336545228958,-0.02141820639371872,0.10918614268302917
1700516969420404500,0.878404541015625,-0.016349678859114647,-0.06839663535356522,0.07087177783250809
1700516969430413600,0.88841357421875,0.04499517008662224,0.23253950476646423,-0.015181882306933403
1700516969440423400,0.89842333984375,-0.013488378375768661,-0.2861904799938202,0.08655140548944473
1700516969450432300,0.908432373046875,-0.03326288238167763,0.1879105120897293,-0.2415929138660431
1700516969460442400,0.9184423828125,0.017059143632650375,-0.0825745016336441,0.09752442687749863
1700516969470452200,0.9284521484375,0.02640364319086075,0.028487566858530045,0.12111151218414307
1700516969480461300,0.93846142578125,0.014579741284251213,-0.08214866369962692,-0.06613614410161972
1700516969490471400,0.948471435546875,-0.0755232498049736,0.07445106655359268,-0.19872960448265076
1700516969500480500,0.95848046875,0.04800081625580788,-0.06403037905693054,0.18126939237117767
1700516969510490400,0.968490478515625,-0.011187407188117504,-0.0030722226947546005,0.07000092417001724
1700516969520499500,0.97849951171875,0.01991645060479641,0.1154128760099411,0.07568517327308655
1700516969530509600,0.988509521484375,-0.0013464941876009107,-0.19359876215457916,0.012260394170880318
1700516969540518400,0.998518310546875,-0.04530036821961403,0.10378951579332352,-0.2290600836277008
1700516969550528300,1.0085283203125,0.002843457041308284,-0.10889053344726562,0.13559991121292114
1700516969560537300,1.018537353515625,0.009345298632979393,0.0033814155030995607,0.10690594464540482
1700516969570547500,1.02854736328125,-0.011964251287281513,-0.07795658707618713,-0.16894693672657013
1700516969580556300,1.038556396484375,-0.054018761962652206,0.05510852485895157,-0.19766594469547272
1700516969590566400,1.04856640625,0.034625887870788574,-0.10442068427801132,0.17328070104122162
1700516969600576500,1.058576416015625,0.007801996544003487,0.008615059778094292,0.007987619377672672
1700516969610585300,1.06858544921875,0.027352528646588326,0.08269887417554855,0.061234861612319946
1700516969620595500,1.078595458984375,-0.007595069240778685,-0.13468830287456512,-0.0770748108625412
1700516969630604500,1.0886044921875,-0.025134380906820297,0.07068455219268799,-0.1928892880678177
1700516969640614100,1.0986142578125,0.014178137294948101,-0.04704394191503525,0.14686959981918335
1700516969650623200,1.108623291015625,0.04169445112347603,0.03846802935004234,0.10147948563098907
1700516969660633300,1.11863330078125,-0.0026197514962404966,-0.0369979664683342,-0.17273849248886108
1700516969670642400,1.128642333984375,-0.03243037685751915,0.08412233740091324,-0.09963178634643555
1700516969680652300,1.13865234375,0.039742354303598404,-0.051239218562841415,0.22990350425243378
1700516969690661400,1.148661376953125,0.025497902184724808,0.07318313419818878,0.045166146010160446
1700516969700671500,1.15867138671875,0.03337766230106354,0.036309804767370224,0.1513999104499817
1700516969710680600,1.1686806640625,-0.011354919523000717,-0.038895200937986374,-0.06790794432163239
1700516969720690400,1.1786904296875,-0.01575845666229725,0.044382378458976746,-0.06497234106063843
1700516969730700500,1.188700439453125,0.008865130133926868,-0.009044094942510128,0.17632736265659332
1700516969740706600,1.19870654296875,0.013748569414019585,0.033311083912849426,0.10922582447528839
1700516969750716700,1.208716552734375,-0.025774605572223663,-0.04051626846194267,-0.2036266326904297
1700516969760725800,1.218725830078125,-0.03175606578588486,0.035176362842321396,-0.015477493405342102
1700516969770735600,1.228735595703125,0.021939920261502266,-0.08942069113254547,0.21929267048835754
1700516969780744400,1.238744384765625,0.00996288564056158,0.03015124425292015,0.005465605296194553
1700516969790754600,1.248754638671875,0.008537827990949154,-0.028292357921600342,0.10207896679639816
1700516969800763600,1.258763671875,-0.013801033608615398,-0.046724360436201096,-0.17081648111343384
1700516969810773500,1.2687734375,-0.015380021184682846,0.013072391971945763,-0.06620857864618301
1700516969820783600,1.27878369140625,0.011640677228569984,-0.007670170161873102,0.1468174010515213
1700516969830792700,1.288792724609375,0.010006560944020748,0.016220515593886375,0.002401372417807579
1700516969840802600,1.298802490234375,-0.02599191851913929,-0.034936677664518356,-0.27241235971450806
1700516969850811600,1.308811767578125,-0.02479136548936367,0.00010998855577781796,-0.005752161610871553
1700516969860821800,1.31882177734375,0.0070800138637423515,-0.07661169022321701,0.14126205444335938
1700516969870830600,1.32883056640625,-0.006758570205420256,0.07735098153352737,-0.031434621661901474
1700516969880840400,1.33884033203125,-0.006937001831829548,-0.06299148499965668,0.06883179396390915
1700516969890849500,1.348849609375,-0.025534121319651604,-0.06573160737752914,-0.22068950533866882
1700516969900859600,1.358859619140625,-0.020355071872472763,-0.04199405387043953,-0.0027079021092504263
1700516969910869500,1.368869384765625,0.0172684695571661,-0.008655273355543613,0.12107636034488678
1700516969920878600,1.378878662109375,0.0009030779474414885,-0.021227257326245308,-0.023683225736021996
1700516969930888700,1.388888671875,-0.03569967299699783,-0.06029769405722618,-0.2705335021018982
1700516969940897800,1.398897705078125,-0.0039175101555883884,-0.01805063895881176,0.073399119079113
1700516969950907600,1.40890771484375,-0.002368881832808256,-0.0451967716217041,0.12364870309829712
1700516969960916700,1.418916748046875,0.008136223070323467,0.1364755481481552,0.021098094061017036
1700516969970926600,1.428926513671875,0.008259527385234833,-0.08988488465547562,0.08141922205686569
1700516969980935700,1.438935791015625,-0.013911820948123932,0.014492656104266644,-0.19186344742774963
1700516969990945500,1.448945556640625,0.0015385081060230732,-0.036622192710638046,0.0764889121055603
1700516970000955600,1.45895556640625,0.02305019088089466,0.03027534857392311,0.12428972870111465
1700516970010964700,1.46896484375,0.007442203816026449,-0.004850681405514479,-0.06338243186473846
1700516970020974600,1.478974609375,-0.013878797180950642,0.013206349685788155,-0.20299385488033295
1700516970030983700,1.488983642578125,0.011980762705206871,-0.044561341404914856,0.13986176252365112
1700516970040993800,1.498993896484375,0.0007731156656518579,-0.01335788331925869,0.046659380197525024
1700516970051002600,1.509002685546875,0.006653641816228628,0.0588473379611969,0.0415775366127491
1700516970061012700,1.5190126953125,-0.00942279677838087,-0.11367383599281311,-0.018205102533102036
1700516970071021600,1.529021484375,-0.017429590225219727,0.011357583105564117,-0.20293952524662018
1700516970081031700,1.53903173828125,-0.006827545817941427,-0.04902240261435509,0.08586324006319046
1700516970091041500,1.54904150390625,0.02256709337234497,0.04228753596544266,0.1004142239689827
1700516970101050600,1.559050537109375,-0.013431386090815067,-0.023682693019509315,-0.16071777045726776
1700516970111060700,1.569060791015625,-0.02130342461168766,0.046543799340724945,-0.19616125524044037
1700516970121069600,1.579069580078125,0.024623321369290352,-0.0288753230124712,0.19225093722343445
1700516970131079700,1.58907958984375,0.01452967431396246,0.051181428134441376,0.024986043572425842
1700516970141088800,1.5990888671875,0.017225325107574463,0.027995947748422623,0.05555220693349838
1700516970151098600,1.6090986328125,-0.00729519734159112,-0.04024409130215645,-0.08846701681613922
1700516970161108700,1.619108642578125,-0.015749935060739517,0.03964035212993622,-0.11399740725755692
1700516970171117600,1.62911767578125,0.005879194475710392,-0.02521560713648796,0.11494176834821701
1700516970181127400,1.63912744140625,0.01950179599225521,0.04489770159125328,0.052199553698301315
1700516970191136500,1.649136474609375,-0.018670357763767242,-0.052439507097005844,-0.20530042052268982
1700516970201146600,1.659146728515625,-0.02629871480166912,0.05204669013619423,-0.10213541984558105
1700516970211155700,1.66915576171875,0.024221716448664665,-0.055217448621988297,0.19896236062049866
1700516970221165600,1.67916552734375,0.011998073197901249,0.06805574893951416,-0.013033243827521801
1700516970231175700,1.68917578125,0.012177837081253529,-0.010282198898494244,0.09467057883739471
1700516970241184800,1.699184814453125,-0.00920601561665535,-0.024996429681777954,-0.1130908653140068
1700516970251194600,1.709194580078125,-0.014731807634234428,0.03250068426132202,-0.03404505178332329
1700516970261203500,1.719203369140625,0.009157545864582062,0.0005550027708522975,0.134212926030159
1700516970271213600,1.729213623046875,0.01661199890077114,0.029941387474536896,0.03966032713651657
1700516970281223400,1.739223388671875,-0.02255990356206894,-0.03519846871495247,-0.2159125804901123
1700516970291232500,1.749232421875,-0.018187792971730232,0.036258671432733536,0.011091799475252628
1700516970301242600,1.75924267578125,0.01649002730846405,-0.06387751549482346,0.19781002402305603
1700516970311251700,1.769251708984375,0.007509581744670868,0.10384570807218552,-0.01678750291466713
1700516970321261600,1.779261474609375,0.009096292778849602,-0.04517919570207596,0.11304612457752228
1700516970331270700,1.789270751953125,-0.0073202308267354965,0.005092230159789324,-0.15203267335891724
1700516970341280800,1.79928076171875,-0.011416172608733177,-0.009882724843919277,-0.0022485069930553436
1700516970351290600,1.80929052734375,0.010708037763834,0.015282549895346165,0.12122362852096558
1700516970361299700,1.8192998046875,0.007947937585413456,0.011944543570280075,0.008583367802202702
1700516970371309800,1.829309814453125,-0.017955563962459564,-0.0031140341889113188,-0.24574051797389984
1700516970381318700,1.839318603515625,-0.005446430761367083,0.009491239674389362,0.05428667366504669
1700516970391328500,1.84932861328125,0.011661982163786888,-0.05820604786276817,0.16525501012802124
1700516970401338600,1.859338623046875,-0.0005496764206327498,0.10974034667015076,-0.032886043190956116
1700516970411347700,1.86934765625,0.012695289216935635,-0.03544906899333,0.10266432911157608
1700516970421357600,1.879357666015625,-0.012322979047894478,0.01088700257241726,-0.17811967432498932
1700516970431366700,1.88936669921875,-0.0030959248542785645,-0.018430938944220543,0.03860917687416077
1700516970441376800,1.899376708984375,0.019453059881925583,0.02707848884165287,0.11991814523935318
1700516970451386600,1.90938671875,0.010466755367815495,-0.0036719664931297302,-0.020774520933628082
1700516970461395700,1.919395751953125,-0.02075907401740551,0.00395852280780673,-0.24515089392662048
1700516970471405800,1.92940576171875,0.010804178193211555,-0.00044847631943412125,0.11667468398809433
1700516970481414700,1.93941455078125,0.010321613401174545,-0.043239615857601166,0.13879357278347015
1700516970491424500,1.949424560546875,-0.006640325766056776,0.12176451832056046,-0.029699837788939476
1700516970501434600,1.9594345703125,0.01128008496016264,-0.050640806555747986,0.07320363819599152
1700516970511443700,1.969443603515625,-0.013964018784463406,0.00836765207350254,-0.17525357007980347
1700516970521453600,1.97945361328125,0.004592354875057936,-0.03729570657014847,0.05435991287231445
1700516970531462700,1.989462646484375,0.019820842891931534,0.02129223942756653,0.09904669225215912
1700516970541472800,1.99947265625,0.003102049930021167,-0.023241672664880753,-0.05010311305522919
1700516970551482600,2.009482666015625,-0.022007564082741737,0.00768748065456748,-0.25029319524765015
1700516970561491700,2.01949169921875,0.012588229961693287,-0.015792811289429665,0.1399776041507721
1700516970571501800,2.029501708984375,-0.003358246060088277,-0.029859095811843872,0.10136816650629044
1700516970581510700,2.0395107421875,0.0015041533624753356,0.1165766790509224,-0.02851286716759205
1700516970591520500,2.0495205078125,0.012824718840420246,-0.08249727636575699,0.052382782101631165
1700516970601530600,2.059530517578125,-0.020912205800414085,0.015399462543427944,-0.21257084608078003
1700516970611539700,2.069539794921875,0.0024029703345149755,-0.052258942276239395,0.07917764037847519
1700516970621549600,2.079549560546875,0.02002643793821335,0.031749408692121506,0.09845893085002899
1700516970631559700,2.0895595703125,-0.0017473000334575772,-0.021866949275135994,-0.086811862885952
1700516970641568800,2.09956884765625,-0.028723256662487984,0.02744973450899124,-0.2258232682943344
1700516970651578600,2.10957861328125,0.019843479618430138,-0.025794845074415207,0.1886700540781021
1700516970661587700,2.119587646484375,-0.0022357236593961716,0.004610997159034014,0.07915500551462173
1700516970671597800,2.129597900390625,0.00911546777933836,0.08820442855358124,0.003655987558886409
1700516970681607700,2.139607666015625,0.008527974598109722,-0.07576000690460205,0.03290069103240967
1700516970691616500,2.149616455078125,-0.017541443929076195,0.04230298101902008,-0.1871589720249176
1700516970701626600,2.159626708984375,0.006764162797480822,-0.03664376586675644,0.10457407683134079
1700516970711636500,2.169636474609375,0.01703011617064476,0.03663204610347748,0.09594889730215073
1700516970721645600,2.1796455078125,-0.006761499680578709,-0.020654678344726562,-0.13757357001304626
1700516970731655700,2.18965576171875,-0.03213077038526535,0.04520422965288162,-0.18866871297359467
1700516970741664000,2.1996640625,0.029956035315990448,-0.026700319722294807,0.21180438995361328
1700516970751673900,2.209673828125,0.005037635564804077,0.02143125608563423,0.02942713163793087
1700516970761684000,2.21968408203125,0.013582654297351837,0.045649509876966476,0.03452788293361664
1700516970771693000,2.229693115234375,0.00785419438034296,-0.05596712976694107,-0.0343201570212841
1700516970781703000,2.239702880859375,-0.01600399985909462,0.05180567502975464,-0.14087723195552826
1700516970791713000,2.249713134765625,0.007242200430482626,-0.028685441240668297,0.10782899707555771
1700516970801722000,2.25972216796875,0.023780696094036102,0.0498245470225811,0.07971347123384476
1700516970811732000,2.26973193359375,-0.013354687951505184,-0.029957633465528488,-0.1802523285150528
1700516970821742000,2.2797421875,-0.029996247962117195,0.05669550225138664,-0.1215626522898674
1700516970831751200,2.289751220703125,0.03380883112549782,-0.04338528960943222,0.23135732114315033
1700516970841761000,2.299760986328125,0.008755408227443695,0.042881421744823456,0.007522098254412413
1700516970851769900,2.309769775390625,0.01829458586871624,0.0001382180635118857,0.06869464367628098
1700516970861780000,2.319780029296875,-0.0009480853332206607,-0.027161313220858574,-0.07215116173028946
1700516970871789800,2.329789794921875,-0.013322196900844574,0.037217941135168076,-0.07619383931159973
1700516970881799000,2.339798828125,0.0047060721553862095,-0.020413395017385483,0.09801284968852997
1700516970891809000,2.34980908203125,0.01920112408697605,0.04502366855740547,0.04392750933766365
1700516970901819000,2.35981884765625,-0.021564681082963943,-0.03857908397912979,-0.21916164457798004
1700516970911828000,2.369827880859375,-0.029532859101891518,0.04934597760438919,-0.0825292319059372
1700516970921838000,2.379838134765625,0.030778152868151665,-0.05913735553622246,0.2089361697435379
1700516970931848000,2.389847900390625,0.006280798930674791,0.045035384595394135,-0.03580433502793312
1700516970941857000,2.39985693359375,0.011815646663308144,-0.010582869872450829,0.06840968132019043
1700516970951867100,2.4098671875,-0.005574794951826334,-0.016144081950187683,-0.12552890181541443
1700516970961877000,2.419876953125,-0.012576778419315815,0.023514114320278168,-0.05487416684627533
1700516970971885800,2.4298857421875,0.004992628004401922,-0.0028767467010766268,0.09558697789907455
1700516970981896000,2.43989599609375,0.01434964407235384,0.021867481991648674,0.025711487978696823
1700516970991906000,2.449906005859375,-0.02225816808640957,-0.03939640894532204,-0.20878224074840546
1700516971001915000,2.459914794921875,-0.02429894730448723,0.0527750626206398,-0.02799008972942829
1700516971011925000,2.469925048828125,0.029652433469891548,-0.07705803215503693,0.19813331961631775
1700516971021935000,2.47993505859375,-0.000007723167072981596,0.055751677602529526,-0.044083837419748306
1700516971031944000,2.48994384765625,0.012014051899313927,-0.029352828860282898,0.09593585133552551
1700516971041954000,2.4999541015625,-0.009959157556295395,0.0017947042360901833,-0.1254255622625351
1700516971051964200,2.509964111328125,-0.017948374152183533,0.02394288405776024,-0.045418880879879
1700516971061973000,2.519972900390625,0.002701244316995144,-0.006623547989875078,0.09238026291131973
1700516971071983000,2.529983154296875,0.011535216122865677,0.0215337872505188,0.020627247169613838
1700516971081993200,2.5399931640625,-0.0239399541169405,-0.078294537961483,-0.19475165009498596
1700516971092001800,2.550001708984375,-0.02383209578692913,0.09894708544015884,-0.0312213022261858
1700516971102012000,2.560011962890625,0.03177550807595253,-0.09088143706321716,0.21698424220085144
1700516971112022000,2.57002197265625,0.001898034941405058,0.09282048791646957,-0.04422871395945549
1700516971122030800,2.58003076171875,0.025073396041989326,0.018281536176800728,0.11554337292909622
1700516971132041000,2.590041015625,-0.018438927829265594,-0.03545146808028221,-0.11756710708141327
1700516971142051000,2.600051025390625,0.002757703186944127,0.1010507196187973,-0.025126125663518906
1700516971152060000,2.610059814453125,0.005588377360254526,-0.020356936380267143,0.09927944839000702
1700516971162070000,2.620070068359375,0.024419588968157768,0.02526594139635563,0.025492310523986816
1700516971172080000,2.630080078125,-0.006453105714172125,-0.026826022192835808,-0.17076241970062256
1700516971182089200,2.640089111328125,-0.020010193809866905,0.08756393939256668,-0.012645754031836987
1700516971192099000,2.65009912109375,0.04484257102012634,-0.08729442209005356,0.20703095197677612
1700516971202109200,2.660109130859375,0.0030839405953884125,0.09865333884954453,-0.045998118817806244
1700516971212119000,2.670119140625,0.02725505642592907,-0.011258513666689396,0.13360252976417542
1700516971222127900,2.6801279296875,-0.011196994222700596,-0.012870525009930134,-0.11795566231012344
1700516971232138000,2.690137939453125,-0.014857242815196514,0.05175746977329254,-0.054244596511125565
1700516971242147800,2.70014794921875,0.014092116616666317,-0.005096757784485817,0.11108577251434326
1700516971252157000,2.710156982421875,0.02112925425171852,0.015106515027582645,0.0203313697129488
1700516971262167000,2.7201669921875,-0.01751055009663105,-0.028059598058462143,-0.22123119235038757
1700516971272177000,2.730177001953125,-0.020917799323797226,0.06355980038642883,0.014311561360955238
1700516971282186000,2.74018603515625,0.03617531433701515,-0.09490440785884857,0.18064408004283905
1700516971292196000,2.750196044921875,-0.004866127856075764,0.1210489273071289,-0.0196679774671793
1700516971302206000,2.7602060546875,0.028247883543372154,-0.05952218174934387,0.11707974970340729
1700516971312216000,2.770216064453125,-0.017495902255177498,0.01786182075738907,-0.15488971769809723
1700516971322225200,2.78022509765625,-0.017377391457557678,-0.0013558153295889497,-0.008019843138754368
1700516971332235000,2.790235107421875,0.019281286746263504,0.012367187067866325,0.13559697568416595
1700516971342245000,2.8002451171875,0.025563417002558708,0.003478088416159153,0.034579016268253326
1700516971352254000,2.81025390625,-0.01420237123966217,0.008275507017970085,-0.233976811170578
1700516971362263800,2.820263916015625,-0.006999852601438761,0.04495176300406456,0.06516781449317932
1700516971372274000,2.83027392578125,0.03639103099703789,-0.0701678991317749,0.20869702100753784
1700516971382284000,2.840283935546875,0.0051838429644703865,0.11671649664640427,-0.00720518222078681
1700516971392292900,2.85029296875,0.02641483023762703,-0.014360297471284866,0.10443107038736343
1700516971402303000,2.860302978515625,-0.012709669768810272,0.017675133422017097,-0.18441112339496613
1700516971412313000,2.87031298828125,-0.012711534276604652,0.009862484410405159,-0.03142130747437477
1700516971422322000,2.880322021484375,0.018973691388964653,0.02261529676616192,0.09975535422563553
1700516971432332000,2.89033203125,0.02123444899916649,-0.006096241995692253,-0.04210351034998894
1700516971442342100,2.900342041015625,-0.022643260657787323,-0.00595562718808651,-0.2920917868614197
1700516971452352000,2.91035205078125,-0.017793644219636917,0.02213433012366295,0.033240776509046555
1700516971462361000,2.920361083984375,0.028144286945462227,-0.08589386940002441,0.1616983562707901
1700516971472371200,2.93037109375,-0.00953651312738657,0.11174703389406204,-0.061053235083818436
1700516971482381000,2.940381103515625,0.019587550312280655,-0.0413527674973011,0.06928613036870956
1700516971492390000,2.950389892578125,-0.012716061435639858,-0.01206997875124216,-0.17274168133735657
1700516971502400000,2.96039990234375,-0.010994328185915947,-0.00014407701382879168,-0.012011655606329441
1700516971512409900,2.970409912109375,0.013821539469063282,0.010005496442317963,0.09300317615270615
1700516971522420000,2.980419921875,0.01417494099587202,0.01372113823890686,-0.01327106449753046
1700516971532429000,2.990428955078125,-0.014485199004411697,-0.0326189287006855,-0.23071497678756714
1700516971542439000,3.00043896484375,-0.016531838104128838,0.030529946088790894,0.05157211422920227
1700516971552449000,3.010448974609375,0.025727467611432076,-0.07461272180080414,0.16513648629188538
1700516971562459000,3.020458984375,-0.01230460312217474,0.10315434634685516,-0.0382792130112648
1700516971572468000,3.030468017578125,0.0240001417696476,-0.02955043502151966,0.11476413160562515
1700516971582478000,3.04047802734375,-0.005350290797650814,-0.010122409090399742,-0.17389802634716034
1700516971592488000,3.050488037109375,-0.013516074977815151,0.0001054611784638837,-0.022045647725462914
1700516971602498000,3.060498046875,0.0226144976913929,-0.0003121224872302264,0.097011499106884
1700516971612507100,3.070507080078125,0.029033515602350235,0.02419215440750122,-0.027090739458799362
1700516971622517000,3.08051708984375,-0.03363119810819626,-0.07051624357700348,-0.2815304696559906
1700516971632527000,3.090527099609375,-0.01305454969406128,0.029796777293086052,-0.0018277274211868644
1700516971642537200,3.100537109375,0.018278606235980988,-0.12573368847370148,0.11705977469682693
1700516971652546000,3.110546142578125,-0.030432473868131638,0.060203686356544495,-0.08226131647825241
1700516971662556000,3.120555908203125,0.0023249397054314613,-0.055818792432546616,0.06751379370689392
1700516971672566000,3.13056591796875,-0.019118035212159157,-0.08590691536664963,-0.23419173061847687
1700516971682576000,3.140575927734375,-0.028846828266978264,-0.011942679062485695,-0.09879981726408005
1700516971692585000,3.1505849609375,0.012015916407108307,-0.06825282424688339,0.0886843279004097
1700516971702595000,3.160594970703125,-0.0046874298714101315,0.0030834078788757324,-0.01919393427670002
1700516971712605000,3.17060498046875,-0.03185407072305679,-0.08754929155111313,-0.30073320865631104
1700516971722615000,3.180614990234375,-0.01884452812373638,0.06501948088407516,-0.025728000327944756
1700516971732625000,3.190625,0.003275688039138913,-0.10187150537967682,0.12980620563030243
1700516971742633700,3.2006337890625,-0.012922456488013268,0.11200669407844543,-0.005253351293504238
1700516971752643800,3.210643798828125,0.0015273229219019413,-0.07390618324279785,0.1143105998635292
1700516971762654000,3.220654052734375,-0.01870657689869404,-0.015214106999337673,-0.24775627255439758
1700516971772663800,3.230663818359375,-0.013598366640508175,0.006603308022022247,-0.009426258504390717
1700516971782673000,3.2406728515625,0.02117905393242836,0.007655256427824497,0.15279459953308105
1700516971792683000,3.25068310546875,0.018274344503879547,-0.01980459690093994,-0.003820038167759776
1700516971802692900,3.26069287109375,-0.03712286800146103,0.009367935359477997,-0.2659912109375
1700516971812703000,3.270702880859375,0.004399542231112719,0.004107393324375153,0.10821781307458878
1700516971822712800,3.280712890625,0.007832090370357037,-0.04210537672042847,0.13901780545711517
1700516971832721700,3.2907216796875,0.0010245180455967784,0.13247361779212952,0.04248221218585968
1700516971842731800,3.300731689453125,0.010368485003709793,-0.12307985126972198,0.07519808411598206
1700516971852741600,3.31074169921875,-0.028378911316394806,0.04621995985507965,-0.2255881130695343
1700516971862751700,3.320751708984375,-0.003020024625584483,-0.06105456501245499,0.0916188657283783
1700516971872760800,3.3307607421875,0.015364042483270168,0.028860943391919136,0.1394393891096115
1700516971882770700,3.340770751953125,0.0010050770360976458,-0.020724453032016754,-0.07547158747911453
1700516971892780800,3.35078076171875,-0.0471763014793396,0.03839505836367607,-0.22546294331550598
1700516971902791000,3.360791015625,0.024759141728281975,-0.0344754196703434,0.19130311906337738
1700516971912800800,3.37080078125,0.0028240159153938293,-0.0018924422329291701,0.0746486708521843
1700516971922809900,3.380809814453125,0.00027084347675554454,0.09379706531763077,0.05434659495949745
1700516971932820000,3.390820068359375,0.0025630262680351734,-0.10581857711076736,0.011651862412691116
1700516971942829800,3.400829833984375,-0.022283468395471573,0.061343785375356674,-0.16704225540161133
1700516971952840000,3.41083984375,0.003719637170433998,-0.036002207547426224,0.11154623329639435
1700516971962849800,3.420849853515625,0.019594473764300346,0.0480002835392952,0.10609074681997299
1700516971972859000,3.43085888671875,-0.010411894880235195,-0.03784298524260521,-0.12523141503334045
1700516971982869000,3.440868896484375,-0.0412137508392334,0.06379389017820358,-0.15868285298347473
1700516971992878800,3.45087890625,0.029080919921398163,-0.0446644052863121,0.21632617712020874
1700516972002889000,3.460888916015625,0.019764117896556854,0.02689766138792038,0.016820259392261505
1700516972012898800,3.47089892578125,0.01360289379954338,0.047269776463508606,0.09624025225639343
1700516972022907600,3.48090771484375,-0.002659166231751442,-0.06061088293790817,-0.05006290227174759
1700516972032917800,3.490917724609375,-0.02317189797759056,0.069290392100811,-0.1012246236205101
1700516972042927600,3.500927734375,0.011049987748265266,-0.011605523526668549,0.13037265837192535
1700516972052937700,3.510937744140625,0.02358708530664444,0.041316013783216476,0.07144808769226074
1700516972062947800,3.52094775390625,-0.01991565153002739,-0.041919220238924026,-0.18805645406246185
1700516972072957000,3.53095703125,-0.0356711782515049,0.04777604341506958,-0.07089494913816452
1700516972082966800,3.540966796875,0.02689606323838234,-0.06599286198616028,0.20436698198318481
1700516972092977000,3.550976806640625,0.011152519844472408,0.06131954863667488,-0.022285863757133484
1700516972102986800,3.56098681640625,0.014306767843663692,-0.010936270467936993,0.11749067902565002
1700516972112996900,3.570996826171875,-0.012652944773435593,-0.033721476793289185,-0.127787783741951
1700516972123006700,3.5810068359375,-0.0211244598031044,0.030837275087833405,-0.039090145379304886
1700516972133015800,3.591015869140625,0.010992730036377907,0.012937369756400585,0.12035490572452545
1700516972143026000,3.60102587890625,0.02159690484404564,0.01312352530658245,0.03134194388985634
1700516972153035800,3.611035888671875,-0.027309119701385498,-0.04427638277411461,-0.23767514526844025
1700516972163046000,3.6210458984375,-0.017780061811208725,0.028197016566991806,0.018632806837558746
1700516972173056000,3.631055908203125,0.02293434366583824,-0.0704888105392456,0.17607009410858154
1700516972183065900,3.64106591796875,-0.0031305458396673203,0.1100415512919426,-0.032764073461294174
1700516972193074700,3.65107470703125,0.010165019892156124,-0.057015083730220795,0.10959041118621826
1700516972203084800,3.661084716796875,-0.014840997755527496,-0.015399728901684284,-0.17889757454395294
1700516972213094700,3.6710947265625,-0.008202536031603813,-0.023813454434275627,0.022946594282984734
1700516972223104800,3.681104736328125,0.019121762365102768,0.032469261437654495,0.09622719883918762
1700516972233114600,3.691114501953125,0.005835518706589937,-0.007241934072226286,-0.015682555735111237
1700516972243124700,3.701124755859375,-0.022951388731598854,-0.03169401362538338,-0.24634799361228943
1700516972253133800,3.7111337890625,-0.0007904262165538967,-0.0016743293963372707,0.08907075226306915
1700516972263143700,3.721143798828125,0.007574562914669514,-0.05221686512231827,0.12427002191543579
1700516972273153800,3.73115380859375,-0.007230748422443867,0.12497655302286148,-0.044860150665044785
1700516972283164000,3.741163818359375,0.010026002302765846,-0.08193614333868027,0.09314805269241333
1700516972293173800,3.751173828125,-0.010936005041003227,-0.003186738584190607,-0.20285004377365112
1700516972303184000,3.761183837890625,0.0007720504072494805,-0.05017688497900963,0.06546236574649811
1700516972313193000,3.77119287109375,0.025240907445549965,0.03814126178622246,0.09473370015621185
1700516972323202800,3.781202880859375,0.00010759170982055366,-0.010748251341283321,-0.05098781734704971
1700516972333213000,3.791212890625,-0.021569740027189255,0.001714010490104556,-0.21924181282520294
1700516972343222800,3.801222900390625,0.018429074436426163,-0.01260926853865385,0.1666254699230194
1700516972353233000,3.81123291015625,0.0031443943735212088,-0.0024831313639879227,0.0835002213716507
1700516972363242800,3.82124267578125,-0.002883138135075569,0.1368372142314911,-0.014718226157128811
1700516972373252900,3.8312529296875,0.0028013791888952255,-0.08832187205553055,0.056709352880716324
1700516972383263000,3.841262939453125,-0.00902838259935379,0.022359367460012436,-0.1729494035243988
1700516972393271800,3.851271728515625,-0.0028186896815896034,-0.04198873043060303,0.0711093321442604
1700516972403281700,3.86128173828125,0.025550633668899536,0.055276304483413696,0.07836111634969711
1700516972413291800,3.871291748046875,-0.003624029690399766,-0.02550855651497841,-0.07916273176670074
1700516972423301600,3.881301513671875,-0.030531810596585274,0.03210999816656113,-0.21280334889888763
1700516972433311700,3.891311767578125,0.02412744052708149,-0.01769883558154106,0.1954699009656906
1700516972443321600,3.901321533203125,0.00418489146977663,0.026857713237404823,0.04640451818704605
1700516972453331700,3.911331787109375,0.00464721629396081,0.09921073913574219,-0.0051505533047020435
1700516972463340800,3.9213408203125,0.003894606838002801,-0.09917878359556198,0.02287096157670021
1700516972473350700,3.9313505859375,-0.01563781499862671,0.035225629806518555,-0.15335333347320557
1700516972483360800,3.94136083984375,0.0010468886466696858,-0.04502073675394058,0.09365139156579971
1700516972493371000,3.951370849609375,0.023816648870706558,0.052080776542425156,0.05928835645318031
1700516972503380700,3.961380615234375,-0.012659602798521519,-0.039862994104623795,-0.11180882155895233
1700516972513390800,3.971390869140625,-0.03521524369716644,0.049488987773656845,-0.17433159053325653
1700516972523400700,3.981400634765625,0.032051410526037216,-0.028308603912591934,0.22192254662513733
1700516972533410800,3.991410888671875,0.011344799771904945,0.04388276860117912,0.01369530614465475
1700516972543420000,4.001419921875,0.011685684323310852,0.07396663725376129,0.02762443758547306
1700516972553429800,4.0114296875,0.0019654128700494766,-0.09406604617834091,-0.001437041675671935
1700516972563439900,4.02143994140625,-0.019305521622300148,0.05186985433101654,-0.14964061975479126
1700516972573449700,4.03144970703125,0.0033872744534164667,-0.03471217304468155,0.10426222532987595
1700516972583459800,4.0414599609375,0.02004081942141056,0.05793227627873421,0.055244080722332
1700516972593470000,4.051469970703125,-0.015242069959640503,-0.04487080127000809,-0.14813247323036194
1700516972603479800,4.061479736328125,-0.03507409617304802,0.05385683849453926,-0.13982261717319489
1700516972613490000,4.071489990234375,0.03479846194386482,-0.043346140533685684,0.2341885268688202
1700516972623499800,4.081499755859375,0.017485782504081726,0.05017795041203499,-0.014301974326372147
1700516972633508900,4.0915087890625,0.01727699115872383,0.03347300365567207,0.05529414862394333
1700516972643519000,4.10151904296875,-0.004566255956888199,-0.06807465851306915,-0.04045448079705238
1700516972653528600,4.111528564453125,-0.016701215878129005,0.0366315133869648,-0.11131720244884491
1700516972663538700,4.12153857421875,0.006488525774329901,-0.023129820823669434,0.101120226085186
1700516972673548800,4.131548828125,0.017895642668008804,0.056478191167116165,0.05318199470639229
1700516972683558700,4.14155859375,-0.017539046704769135,-0.05427868291735649,-0.16970860958099365
1700516972693568800,4.15156884765625,-0.035357989370822906,0.05793227627873421,-0.10837307572364807
1700516972703578600,4.16157861328125,0.03253290802240372,-0.053090114146471024,0.2338883876800537
1700516972713588700,4.171588623046875,0.01866289973258972,0.0610915832221508,-0.020683972164988518
1700516972723597800,4.181597900390625,0.017661018297076225,0.018737202510237694,0.0776045098900795
1700516972733607700,4.191607666015625,-0.00649704784154892,-0.05760843679308891,-0.07043581455945969
1700516972743618800,4.201618896484375,-0.02604491636157036,0.04555683210492134,-0.09878197312355042
1700516972753628700,4.211628662109375,0.00720464950427413,-0.013528858311474323,0.11901240795850754
1700516972763638800,4.221638671875,0.023685088381171227,0.046554986387491226,0.041856635361909866
1700516972773648600,4.231648681640625,-0.0217156819999218,-0.06082766503095627,-0.2023744136095047
1700516972783658800,4.24165869140625,-0.03075391799211502,0.04950869828462601,-0.06446421146392822
1700516972793668900,4.2516689453125,0.035952407866716385,-0.06794416159391403,0.22871440649032593
1700516972803678700,4.2616787109375,0.014546984806656837,0.07930760830640793,-0.03387247771024704
1700516972813688800,4.271688720703125,0.014681474305689335,-0.01070963591337204,0.10539886355400085
1700516972823698400,4.281698486328125,-0.012174907140433788,-0.03193636238574982,-0.10759197175502777
1700516972833708500,4.29170849609375,-0.02237614616751671,0.024287762120366096,-0.056958623230457306
1700516972843717600,4.301717529296875,0.011665711179375648,0.0021166803780943155,0.11276676505804062
1700516972853727500,4.3117275390625,0.016713466495275497,0.03221146762371063,0.028776254504919052
1700516972863737600,4.321737548828125,-0.026631610468029976,-0.06541016697883606,-0.22681637108325958
1700516972873747700,4.331747802734375,-0.02317322976887226,0.04068031907081604,-0.016956346109509468
1700516972883757600,4.341757568359375,0.03231426328420639,-0.0744185745716095,0.21304675936698914
1700516972893767700,4.351767578125,0.008139153011143208,0.09852444380521774,-0.040108006447553635
1700516972903777500,4.361777587890625,0.015848204493522644,-0.025411883369088173,0.12033839523792267
1700516972913787600,4.37178759765625,-0.015506521798670292,-0.0301419235765934,-0.15227262675762177
1700516972923797500,4.381797607421875,-0.020005133002996445,0.005997705273330212,-0.03508874401450157
1700516972933807600,4.3918076171875,0.0153163718059659,0.013787451200187206,0.1205410584807396
1700516972943817700,4.401817626953125,0.016833575442433357,0.008138353936374187,0.0002205097407568246
1700516972953827600,4.41182763671875,-0.03224235773086548,-0.05798820033669472,-0.25184181332588196
1700516972963837700,4.421837646484375,-0.012121111154556274,0.02347736246883869,0.041003093123435974
1700516972973847600,4.43184765625,0.02335086278617382,-0.06830129027366638,0.1830981820821762
1700516972983856600,4.441856689453125,-0.0000018642127770363004,0.13391146063804626,-0.03700195997953415
1700516972993866800,4.45186669921875,0.014461230486631393,-0.05631094425916672,0.09126413613557816
1700516973003876600,4.461876708984375,-0.01828925870358944,-0.017128121107816696,-0.1593819409608841
1700516973013886700,4.47188671875,-0.012373312376439571,-0.027823109179735184,0.013947773724794388
1700516973023896600,4.481896484375,0.02334340661764145,0.02455008402466774,0.09332914650440216
1700516973033906700,4.49190673828125,0.014072143472731113,-0.0027332021854817867,-0.01498294435441494
1700516973043916800,4.501916748046875,-0.02153591811656952,-0.03647918254137039,-0.24721698462963104
1700516973053926700,4.5119267578125,-0.0032418658956885338,0.008219313807785511,0.08264534175395966
1700516973063936800,4.521936767578125,0.016763268038630486,-0.05464779958128929,0.1547163426876068
1700516973073946600,4.531946533203125,-0.006579605862498283,0.1276213377714157,-0.051605671644210815
1700516973083956700,4.541956787109375,0.014793859794735909,-0.05361049622297287,0.08168794214725494
1700516973093966800,4.551966796875,-0.010687798261642456,-0.019652264192700386,-0.16691894829273224
1700516973103976700,4.561976806640625,-0.006042712368071079,-0.031184550374746323,0.02365472912788391
1700516973113986800,4.57198681640625,0.017435450106859207,0.029520608484745026,0.08649014681577682
1700516973123996700,4.58199658203125,0.010100571438670158,-0.006925550289452076,-0.022403042763471603
1700516973134006800,4.5920068359375,-0.024706944823265076,-0.0244361013174057,-0.24763056635856628
1700516973144016600,4.6020166015625,0.0028636970091611147,0.0012956279097124934,0.1077248677611351
1700516973154026800,4.61202685546875,0.012382633984088898,-0.04757817089557648,0.1414487361907959
1700516973164036900,4.622036865234375,-0.006364422384649515,0.13846386969089508,-0.040822796523571014
1700516973174046700,4.632046630859375,0.011324825696647167,-0.07744339108467102,0.08270313590765
1700516973184056600,4.642056640625,-0.013317403383553028,-0.013106481172144413,-0.18276874721050262
1700516973194065700,4.652065673828125,-0.0070765516720712185,-0.037941258400678635,0.037890657782554626
1700516973204075500,4.662075439453125,0.017784057185053825,0.02544250898063183,0.09193418174982071
1700516973214085600,4.672085693359375,0.012703544460237026,-0.010133061558008194,-0.030520092695951462
1700516973224095500,4.682095458984375,-0.028120318427681923,-0.019760388880968094,-0.24431626498699188
1700516973234105600,4.692105712890625,0.006563360337167978,-0.0005733785801567137,0.1180371567606926
1700516973244115700,4.70211572265625,0.01293390803039074,-0.03754284605383873,0.13480016589164734
1700516973254125600,4.71212548828125,0.001916144392453134,0.142933189868927,-0.03988802805542946
1700516973264135700,4.7221357421875,0.013617807999253273,-0.0856480598449707,0.09423915296792984
1700516973274145500,4.7321455078125,-0.019051721319556236,-0.009460879489779472,-0.2060367912054062
1700516973284155600,4.74215576171875,-0.0034562505315989256,-0.03590766713023186,0.04001772403717041
1700516973294165500,4.75216552734375,0.021436583250761032,0.027166107669472694,0.10377167165279388
1700516973304175600,4.762175537109375,0.008934905752539635,-0.0007542071980424225,-0.05158942565321922
1700516973314185700,4.772185791015625,-0.03328418731689453,-0.02136201411485672,-0.241451233625412
1700516973324195600,4.782195556640625,0.008265652693808079,-0.0003834952076431364,0.13886307179927826
1700516973334205700,4.792205810546875,0.012537629343569279,-0.026284068822860718,0.1216563954949379
1700516973344215600,4.802215576171875,-0.004907939583063126,0.15912413597106934,-0.03417181968688965
1700516973354225700,4.8122255859375,0.01366228237748146,-0.09501253068447113,0.08657883107662201
1700516973364235500,4.822235595703125,-0.015846075490117073,0.0020780644845217466,-0.21254901587963104
1700516973374245600,4.83224560546875,-0.005972937680780888,-0.041318412870168686,0.04633021354675293
1700516973384255700,4.842255859375,0.024639299139380455,0.033362217247486115,0.10570325702428818
1700516973394265600,4.852265625,0.010892328806221485,-0.011607120744884014,-0.06768610328435898
1700516973404275700,4.862275634765625,-0.03700968250632286,0.003984621725976467,-0.2440749853849411
1700516973414285600,4.87228564453125,0.01865943893790245,-0.013038570061326027,0.16807156801223755
1700516973424295700,4.882295654296875,0.005298625212162733,0.0006181196658872068,0.09933058172464371
1700516973434305800,4.892305908203125,-0.003373426152393222,0.16187864542007446,-0.018987540155649185
1700516973444315600,4.902315673828125,0.009425193071365356,-0.0995100811123848,0.06042100116610527
1700516973454325800,4.91232568359375,-0.016210928559303284,0.023391608148813248,-0.1897299885749817
1700516973464335600,4.922335693359375,-0.0014889733865857124,-0.04982481524348259,0.0680762529373169
1700516973474345700,4.932345703125,0.024816399440169334,0.0452609546482563,0.09429614245891571
1700516973484355600,4.94235546875,-0.0022655511274933815,-0.028849491849541664,-0.08505843579769135
1700516973494365700,4.95236572265625,-0.04080921411514282,0.028991704806685448,-0.2234589159488678
1700516973504375800,4.962375732421875,0.02568565495312214,-0.03129533678293228,0.1986909955739975
1700516973514385700,4.9723857421875,0.0030900659039616585,0.024861939251422882,0.06364502012729645
1700516973524395800,4.982395751953125,0.00920415110886097,0.1377301663160324,0.007239270955324173
1700516973534405600,4.992405517578125,0.005626194179058075,-0.14502696692943573,0.03188416361808777
1700516973544415700,5.002415771484375,-0.028969068080186844,0.056472595781087875,-0.21171703934669495
1700516973554425600,5.012425537109375,0.0011598066193982959,-0.05800364911556244,0.11179816722869873
1700516973564435700,5.022435791015625,0.018566759303212166,0.038365766406059265,0.0912468209862709
1700516973574445800,5.03244580078125,-0.01986771449446678,-0.050324954092502594,-0.13141368329524994
1700516973584455700,5.04245556640625,-0.03290655091404915,0.07603590935468674,-0.2044391632080078
1700516973594465800,5.0524658203125,0.027843881398439407,-0.08755381405353546,0.21490643918514252
1700516973604475600,5.0624755859375,0.0033459956757724285,0.051352135837078094,0.011440407484769821
1700516973614485800,5.07248583984375,0.00863210391253233,0.06345301121473312,0.06878199428319931
1700516973624495900,5.082495849609375,-0.02516021393239498,-0.1745624840259552,-0.010232397355139256
1700516973634505700,5.092505615234375,-0.015430355444550514,0.18461671471595764,-0.2265540510416031
1700516973644515800,5.102515869140625,-0.0036709012929350138,-0.1045818030834198,0.11751571297645569
1700516973654525700,5.112525634765625,0.02111354097723961,0.04759548231959343,0.08936769515275955
1700516973664535600,5.12253564453125,-0.02208799123764038,-0.12816062569618225,-0.12746527791023254
1700516973674545400,5.13254541015625,-0.031801871955394745,0.2378767430782318,-0.19925372302532196
1700516973684555500,5.142555419921875,0.03189747780561447,-0.2175072878599167,0.2424674928188324
1700516973694565600,5.152565673828125,0.008290153928101063,0.1682491898536682,-0.00857298169285059
1700516973704575500,5.162575439453125,0.02924736775457859,0.019207250326871872,0.1359405219554901
1700516973714585600,5.172585693359375,-0.0403096042573452,-0.1575925499200821,-0.0802394449710846
1700516973724595500,5.182595458984375,-0.008099472150206566,0.29532885551452637,-0.21309415996074677
1700516973734605600,5.19260546875,0.005883987993001938,-0.19219447672367096,0.19390688836574554
1700516973744615200,5.202615234375,0.030720096081495285,0.0843292623758316,0.04878884553909302
1700516973754625000,5.212625,-0.05156652256846428,-0.13652534782886505,-0.19187010824680328
1700516973764636200,5.22263623046875,-0.023087741807103157,0.2268027812242508,-0.11182373762130737
1700516973774646000,5.23264599609375,0.025590581819415092,-0.24478738009929657,0.2398110032081604
1700516973784656100,5.24265625,-0.0032349417451769114,0.275746613740921,-0.017404556274414062
1700516973794666000,5.252666015625,0.027860127389431,-0.18015645444393158,0.1861799955368042
1700516973804676000,5.262676025390625,-0.03365116938948631,0.016220781952142715,-0.2247665375471115
1700516973814686000,5.27268603515625,-0.007456318475306034,0.13663853704929352,-0.09182259440422058
1700516973824696000,5.282696044921875,0.016827715560793877,-0.11269139498472214,0.20627354085445404
1700516973834706200,5.2927060546875,0.009710151702165604,0.031130755320191383,0.012793559581041336
1700516973844716000,5.302716064453125,-0.03193742781877518,0.014084127731621265,-0.24252448976039886
1700516973854726100,5.31272607421875,-0.0032405343372374773,0.0796988233923912,0.02239398844540119
1700516973864736000,5.322736083984375,-0.0020301276817917824,-0.13739781081676483,0.1605212390422821
1700516973874746000,5.33274609375,0.01537869032472372,0.27417775988578796,0.003032008884474635
1700516973884756000,5.342755859375,-0.010292585007846355,-0.27643638849258423,0.09084974229335785
1700516973894766000,5.35276611328125,-0.014084925875067711,0.16384565830230713,-0.27595967054367065
1700516973904776200,5.362776123046875,-0.015125423669815063,-0.07863675802946091,0.030659109354019165
1700516973914786000,5.3727861328125,0.03825071454048157,0.011432684026658535,0.13295245170593262
1700516973924796200,5.382796142578125,-0.027509920299053192,-0.07676375657320023,-0.0667547956109047
1700516973934806000,5.392805908203125,0.0007488809060305357,0.13463610410690308,-0.24890276789665222
1700516973944816000,5.402816162109375,0.004811533261090517,-0.06520110368728638,0.13056014478206635
1700516973954826200,5.412826171875,0.001683384063653648,0.0012242551892995834,0.0841313898563385
1700516973964836000,5.422836181640625,0.02159504033625126,0.1353069543838501,0.050288472324609756
1700516973974847000,5.432846923828125,-0.028192754834890366,-0.24046294391155243,0.0010607370641082525
1700516973984857000,5.442857177734375,-0.007186806295067072,0.25027933716773987,-0.23462875187397003
1700516973994867200,5.4528671875,-0.010458233766257763,-0.1691187173128128,0.12050537765026093
1700516974004877000,5.462876953125,0.03341281786561012,0.05842256173491478,0.07812569290399551
1700516974014887200,5.47288720703125,-0.021097028627991676,-0.10467155277729034,-0.12531903386116028
1700516974024897000,5.48289697265625,-0.018392855301499367,0.165836900472641,-0.17599047720432281
1700516974034907100,5.4929072265625,0.033480994403362274,-0.15444070100784302,0.19896236062049866
1700516974044917000,5.5029169921875,0.012923788279294968,0.1401166319847107,0.0046695866622030735
1700516974054927000,5.512927001953125,0.037100497633218765,0.037329528480768204,0.0892007127404213
1700516974064937200,5.522937255859375,-0.022433670237660408,-0.11114969104528427,-0.04621516540646553
1700516974074947000,5.532947021484375,-0.020485300570726395,0.1768120527267456,-0.147154301404953
1700516974084957200,5.542957275390625,0.0011885687708854675,-0.13552133738994598,0.1481306105852127
1700516974094967000,5.552967041015625,0.0287040825933218,0.0540911965072155,0.026744529604911804
1700516974104977200,5.56297705078125,-0.037333790212869644,-0.1040520966053009,-0.1683482676744461
1700516974114988000,5.572988037109375,-0.01461755856871605,0.1579478234052658,-0.10454824566841125
1700516974124998100,5.582998046875,0.03242851421236992,-0.17686931788921356,0.22252309322357178
1700516974135008000,5.593008056640625,0.004334294702857733,0.1694183200597763,-0.037816621363162994
1700516974145018000,5.60301806640625,0.03293744474649429,-0.03526824340224266,0.09452810138463974
1700516974155028200,5.6130283203125,-0.023082150146365166,-0.028923792764544487,-0.10907162725925446
1700516974165038000,5.6230380859375,0.0005107942852191627,0.14886164665222168,-0.08940045535564423
1700516974175048200,5.633048095703125,0.014541392214596272,-0.06948826462030411,0.16198277473449707
1700516974185058000,5.64305810546875,0.045997317880392075,0.03664935752749443,0.020294619724154472
1700516974195068200,5.653068115234375,-0.036082636564970016,-0.04429449513554573,-0.1988433301448822
1700516974205078000,5.663078125,-0.006837932392954826,0.06451401114463806,-0.023622239008545876
1700516974215088000,5.673088134765625,0.019527362659573555,-0.15944212675094604,0.18885166943073273
1700516974225098200,5.68309814453125,0.00003302319601061754,0.03936365246772766,-0.1465337872505188
1700516974235109000,5.693109130859375,-0.043654534965753555,0.14147217571735382,0.4054979681968689
1700516974245119000,5.703118896484375,0.001136104459874332,-0.38286828994750977,-0.29797735810279846
1700516974255129000,5.713129150390625,-0.16743026673793793,0.8066017031669617,-0.49140167236328125
1700516974265139200,5.72313916015625,0.07855046540498734,-0.6350126266479492,0.6627598404884338
1700516974275149000,5.733149169921875,0.07422176748514175,0.11007377505302429,-0.13120701909065247
1700516974285159200,5.7431591796875,-0.13689127564430237,0.18858109414577484,-0.47927072644233704
1700516974295169000,5.7531689453125,-0.00196354859508574,-0.16517643630504608,0.23498187959194183
1700516974305179100,5.76317919921875,-0.03681740164756775,0.1248876079916954,0.11125835031270981
1700516974315189200,5.773189208984375,0.06806906312704086,-0.1739390343427658,0.015919044613838196
1700516974325199000,5.78319921875,-0.08637696504592896,0.03063460811972618,-0.18777042627334595
1700516974335209200,5.793209228515625,-0.01811082661151886,0.02792484126985073,-0.0006988134700804949
1700516974345220000,5.80322021484375,0.06945817172527313,-0.04861840233206749,0.08333137631416321
1700516974355230200,5.813230224609375,-0.049732401967048645,-0.16447976231575012,-0.05760230869054794
1700516974365240000,5.823239990234375,-0.02009674534201622,0.1344965547323227,-0.19789257645606995
1700516974375250200,5.833250244140625,0.01727379485964775,-0.16549894213676453,-0.028001008555293083
1700516974385260000,5.843260009765625,-0.012940566055476665,0.5689438581466675,0.3469105660915375
1700516974395270100,5.853270263671875,0.09658513218164444,-0.8136391043663025,0.012085158377885818
1700516974405280000,5.863280029296875,-0.235434889793396,1.2304363250732422,-0.5123831629753113
1700516974415290000,5.8732900390625,0.214813232421875,-0.8184493184089661,0.6657735109329224
1700516974425300200,5.88330029296875,0.051608599722385406,0.12772120535373688,-0.07245475798845291
1700516974435311000,5.89331103515625,-0.10806228965520859,0.1992473304271698,-0.212477907538414
1700516974445321000,5.903321044921875,0.0711950808763504,0.1314440369606018,0.179324209690094
1700516974455331000,5.9133310546875,0.13338974118232727,-0.6553261876106262,0.4024771451950073
1700516974465341200,5.923341064453125,-0.1275172084569931,0.30335375666618347,-0.6263808012008667
1700516974475351000,5.93335107421875,-0.03707519546151161,0.3694305121898651,0.31092992424964905
1700516974485361200,5.943361083984375,0.08455110341310501,-0.8045510649681091,0.3353321850299835
1700516974495371000,5.95337109375,-0.13724280893802643,0.673200786113739,-0.4073406159877777
1700516974505381000,5.963381103515625,0.028719795867800713,0.11481020599603653,0.22284719347953796
1700516974515392000,5.97339208984375,0.17116482555866241,-0.8941019773483276,0.45635876059532166
1700516974525402000,5.983402099609375,-0.2099985033273697,0.7228759527206421,-0.6057080030441284
1700516974535412000,5.993411865234375,0.15978167951107025,-0.024935442954301834,0.3326069712638855
1700516974545422000,6.003422119140625,-0.02346804179251194,-0.7408291101455688,0.2814559042453766
1700516974555432200,6.01343212890625,-0.16964948177337646,0.5808354020118713,-0.39120718836784363
1700516974565442000,6.023442138671875,0.16739405691623688,-0.1237054318189621,0.2189432680606842
1700516974575452200,6.0334521484375,-0.04339247941970825,-0.6185833215713501,0.04999285936355591
1700516974585462000,6.0434619140625,-0.18654245138168335,1.2614166736602783,-0.2607884407043457
1700516974595473200,6.05347314453125,0.21137483417987823,-0.9288722276687622,0.2921120226383209
1700516974605483000,6.06348291015625,-0.03593483194708824,0.08457666635513306,0.04415947198867798
1700516974615493000,6.0734931640625,-0.2830503582954407,1.0447399616241455,0.40407875180244446
1700516974625503000,6.0835029296875,0.15524205565452576,-1.3913666009902954,0.2482987642288208
1700516974635513000,6.09351318359375,-0.11206422001123428,1.2234036922454834,-0.4533238112926483
1700516974645523000,6.10352294921875,0.09609350562095642,-0.3876952528953552,-0.33517852425575256
1700516974655533000,6.113532958984375,0.14452575147151947,-0.6999735236167908,-0.18929030001163483
1700516974665543200,6.123543212890625,-0.213130384683609,1.2120912075042725,0.058293666690588
1700516974675554000,6.133553955078125,0.04249632731080055,-0.809039294719696,0.03368179872632027
1700516974685564200,6.143564208984375,0.0793566107749939,-0.17728610336780548,-0.24662576615810394
1700516974695574000,6.153573974609375,-0.07633738219738007,0.6873749494552612,0.02545236237347126
1700516974705584000,6.163584228515625,0.08668669313192368,-1.0519236326217651,-0.09603598713874817
1700516974715594000,6.173593994140625,-0.06515023857355118,1.0731310844421387,0.5823174715042114
1700516974725604000,6.18360400390625,0.013757890090346336,-0.20054295659065247,0.6156054139137268
1700516974735615000,6.193614990234375,-0.05028660595417023,0.08351939171552658,0.3370818793773651
1700516974745628700,6.203628662109375,-0.05335270240902901,0.2838442325592041,0.28307485580444336
1700516974755638500,6.213638427734375,-0.022276276722550392,-0.7173141837120056,-0.6976872086524963
1700516974765648600,6.223648681640625,-0.08613328635692596,0.7272354960441589,-0.1566479355096817
1700516974775658500,6.233658447265625,-0.006464557256549597,-0.7490848898887634,-0.2015693336725235
1700516974785668600,6.243668701171875,-0.06066228076815605,0.39945951104164124,-0.1369469314813614
1700516974795678700,6.2536787109375,-0.00535481795668602,0.455590158700943,0.26185449957847595
1700516974805689600,6.263689697265625,-0.009846772067248821,-1.1439208984375,-0.23125000298023224
1700516974815699500,6.273699462890625,-0.11837990581989288,0.7790502309799194,0.17898252606391907
1700516974825709600,6.28370947265625,0.004791825544089079,-0.8984038233757019,-0.33704274892807007
1700516974835719700,6.2937197265625,0.037217676639556885,1.0032434463500977,0.2699475884437561
1700516974845729500,6.3037294921875,0.06588926911354065,-0.3601784110069275,0.4499863386154175
1700516974855739600,6.31373974609375,-0.06755587458610535,0.3630053699016571,0.4935436546802521
1700516974865750500,6.32375048828125,-0.0621214285492897,0.13260677456855774,0.3808456063270569
1700516974875760600,6.3337607421875,-0.06461068242788315,-0.3594508469104767,-0.4083763062953949
1700516974885770500,6.3437705078125,-0.04481887072324753,0.5009261965751648,0.2348087877035141
1700516974895780600,6.353780517578125,-0.008668056689202785,-0.913128137588501,-0.05957784131169319
1700516974905790500,6.36379052734375,-0.1037660762667656,0.5038610100746155,-0.02955229952931404
1700516974915800600,6.373800537109375,0.03184235095977783,-0.42200636863708496,-0.26743170619010925
1700516974925811500,6.3838115234375,-0.12919020652770996,-0.2805733382701874,-0.8911576271057129
1700516974935821600,6.393821533203125,-0.1402931958436966,0.31734201312065125,-0.4418999254703522
1700516974945831400,6.40383154296875,-0.1516672819852829,-0.2992863059043884,0.11068310588598251
1700516974955841500,6.413841552734375,0.06442106515169144,0.1785505712032318,0.9562950730323792
1700516974965851600,6.4238515625,-0.0123618608340621,-0.2400839775800705,0.6244441866874695
1700516974975861500,6.433861572265625,-0.03424851596355438,1.0345622301101685,0.7044838666915894
1700516974985872400,6.443872314453125,0.11859509348869324,-0.7626078724861145,0.07431471347808838
1700516974995882500,6.453882568359375,-0.1385594755411148,0.6327990293502808,-0.4287830591201782
1700516975005892600,6.463892578125,0.048897769302129745,-0.4647149443626404,-0.33298835158348083
1700516975015902500,6.47390234375,-0.03669889271259308,0.07629822939634323,-0.3535332977771759
1700516975025912600,6.48391259765625,0.008949552662670612,0.38949528336524963,0.4778858721256256
1700516975035922400,6.49392236328125,-0.0276260357350111,-0.9917862415313721,0.12496616691350937
1700516975045933600,6.50393359375,-0.13297802209854126,0.7349177002906799,0.0034325483720749617
1700516975055943400,6.513943359375,0.03754684329032898,-0.7275694608688354,-0.4395696520805359
1700516975065953500,6.52395361328125,-0.039082422852516174,0.6689705848693848,-0.3509417772293091
1700516975075963400,6.53396337890625,0.061833009123802185,-0.16182485222816467,0.19872161746025085
1700516975085973500,6.543973388671875,-0.100457102060318,-0.007725031115114689,0.276197224855423
1700516975095984400,6.553984375,0.045521412044763565,0.3076600730419159,0.6446577906608582
1700516975105994500,6.563994384765625,-0.07276501506567001,-0.41898366808891296,-0.07807482779026031
1700516975116004400,6.57400439453125,0.04958459734916687,0.4822137951850891,0.2332143485546112
1700516975126014500,6.584014404296875,-0.03352733328938484,-0.8600558638572693,-0.266108900308609
1700516975136024600,6.594024658203125,-0.08333484083414078,0.773627758026123,-0.16403821110725403
1700516975146035500,6.604035400390625,0.05872030556201935,-0.8588129878044128,-0.1839115172624588
1700516975156045300,6.61404541015625,-0.1125640943646431,0.17352944612503052,-0.321021169424057
1700516975166055400,6.624055419921875,-0.06864217668771744,0.11898790299892426,0.08494365215301514
1700516975176065500,6.6340654296875,-0.08400488644838333,-0.43752726912498474,-0.05443288013339043
1700516975186075400,6.644075439453125,0.014009558595716953,0.2575092911720276,0.2581165134906769
1700516975196086500,6.65408642578125,-0.034212298691272736,-0.47056084871292114,-0.36172065138816833
1700516975206096400,6.664096435546875,0.06492839753627777,0.8424132466316223,0.4784611165523529
1700516975216106500,6.6741064453125,-0.010762366466224194,-0.9508776664733887,0.4571116268634796
1700516975226116400,6.684116455078125,0.11718787252902985,0.7557270526885986,0.34309691190719604
1700516975236126500,6.69412646484375,0.038781218230724335,-0.4209671914577484,-0.3226502239704132
1700516975246137600,6.7041376953125,0.02748781628906727,0.822266161441803,0.2583966553211212
1700516975256147700,6.714147705078125,0.07210082560777664,-0.5008710622787476,0.6227805018424988
1700516975266157600,6.724157470703125,0.0242608655244112,0.9357860684394836,0.03021542727947235
1700516975276167700,6.734167724609375,0.08621025085449219,-0.5847047567367554,-0.09687940776348114
1700516975286177300,6.74417724609375,-0.13269120454788208,0.34849005937576294,-0.21397407352924347
1700516975296187400,6.7541875,-0.04152081161737442,-0.2286025434732437,0.29843515157699585
1700516975306198500,6.764198486328125,-0.09015466272830963,0.03638570383191109,-0.19074225425720215
1700516975316208600,6.774208740234375,0.06931436061859131,-0.45468974113464355,-0.18070533871650696
1700516975326218500,6.784218505859375,-0.19151803851127625,-0.2927085757255554,-0.688300371170044
1700516975336228600,6.794228515625,-0.0235306266695261,0.04327583312988281,-0.02491493709385395
1700516975346239500,6.804239501953125,-0.11817564070224762,-0.6304717063903809,-0.171028733253479
1700516975356249600,6.81424951171875,-0.05615328252315521,0.3146847188472748,-0.04255358502268791
1700516975366259500,6.824259521484375,-0.01991645060479641,-0.8720502257347107,-0.746951162815094
1700516975376269600,6.83426953125,-0.061050303280353546,0.5410680174827576,-0.5013629794120789
1700516975386279700,6.84427978515625,-0.06477287411689758,-0.3234427869319916,-0.21267524361610413
1700516975396290600,6.85429052734375,-0.07009173929691315,0.04881520941853523,-0.08652796596288681
1700516975406300700,6.86430078125,-0.0683223307132721,0.22465947270393372,0.1837937980890274
1700516975416310500,6.874310546875,-0.05465126037597656,0.2870866358280182,0.3678283393383026
1700516975426320600,6.884320556640625,-0.021828599274158478,0.12214694917201996,0.48789218068122864
1700516975436331500,6.89433154296875,-0.04296956956386566,0.8400883078575134,0.7866770029067993
1700516975446341600,6.904341552734375,0.01932229846715927,-0.36174410581588745,0.00803475733846426
1700516975456351500,6.9143515625,0.013634852133691311,0.7017000913619995,0.6390612125396729
1700516975466361600,6.924361572265625,0.05624090135097504,-0.2725100815296173,0.2548040747642517
1700516975476371500,6.934371337890625,0.17612603306770325,0.07315730303525925,0.1324416697025299
1700516975486382600,6.944382568359375,-0.07110799849033356,-0.00569889834150672,-0.3730769157409668
1700516975496392400,6.954392333984375,0.21406835317611694,-0.056410279124975204,0.13887692987918854
1700516975506402600,6.964402587890625,-0.08091215789318085,-0.11979617178440094,-0.23034319281578064
1700516975516412400,6.974412353515625,0.1885688453912735,-0.21890278160572052,-0.22885581851005554
1700516975526423600,6.984423583984375,-0.10707372426986694,-0.4336491823196411,-0.7057557702064514
1700516975536433400,6.994433349609375,0.04518052935600281,0.16222059726715088,-0.05798793584108353
1700516975546443500,7.004443603515625,-0.13090741634368896,-0.42361146211624146,-0.22566428780555725
1700516975556453400,7.014453369140625,-0.11207913607358932,0.0014450311427935958,0.015982162207365036
1700516975566464500,7.024464599609375,-0.0590880885720253,-0.2470095157623291,-0.4435572028160095
1700516975576474400,7.034474365234375,0.0765770673751831,0.3386065363883972,0.31780779361724854
1700516975586484500,7.044484375,-0.11707042902708054,0.08013025671243668,0.5143482685089111
1700516975596494300,7.054494384765625,0.030597589910030365,-0.3628615438938141,0.09267614036798477
1700516975606504400,7.06450439453125,-0.0575847327709198,0.763229489326477,-0.06244766339659691
1700516975616515300,7.074515380859375,0.09225962311029434,-0.4717733860015869,0.27946731448173523
1700516975626525400,7.084525390625,-0.13353808224201202,0.31249743700027466,0.26941177248954773
1700516975636535300,7.094535400390625,-0.036978788673877716,-0.479200154542923,-0.7829096913337708
1700516975646545400,7.10454541015625,-0.019661318510770798,0.24617914855480194,-0.33217740058898926
1700516975656556500,7.114556640625,-0.10327046364545822,-0.6323148608207703,-0.19539453089237213
1700516975666566700,7.124566650390625,-0.026920830830931664,0.36305010318756104,0.18187952041625977
1700516975676576500,7.134576416015625,-0.03808453306555748,-0.5138497352600098,-0.45041483640670776
1700516975686586600,7.144586669921875,-0.011258780024945736,0.5045949816703796,0.1616663932800293
1700516975696597500,7.154597412109375,-0.03636013716459274,-0.20873937010765076,0.137088343501091
1700516975706607600,7.164607666015625,0.054796136915683746,-0.4180411994457245,-0.15004782378673553
1700516975716617500,7.174617431640625,0.03976339101791382,0.8396701812744141,-0.10070370882749557
1700516975726627600,7.184627685546875,0.10769902914762497,-0.37154772877693176,0.6978078484535217
1700516975736638500,7.194638427734375,0.1354459822177887,0.3879309594631195,0.65079265832901
1700516975746645800,7.204645751953125,0.07249976694583893,0.29267260432243347,-0.20488816499710083
1700516975756655600,7.214655517578125,0.10704416036605835,0.1754903346300125,0.3838922679424286
1700516975766665700,7.224665771484375,-0.01811668649315834,0.03853088244795799,0.21995766460895538
1700516975776676600,7.234676513671875,0.19847634434700012,-0.2932100296020508,-0.026250513270497322
1700516975786686700,7.244686767578125,-0.11605816334486008,0.22684326767921448,-0.31851911544799805
1700516975796696600,7.254696533203125,0.00794447585940361,-0.3392680883407593,-0.04495442658662796
1700516975806706700,7.264706787109375,-0.13383236527442932,0.19245199859142303,0.14801742136478424
1700516975816717600,7.274717529296875,-0.05578949674963951,-0.31380534172058105,-0.6145347952842712
1700516975826727700,7.284727783203125,0.023734090849757195,-0.028084898367524147,-0.3629627525806427
1700516975836737500,7.294737548828125,-0.05197398364543915,-0.44063225388526917,-0.38328108191490173
1700516975846747600,7.30474755859375,0.0021912488155066967,0.10495810955762863,-0.09582079946994781
1700516975856758500,7.314758544921875,0.04530330002307892,0.036200881004333496,-0.2530463635921478
1700516975866768600,7.3247685546875,0.13481241464614868,0.12019192427396774,0.19366773962974548
1700516975876778500,7.334778564453125,-0.0036583843175321817,0.33410367369651794,0.5203694105148315
1700516975886788600,7.34478857421875,0.125040203332901,-0.10339482873678207,-0.1854601353406906
1700516975896799500,7.354799560546875,0.1560034453868866,0.6654581427574158,0.09654012322425842
1700516975906809600,7.3648095703125,0.06337737292051315,-0.2921415865421295,0.4190233647823334
1700516975916819500,7.3748193359375,0.16961060464382172,-0.22124050557613373,0.2089793086051941
1700516975926830600,7.38483056640625,-0.01672331988811493,0.38139608502388,-0.5545526742935181
1700516975936840400,7.39484033203125,0.07277140766382217,-0.2715556025505066,-0.18966713547706604
1700516975946850600,7.4048505859375,-0.1264151930809021,-0.016213057562708855,0.19004955887794495
1700516975956860400,7.4148603515625,0.02106613665819168,-0.32107576727867126,-0.25737613439559937
1700516975966871800,7.424871826171875,0.14704696834087372,0.37962454557418823,-0.21965458989143372
1700516975976881700,7.434881591796875,-0.044077713042497635,-0.043358124792575836,0.23270435631275177
1700516975986891800,7.444891845703125,0.02527819201350212,-0.2657797336578369,0.5169991850852966
1700516975996901600,7.454901611328125,0.059063587337732315,0.36427730321884155,-0.14127111434936523
1700516976006912800,7.464912841796875,0.14764165878295898,0.11220137029886246,0.07250908762216568
1700516976016922600,7.474922607421875,-0.007190002128481865,0.09436431527137756,0.4818286895751953
1700516976026932700,7.4849326171875,0.06121302396059036,-0.325055330991745,-0.41961485147476196
1700516976036943600,7.494943603515625,0.11113957315683365,1.0073164701461792,0.2779349386692047
1700516976046953700,7.50495361328125,0.0535026378929615,-0.25032728910446167,0.8179861903190613
1700516976056963600,7.514963623046875,0.13128691911697388,-0.15353550016880035,-0.21244195103645325
1700516976066973700,7.5249736328125,0.032342493534088135,0.5763069987297058,-0.3415810465812683
1700516976076984600,7.534984619140625,-0.008665126748383045,-0.5703684091567993,0.38115188479423523
1700516976086994700,7.54499462890625,0.08174999058246613,-0.21065044403076172,0.1480264812707901
1700516976097004500,7.555004638671875,-0.030244721099734306,0.38570669293403625,-0.639360249042511
1700516976107015700,7.565015625,0.057138387113809586,-0.27652159333229065,0.06698355823755264
1700516976117025500,7.575025634765625,-0.10161051154136658,-0.05079234018921852,0.1586277335882187
1700516976127035600,7.58503564453125,0.05752614513039589,-0.563733696937561,-0.3612665832042694
1700516976137045500,7.59504541015625,0.015144597738981247,0.13742975890636444,-0.5444893836975098
1700516976147056600,7.605056640625,0.05379505455493927,-0.3403131067752838,-0.42561522126197815
1700516976157066500,7.61506640625,-0.017721205949783325,-0.21071037650108337,-0.1463060826063156
1700516976167076600,7.62507666015625,0.03007720783352852,0.16004106402397156,-0.11439448595046997
1700516976177087500,7.63508740234375,0.060741908848285675,0.19500304758548737,0.012651879340410233
1700516976187097600,7.64509765625,0.020496219396591187,0.1138906180858612,-0.012565859593451023
1700516976197107500,7.655107421875,0.0336916521191597,0.2687489092350006,0.18286968767642975
1700516976207117600,7.66511767578125,0.05998477339744568,0.5685425400733948,0.5700557231903076
1700516976217128700,7.675128662109375,0.00006498113361885771,0.6912226676940918,0.9984246492385864
1700516976227138800,7.685138916015625,0.2043169140815735,-0.40661782026290894,0.4365357756614685
1700516976237148400,7.6951484375,-0.01429105456918478,0.782138466835022,-0.28943100571632385
1700516976247159800,7.705159912109375,0.02846413105726242,-0.4720567464828491,0.11006658524274826
1700516976257169700,7.715169677734375,0.04963919147849083,-0.5466718673706055,-0.07691927999258041
1700516976267179800,7.7251796875,-0.015422365628182888,0.28515636920928955,-0.8927389979362488
1700516976277190700,7.735190673828125,0.07330537587404251,-0.21184460818767548,-0.23509027063846588
1700516976287200800,7.74520068359375,-0.03798892721533775,-0.3369514048099518,-0.04597947746515274
1700516976297210600,7.755210693359375,0.05112443491816521,-0.2418065071105957,-0.473292738199234
1700516976307220700,7.765220703125,0.16569842398166656,0.6287422180175781,-0.34917396306991577
1700516976317231600,7.775231689453125,0.11646216362714767,-0.04549451544880867,0.09098690003156662
1700516976327241700,7.78524169921875,0.2083822339773178,0.012586365453898907,0.5099189281463623
1700516976337251600,7.79525146484375,0.06083778291940689,0.8115469217300415,0.25269216299057007
1700516976347262700,7.8052626953125,0.07212425768375397,0.04063690826296806,0.6310501098632812
1700516976357272600,7.8152724609375,0.1335146576166153,0.20211660861968994,0.5818503499031067
1700516976367282700,7.82528271484375,-0.009965282864868641,0.11130228638648987,-0.540273904800415
1700516976377293600,7.83529345703125,-0.04135409742593765,0.028910743072628975,-0.0846075639128685
1700516976387303700,7.8453037109375,-0.1607462763786316,0.1406812220811844,0.5085918307304382
1700516976397313500,7.8553134765625,0.17683762311935425,-0.6728857159614563,-0.2692767381668091
1700516976407323600,7.86532373046875,-0.010527209378778934,0.29127392172813416,-0.6055911183357239
1700516976417334500,7.87533447265625,-0.04718402400612831,-0.5628314018249512,-0.16388054192066193
1700516976427344600,7.8853447265625,-0.024330373853445053,-0.4025522470474243,0.11437131464481354
1700516976437354500,7.8953544921875,0.0019086875254288316,0.0073591130785644054,-0.653322160243988
1700516976447365600,7.90536572265625,0.05778287351131439,0.16729551553726196,-0.5266276001930237
1700516976457375500,7.91537548828125,0.008085623383522034,-0.38452771306037903,-0.3279949128627777
1700516976467385600,7.925385498046875,-0.021622471511363983,0.02774987183511257,-0.11489356309175491
1700516976477396700,7.935396728515625,0.0528232678771019,0.3775044083595276,0.15035994350910187
1700516976487406800,7.94540673828125,0.03867122903466225,-0.05143922194838524,-0.012986105866730213
1700516976497416700,7.955416748046875,0.04159964248538017,-0.0754750519990921,-0.08544299751520157
1700516976507427600,7.965427490234375,0.01798778958618641,0.00732422573491931,-0.4047890305519104
1700516976517437700,7.975437744140625,-0.018576081842184067,-0.20226947963237762,-0.7606568336486816
1700516976527447800,7.98544775390625,-0.03909919783473015,-0.22456200420856476,-0.7669075727462769
1700516976537458700,7.995458740234375,0.05626646801829338,-0.06154432147741318,-0.3288186192512512
1700516976547468500,8.005468505859374,0.06901875138282776,0.292407363653183,0.42444556951522827
1700516976557478700,8.015478759765625,0.06549352407455444,0.1668395847082138,0.6229120492935181
1700516976567489500,8.025489501953125,0.09273047000169754,0.4127905070781708,0.71878582239151
1700516976577499600,8.035499755859375,0.1392311304807663,0.3972192704677582,0.5230645537376404
1700516976587509800,8.045509765625,0.2438797801733017,0.6216249465942383,0.5912052392959595
1700516976597520600,8.055520751953125,0.4528215229511261,-0.16216599941253662,0.5286462903022766
1700516976607530500,8.065530517578125,0.32813793420791626,0.12061722576618195,-0.2746613919734955
1700516976617540600,8.07554052734375,0.028679315000772476,0.09192539751529694,-0.0760180652141571
1700516976627550700,8.08555078125,0.06070515885949135,-0.293634295463562,0.42732974886894226
1700516976637561600,8.0955615234375,0.07873236387968063,-0.5380538702011108,-0.42048755288124084
1700516976647571500,8.105571533203126,0.1641971915960312,0.6607092022895813,-0.37316131591796875
1700516976657581600,8.11558154296875,-0.13995283842086792,-0.42747917771339417,0.1893283873796463
1700516976667592400,8.125592529296876,-0.10352825373411179,-0.6155944466590881,-0.012658004648983479
1700516976677602600,8.1356025390625,0.09864161908626556,0.6434793472290039,-0.3989790678024292
1700516976687612400,8.1456123046875,0.002359560690820217,-0.4877084195613861,-0.2929362654685974
1700516976697623800,8.155623779296874,-0.2573918402194977,-0.32215380668640137,0.03262265771627426
1700516976707633700,8.165633544921874,-0.20950369536876678,-0.309893935918808,-0.29309365153312683
1700516976717643800,8.175643798828125,-0.06117627024650574,0.0007539408979937434,-0.4756421744823456
1700516976727654700,8.185654541015625,-0.08734849095344543,-0.20846585929393768,-0.41046983003616333
1700516976737664800,8.195664794921875,0.002573678968474269,-0.35320600867271423,-0.12795662879943848
1700516976747674000,8.205674072265625,0.05121977627277374,0.11074435710906982,0.35488325357437134
1700516976757685000,8.21568505859375,0.027883563190698624,0.1085219457745552,0.2811294198036194
1700516976767694800,8.22569482421875,0.09864295274019241,-0.012884639203548431,0.22819775342941284
1700516976777705000,8.235705078125,0.06470948457717896,0.40661516785621643,0.08132681250572205
1700516976787715800,8.2457158203125,-0.013971475884318352,0.41191938519477844,0.264164000749588
1700516976797726000,8.255725830078125,0.0015102786710485816,0.7471621036529541,0.8989111185073853
1700516976807735800,8.26573583984375,0.3741368353366852,-0.42048144340515137,0.6154853105545044
1700516976817747000,8.275746826171876,0.19765634834766388,1.0829126834869385,0.3473806083202362
1700516976827756800,8.2857568359375,0.2511153221130371,0.2407393753528595,0.8761551976203918
1700516976837767000,8.295766845703126,0.23415444791316986,-0.24197374284267426,-0.18491019308567047
1700516976847777800,8.30577783203125,0.15876594185829163,0.39728212356567383,-0.39770716428756714
1700516976857788000,8.315787841796874,-0.07018095254898071,-0.4038180410861969,0.08890803158283234
1700516976867797800,8.3257978515625,0.1569661796092987,-0.46030980348587036,-0.059178899973630905
1700516976877809200,8.33580908203125,0.023499999195337296,-0.07955820858478546,-0.5924302935600281
1700516976887818800,8.34581884765625,-0.09197147190570831,-0.3759746849536896,-0.3473068177700043
1700516976897828900,8.355828857421875,-0.20743601024150848,-0.426186203956604,-0.13176655769348145
1700516976907840000,8.365840087890625,-0.03976738452911377,-0.7273934483528137,-0.7531408667564392
1700516976917850000,8.37585009765625,-0.0028573055751621723,0.8591139316558838,0.05113508924841881
1700516976927860000,8.38585986328125,-0.20414301753044128,-0.22016271948814392,0.9321506023406982
1700516976937871000,8.39587109375,0.0267152339220047,-0.3213527202606201,0.5735085606575012
1700516976947881000,8.405880859375,-0.06875589489936829,0.7005242705345154,-0.4633077383041382
1700516976957891000,8.41589111328125,-0.044618066400289536,-0.41331860423088074,-0.09330784529447556
1700516976967902000,8.42590185546875,-0.03983742743730545,-0.10100623965263367,0.3602026402950287
1700516976977912000,8.435912109375,-0.06537181884050369,0.1347988247871399,-0.17656224966049194
1700516976987922000,8.445921875,-0.004786765668541193,0.04198579862713814,0.08865264058113098
1700516976997932800,8.455932861328124,-0.19336360692977905,-0.3059503436088562,-0.0799957662820816
1700516977007943000,8.46594287109375,-0.12894199788570404,-0.5079870820045471,-0.7621815204620361
1700516977017953000,8.475953125,0.0907493457198143,0.4758845269680023,-0.6347519159317017
1700516977027964000,8.4859638671875,0.005380650516599417,-0.2466191053390503,-0.019337745383381844
1700516977037973800,8.495973876953125,-0.16667845845222473,-0.17401361465454102,0.3600122332572937
1700516977047983900,8.50598388671875,-0.032039158046245575,-0.1622440367937088,-0.015976568683981895
1700516977057994800,8.515994873046875,0.06702244281768799,0.17612043023109436,-0.18267500400543213
1700516977068004900,8.5260048828125,0.05691361799836159,-0.07763992995023727,-0.22637560963630676
1700516977078015000,8.536014892578125,0.11593086272478104,-0.3408372104167938,-0.13542068004608154
1700516977088026000,8.546026123046875,0.060876134783029556,-0.10954167693853378,-0.2243630588054657
1700516977098035700,8.55603564453125,0.0006828344776295125,0.5151078104972839,0.04854170233011246
1700516977108045800,8.5660458984375,0.08229487389326096,-0.013964817859232426,0.5009123682975769
1700516977118057000,8.576056884765626,0.19137342274188995,0.16226667165756226,0.3572268486022949
1700516977128067000,8.586067138671876,0.0012934972764924169,0.943382203578949,0.6939345598220825
1700516977138077000,8.596076904296876,0.1770900934934616,-0.037094105035066605,1.0456949472427368
1700516977148088000,8.606088134765624,0.07649291306734085,0.2870216369628906,-0.2632119357585907
1700516977158098000,8.616097900390624,-0.16612133383750916,0.6204531192779541,0.10365129262208939
1700516977168108000,8.62610791015625,-0.006815827917307615,-0.14946778118610382,0.5534980893135071
1700516977178119000,8.636118896484374,0.020362796261906624,-0.0006021407316438854,-0.591094970703125
1700516977188129000,8.64612890625,-0.11274944990873337,0.20536567270755768,-0.326406329870224
1700516977198139000,8.656138916015625,-0.07894674688577652,-0.3480147123336792,0.031018901616334915
1700516977208150000,8.66614990234375,0.009739446453750134,-0.1995149701833725,-0.39308205246925354
1700516977218159900,8.676159912109375,-0.07022489607334137,0.10463985800743103,-0.784976065158844
1700516977228170000,8.686169921875,-0.07249550521373749,-0.018849320709705353,-0.1000877171754837
1700516977238180900,8.696180908203125,-0.034029338508844376,-0.002091380301862955,0.0980653166770935
1700516977248191000,8.70619091796875,0.013606356456875801,-0.32197538018226624,-0.4111041724681854
1700516977258200800,8.716200927734375,0.07151226699352264,-0.08247676491737366,-0.4552660584449768
1700516977268212000,8.7262119140625,-0.015267902053892612,-0.4160001277923584,-0.5988333225250244
1700516977278221800,8.736221923828126,-0.044140297919511795,0.0906987413764,0.02400599978864193
1700516977288232000,8.74623193359375,0.06518113613128662,-0.3646402657032013,0.04607774689793587
1700516977298243000,8.7562431640625,0.09851938486099243,0.24696877598762512,0.2419481873512268
1700516977308253000,8.7662529296875,-0.08793278783559799,0.326965868473053,0.2364269196987152
1700516977318262800,8.7762626953125,0.24110183119773865,0.0449078194797039,0.12829431891441345
1700516977328274000,8.78627392578125,0.18377888202667236,0.8043516278266907,0.720431923866272
1700516977338284000,8.796283935546874,0.13750912249088287,0.3718734383583069,0.874941885471344
1700516977348294100,8.806294189453125,0.35785454511642456,0.010730674490332603,0.053829941898584366
1700516977358305000,8.816304931640625,-0.047516118735075,0.75778728723526,-0.12148568779230118
1700516977368315000,8.82631494140625,0.05107410252094269,-0.2928824722766876,0.6295166611671448
1700516977378325000,8.836324951171875,0.2449737936258316,0.12377946823835373,0.2700658440589905
1700516977388335900,8.8463359375,-0.06948506832122803,0.028727518394589424,-0.4090524911880493
1700516977398346000,8.856345947265625,0.030181603506207466,-0.22964251041412354,-0.20029528439044952
1700516977408355800,8.86635595703125,-0.11950242519378662,-0.005684250965714455,-0.2480529546737671
1700516977418367000,8.876366943359375,-0.008048871532082558,-0.6397290825843811,-0.43390482664108276
1700516977428376800,8.886376953125,-0.04291151463985443,-0.2593684494495392,-0.4825834333896637
1700516977438387000,8.896386962890626,-0.18712088465690613,-0.26585057377815247,-0.5106217265129089
1700516977448397800,8.906397705078126,-0.1891784518957138,-0.004546815063804388,0.07645562291145325
1700516977458408000,8.916407958984376,-0.0020594224333763123,-0.5811709761619568,-0.22290870547294617
1700516977468417800,8.926417724609376,0.05739831179380417,0.8123472332954407,0.2337227463722229
1700516977478429000,8.936428955078124,-0.13411732017993927,0.44319313764572144,0.9971572756767273
1700516977488438800,8.946438720703124,0.11807470768690109,-0.2989584803581238,0.336600661277771
1700516977498449000,8.956448974609375,0.0073447320610284805,1.0000712871551514,0.3507747948169708
1700516977508460000,8.9664599609375,0.08376893401145935,-0.5238544344902039,0.7094938158988953
1700516977518470100,8.97647021484375,0.11137552559375763,-0.006299441214650869,-0.23424924910068512
1700516977528479700,8.986479736328125,-0.03677346184849739,-0.09883496910333633,-0.19279395043849945
1700516977538491100,8.9964912109375,0.045161351561546326,-0.26085981726646423,0.38367149233818054
1700516977548501000,9.0065009765625,0.023150859400629997,0.20301729440689087,0.3071011006832123
1700516977558511000,9.016510986328125,0.12446016818284988,-0.11545362323522568,-0.4992481470108032
1700516977568522000,9.02652197265625,0.13599884510040283,-0.008559665642678738,-0.009051552042365074
1700516977578532000,9.036531982421875,0.03039652109146118,0.35853978991508484,0.5642213225364685
1700516977588542000,9.0465419921875,0.23937876522541046,-0.3722071051597595,0.21548594534397125
1700516977598552800,9.056552734375,-0.06292969733476639,0.2535236179828644,-0.5528013706207275
1700516977608563000,9.06656298828125,-0.14559981226921082,-0.27591708302497864,-0.007819839753210545
1700516977618573000,9.076572998046874,0.010244115255773067,0.01022440753877163,0.12666712701320648
1700516977628584000,9.086583984375,-0.06305886059999466,0.1522156298160553,-0.341124027967453
1700516977638593800,9.09659375,-0.11494363099336624,0.04679813235998154,0.2600789964199066
1700516977648604000,9.10660400390625,-0.1344693899154663,0.024417458102107048,0.1530848890542984
1700516977658614800,9.11661474609375,-0.13452239334583282,-0.26917606592178345,-0.21659116446971893
1700516977668625000,9.126625,-0.06613054871559143,-0.0895429328083992,-0.16001923382282257
1700516977678635000,9.136635009765625,-0.09748900681734085,-0.25011715292930603,-0.02678341045975685
1700516977688646000,9.14664599609375,-0.10473253577947617,-0.12804318964481354,0.01876702904701233
1700516977698655700,9.15665576171875,-0.061410628259181976,-0.47768402099609375,-0.8418065905570984
1700516977708665900,9.166665771484375,-0.018505508080124855,-0.037337251007556915,-0.73179030418396
1700516977718677000,9.176677001953125,-0.04857765510678291,-0.1930277794599533,-0.14917297661304474
1700516977728687000,9.18668701171875,-0.05470798537135124,-0.3238414525985718,0.04562074691057205
1700516977738696700,9.19669677734375,0.07948683947324753,0.200167715549469,-0.47327515482902527
1700516977748708400,9.206708251953126,0.05381716042757034,0.4631088078022003,0.35791659355163574
1700516977758718200,9.21671826171875,0.014608769677579403,-0.11688587069511414,0.8196525573730469
1700516977768728300,9.226728271484374,-0.017616810277104378,0.5176894664764404,0.1581488847732544
1700516977778739200,9.2367392578125,0.06161675974726677,0.3490147292613983,0.41745316982269287
1700516977788749300,9.246749267578124,-0.16808487474918365,0.29707640409469604,0.5571183562278748
1700516977798759200,9.25675927734375,-0.030343791469931602,-0.39172303676605225,-0.2525118887424469
1700516977808770300,9.266770263671875,-0.11533298343420029,0.08051108568906784,-0.45891273021698
1700516977818780200,9.2767802734375,-0.1480587124824524,-0.12902909517288208,0.23267611861228943
1700516977828790300,9.286790283203125,0.006795055698603392,-0.27194681763648987,0.28507569432258606
1700516977838801200,9.29680126953125,-0.11875247955322266,0.45300155878067017,-0.47285357117652893
1700516977848811300,9.306811279296875,-0.05776769295334816,-0.23351821303367615,0.271785706281662
1700516977858821000,9.316821044921875,-0.06831301003694534,0.4855818748474121,0.17275552451610565
1700516977868832000,9.32683203125,0.0178154818713665,-0.10403744876384735,-0.2101612240076065
1700516977878842000,9.336842041015625,-0.04078977555036545,0.18117085099220276,-0.14503814280033112
1700516977888852200,9.346852294921876,-0.11188605427742004,-0.03633590415120125,-0.14868508279323578
1700516977898863000,9.356863037109376,-0.035774242132902145,-0.36493614315986633,-0.2653619050979614
1700516977908873000,9.366873046875,-0.13717196881771088,-0.05331089347600937,-0.8510328531265259
1700516977918883000,9.376883056640626,-0.1743483692407608,0.027530161663889885,-0.29056045413017273
1700516977928894000,9.38689404296875,-0.25173476338386536,-0.19021521508693695,-0.055988166481256485
1700516977938904000,9.396904052734374,-0.1816432923078537,-0.0593770407140255,-0.27954694628715515
1700516977948914200,9.4069140625,0.06810262054204941,-0.34688445925712585,-0.6185036897659302
1700516977958925300,9.41692529296875,-0.0212448351085186,0.23446549475193024,-0.43369418382644653
1700516977968935200,9.42693505859375,-0.0733029767870903,-0.11316943168640137,-0.17163673043251038
1700516977978945300,9.4369453125,-0.026819629594683647,-0.2732922434806824,-0.09560827910900116
1700516977988956200,9.4469560546875,-0.009939183481037617,0.26070961356163025,-0.1024845615029335
1700516977998966300,9.45696630859375,-0.07217539101839066,0.2238384187221527,-0.3169931471347809
1700516978008976100,9.46697607421875,-0.09782083332538605,0.3033633530139923,-0.33656683564186096
1700516978018987300,9.4769873046875,-0.006024869158864021,-0.9728127717971802,-0.40394267439842224
1700516978028997000,9.4869970703125,-0.1377434879541397,0.6682118773460388,-0.4073648452758789
1700516978039007200,9.49700732421875,-0.07171626389026642,1.0298819541931152,0.5369968414306641
1700516978049018000,9.50701806640625,0.14872902631759644,-0.5143440365791321,0.8873817920684814
1700516978059028200,9.5170283203125,0.1701677292585373,1.0245475769042969,1.039638638496399
1700516978069038000,9.5270380859375,0.0596444234251976,0.4915076792240143,1.134825348854065
1700516978079049200,9.53704931640625,0.14062875509262085,-0.0005347627447918057,-0.042281411588191986
1700516978089059000,9.54705908203125,-0.027545873075723648,0.22889123857021332,0.18773634731769562
1700516978099069200,9.557069091796874,0.05518389493227005,0.18970414996147156,0.38744813203811646
1700516978109080000,9.567080078125,0.237002432346344,-0.1195884495973587,-0.25474733114242554
1700516978119090200,9.577090087890625,-0.16467896103858948,0.01792866736650467,-0.481968492269516
1700516978129100000,9.58710009765625,-0.0022951122373342514,2.5345921516418457,-1.779252290725708
1700516978139111200,9.597111083984375,-0.06802592426538467,-2.870605707168579,0.13660897314548492
1700516978149121000,9.60712109375,-0.10056336224079132,0.5396264791488647,0.36242079734802246
1700516978159131100,9.617131103515625,-0.14150653779506683,0.12357493489980698,0.7627226710319519
1700516978169142300,9.627142333984375,-0.2666540741920471,-0.252206951379776,0.44759616255760193
1700516978179152100,9.637152099609375,-0.26902294158935547,-0.3580628037452698,-0.14217977225780487
1700516978189162200,9.647162353515625,-0.023845944553613663,-0.5076277852058411,-0.7786739468574524
1700516978199173000,9.657173095703126,-0.17340347170829773,0.7572043538093567,0.07231894135475159
1700516978209183200,9.667183349609376,-0.21387900412082672,-0.47106605768203735,0.6881879568099976
1700516978219193300,9.677193359375,-0.01678697019815445,0.19049032032489777,0.3445478081703186
1700516978229204200,9.687204345703124,0.07422682642936707,0.516372561454773,0.4367360472679138
1700516978239214000,9.697214111328124,-0.01956091821193695,0.07336822152137756,0.3478139042854309
1700516978249224200,9.70722412109375,0.1351519674062729,-0.21187284588813782,-0.27873310446739197
1700516978259235000,9.717235107421875,0.048655953258275986,0.5820514559745789,-0.356669157743454
1700516978269245200,9.7272451171875,-0.025726402178406715,-0.0971561074256897,0.5275524854660034
1700516978279255000,9.737255126953125,0.1310940980911255,0.3450937569141388,0.6778546571731567
1700516978289266200,9.74726611328125,0.010272610932588577,0.1819373071193695,0.1566426008939743
1700516978299276000,9.757276123046875,0.03886590525507927,0.006186789367347956,0.121891550719738
1700516978309286100,9.7672861328125,-0.13025067746639252,0.46949613094329834,0.2531142830848694
1700516978319296000,9.7772958984375,0.05676447972655296,-0.5446745157241821,0.02503770962357521
1700516978329307100,9.78730712890625,-0.140785351395607,0.258894681930542,-0.10210985690355301
1700516978339317000,9.79731689453125,-0.059351205825805664,-0.343622088432312,0.10618049651384354
1700516978349327000,9.8073271484375,-0.06410787999629974,-0.205250084400177,0.04910629242658615
1700516978359338000,9.817337890625,-0.1698273867368698,0.029736056923866272,-0.5325512290000916
1700516978369348000,9.82734814453125,-0.08447014540433884,-0.24096360802650452,-0.3157619535923004
1700516978379358000,9.83735791015625,-0.23405350744724274,-0.24531841278076172,-0.5863654613494873
1700516978389369300,9.847369384765624,-0.24148479104042053,-0.480806827545166,-0.7784209251403809
1700516978399379200,9.857379150390624,-0.03459100052714348,-0.008887767791748047,-0.9118745923042297
1700516978409389300,9.867389404296874,-0.09944988787174225,0.0008969526388682425,-0.3277760148048401
1700516978419400200,9.877400146484375,-0.3508853316307068,-0.21564599871635437,0.16333699226379395
1700516978429410300,9.887410400390625,-0.1452527940273285,-0.35499271750450134,-0.14673484861850739
1700516978439420200,9.897420166015625,0.10273436456918716,0.7294049263000488,-0.5033398270606995
1700516978449431300,9.907431396484375,0.04572088271379471,0.7051964998245239,0.17690420150756836
1700516978459441200,9.917441162109375,0.012834305875003338,-0.06891648471355438,0.506438136100769
1700516978469451300,9.927451171875,0.04032079130411148,0.7199879884719849,0.32594987750053406
1700516978479462100,9.937462158203125,-0.0464916005730629,0.1597132384777069,0.7032755613327026
1700516978489472300,9.94747216796875,0.06725919991731644,0.012800483964383602,0.5744467973709106
1700516978499482000,9.957482177734375,-0.005289570428431034,0.38604065775871277,-0.16533063352108002
1700516978509493000,9.967492919921876,-0.019766246899962425,-0.19605526328086853,0.2700037956237793
1700516978519503000,9.977503173828126,-0.031140075996518135,0.47720038890838623,0.37516215443611145
1700516978529513200,9.98751318359375,0.06746106594800949,-0.3731738328933716,-0.07336316257715225
1700516978539524000,9.997524169921874,-0.05591599643230438,0.29753315448760986,-0.2278296947479248
1700516978549534200,10.0075341796875,-0.05150952935218811,-0.323565810918808,0.027054253965616226
1700516978559544000,10.0175439453125,0.11944303661584854,-0.18708546459674835,-0.07757148891687393
1700516978569554200,10.02755419921875,-0.023369504138827324,0.3434481620788574,-0.13047145307064056
1700516978579565000,10.03756494140625,-0.02203552797436714,0.0816061794757843,0.4448530972003937
1700516978589575200,10.0475751953125,-0.07192026078701019,0.45920833945274353,0.3363196849822998
1700516978599585000,10.0575849609375,0.08688749372959137,-0.3465118706226349,-0.4480305016040802
1700516978609596200,10.06759619140625,-0.13938452303409576,0.1454506665468216,-0.4785601794719696
1700516978619606300,10.077606201171875,-0.10461855679750443,-0.22468051314353943,-0.17781393229961395
1700516978629616000,10.0876162109375,-0.023384684696793556,-0.23529720306396484,0.08768990635871887
1700516978639627300,10.097627197265625,-0.11581208556890488,0.14604641497135162,-0.2293921709060669
1700516978649637000,10.10763720703125,-0.03427781164646149,0.03870478644967079,0.16758286952972412
1700516978659647200,10.117647216796875,-0.06676997244358063,0.21631605923175812,0.38698527216911316
1700516978669658000,10.127658203125,0.027589017525315285,-0.2352745682001114,-0.0748172476887703
1700516978679668200,10.137668212890626,0.12308784574270248,0.6670653820037842,0.18824979662895203
1700516978689678000,10.147677978515626,0.08692903816699982,-0.04055887833237648,0.7138025164604187
1700516978699689200,10.157689208984374,0.29602712392807007,0.2752313017845154,0.6051546335220337
1700516978709699000,10.167698974609374,0.0012988236267119646,0.3595147728919983,0.13789421319961548
1700516978719709200,10.177709228515624,0.08544166386127472,-0.23924747109413147,0.1127326712012291
1700516978729719000,10.187718994140624,0.02311677113175392,0.5072054266929626,0.05422515422105789
1700516978739730200,10.197730224609375,0.1891784518957138,-0.17151476442813873,-0.30848780274391174
1700516978749740500,10.207740478515625,-0.042880356311798096,0.22870054841041565,-0.025070998817682266
1700516978759750700,10.217750732421875,-0.007193197961896658,-0.17017412185668945,-0.09864508360624313
1700516978769761500,10.227761474609375,0.1329585760831833,-0.1066654622554779,-0.5723149180412292
1700516978779771600,10.237771728515625,-0.07336316257715225,-0.05837222933769226,-0.5095500349998474
1700516978789781500,10.247781494140625,-0.04132586717605591,0.038653384894132614,0.017190704122185707
1700516978799792600,10.257792724609375,-0.2067182958126068,-0.013550962321460247,0.3637193441390991
1700516978809802500,10.267802490234375,-0.006872819736599922,-0.6183388829231262,-0.4532180726528168
1700516978819812600,10.2778125,-0.015065236017107964,0.5730395317077637,-0.12124147266149521
1700516978829823500,10.287823486328126,-0.0772460550069809,-0.43211492896080017,0.28918999433517456
1700516978839833600,10.29783349609375,0.0445147380232811,-0.1942746639251709,0.11371617764234543
1700516978849843500,10.307843505859376,0.013577328063547611,0.4229973256587982,-0.04723462462425232
1700516978859854300,10.317854248046874,0.039136484265327454,-0.22939430177211761,0.3870827257633209
1700516978869864400,10.327864501953124,-0.009719472378492355,0.3960972726345062,0.5366994142532349
1700516978879874600,10.33787451171875,0.11052917689085007,-0.09595023095607758,-0.3852797746658325
1700516978889884400,10.347884521484374,0.018012821674346924,0.350237101316452,-0.20010033249855042
1700516978899895600,10.3578955078125,0.017908692359924316,-0.12266387045383453,-0.11143278330564499
1700516978909905400,10.367905517578125,0.14925925433635712,-0.14399099349975586,-0.3199614882469177
1700516978919915500,10.37791552734375,0.00020000340009573847,0.049488987773656845,-0.3789731562137604
1700516978929926400,10.387926513671875,0.004893025849014521,0.08670613169670105,-0.1181519404053688
1700516978939936500,10.3979365234375,-0.029143238440155983,-0.06962008774280548,0.18021105229854584
1700516978949946400,10.4079462890625,0.030117955058813095,-0.24825827777385712,-0.43770915269851685
1700516978959957500,10.41795751953125,0.06791380047798157,0.46209093928337097,-0.10337858647108078
1700516978969967600,10.427967529296875,0.024991901591420174,-0.1463412344455719,0.262784481048584
1700516978979977700,10.437977783203126,0.10809504240751266,-0.25501206517219543,0.0688810646533966
1700516978989987600,10.447987548828126,0.042087532579898834,0.3840792179107666,-0.02479722537100315
1700516978999998500,10.45799853515625,0.006718622520565987,-0.3273419141769409,0.46670088171958923
1700516979010008600,10.468008544921876,0.022836873307824135,0.32105791568756104,0.365365207195282
1700516979020018700,10.478018798828124,0.09002949297428131,0.05163975805044174,-0.1523922085762024
1700516979030029600,10.488029541015624,0.032340098172426224,0.10055457055568695,0.318410187959671
1700516979040039400,10.498039306640624,0.04650438576936722,0.3136093318462372,0.38330450654029846
1700516979050049500,10.508049560546874,0.18860027194023132,-0.35324808955192566,0.2465416043996811
1700516979060060400,10.518060302734375,-0.007813448086380959,0.37792760133743286,-0.2835230529308319
1700516979070070500,10.528070556640625,0.026146648451685905,-0.4785418212413788,-0.05498042702674866
1700516979080080400,10.538080322265625,-0.003916711080819368,0.1709243357181549,-0.14680249989032745
1700516979090091500,10.548091552734375,-0.0487225316464901,-0.3137770891189575,-0.4188252091407776
1700516979100101400,10.558101318359375,0.009734120219945908,0.13725905120372772,-0.1516672819852829
1700516979110111500,10.568111572265625,-0.12822215259075165,-0.331111878156662,-0.034452781081199646
1700516979120121600,10.57812158203125,0.02051033452153206,-0.6673039793968201,-0.5269684791564941
1700516979130132500,10.588132568359375,-0.06681551784276962,0.14141252636909485,-0.5377092361450195
1700516979140142300,10.598142333984375,0.0007970841252245009,-0.28799477219581604,0.05133722350001335
1700516979150152400,10.60815234375,-0.12456057220697403,0.06306365132331848,0.4783759117126465
1700516979160163300,10.618163330078126,0.047394413501024246,-0.28210943937301636,-0.3322650194168091
1700516979170173400,10.62817333984375,0.08741879463195801,0.9179732203483582,0.1578010767698288
1700516979180183300,10.638183349609376,0.0546448677778244,-0.00866406224668026,0.6203932166099548
1700516979190194700,10.648194580078124,0.2959672212600708,0.23323911428451538,0.5196333527565002
1700516979200204500,10.65820458984375,0.060380253940820694,0.5948631167411804,0.28068092465400696
1700516979210214700,10.668214599609374,0.06437792629003525,-0.288413941860199,0.4255475699901581
1700516979220224500,10.678224609375,0.10690008103847504,0.20470547676086426,0.41037580370903015
1700516979230235600,10.688235595703125,0.018519354984164238,-0.04152160882949829,-0.4764501750469208
1700516979240245500,10.69824560546875,0.027901139110326767,-0.1247512549161911,-0.03753352537751198
1700516979250255600,10.708255615234375,0.03979428485035896,0.14414386451244354,0.057678475975990295
1700516979260266500,10.7182666015625,0.10989001393318176,-0.678581178188324,-0.43668732047080994
1700516979270276600,10.728276611328125,-0.040472060441970825,-0.06195870786905289,-0.6986352801322937
1700516979280286500,10.738286376953125,-0.0742071196436882,-0.360435426235199,-0.43580713868141174
1700516979290297600,10.748297607421875,-0.10673310607671738,-0.3298945426940918,0.014337128028273582
1700516979300307500,10.758307373046875,-0.058888617902994156,-0.5256875157356262,-0.6725733280181885
1700516979310317600,10.768317626953126,0.043416980654001236,0.46466702222824097,-0.21826548874378204
1700516979320327400,10.778327392578126,-0.027708860114216805,-0.23102974891662598,0.07286648452281952
1700516979330338600,10.788338623046876,-0.09804187715053558,-0.3547000288963318,0.23252885043621063
1700516979340348400,10.798348388671876,-0.005387841258198023,0.3114050328731537,-0.5206466317176819
1700516979350358500,10.808358642578124,-0.025002555921673775,0.09831618517637253,0.2658977210521698
1700516979360369400,10.818369384765624,-0.10874778777360916,-0.3259786367416382,0.459139347076416
1700516979370379500,10.828379638671874,0.01787327229976654,0.06078612059354782,-0.39334890246391296
1700516979380389400,10.838389404296874,0.034096717834472656,0.5474252700805664,0.008590025827288628
1700516979390400500,10.848400390625,-0.013949637301266193,-0.4768773317337036,0.2589591145515442
1700516979400410400,10.858410400390625,0.12139301002025604,-0.5197619795799255,-0.3341188430786133
1700516979410420500,10.86842041015625,0.0899922102689743,0.6635705232620239,-0.5962234139442444
1700516979420430300,10.878430419921875,0.07287181168794632,0.19455882906913757,-0.17551030218601227
1700516979430441700,10.888441650390625,0.11353721469640732,-0.12129287421703339,0.40210428833961487
1700516979440451600,10.89845166015625,0.010271013714373112,-0.26633208990097046,-0.4144722819328308
1700516979450461700,10.908461669921875,-0.03422242030501366,0.6731643080711365,-0.16250768303871155
1700516979460472600,10.91847265625,-0.06998573988676071,-0.048232242465019226,0.10446275770664215
1700516979470482700,10.928482666015626,0.03603523224592209,-0.4418756663799286,-0.12783120572566986
1700516979480492500,10.938492431640626,0.007090932689607143,0.362488716840744,-0.1739845722913742
1700516979490502700,10.948502685546876,-0.08631092309951782,-0.12815450131893158,0.20884642004966736
1700516979500513500,10.958513427734376,-0.0545620433986187,-0.1701994240283966,0.516742467880249
1700516979510523600,10.968523681640624,-0.00005273058923194185,0.10105924308300018,-0.18672087788581848
1700516979520533500,10.978533447265624,0.021973742172122,0.28167030215263367,0.07647320628166199
1700516979530544600,10.988544677734374,0.03779664635658264,-0.12969647347927094,0.3216443359851837
1700516979540554500,10.998554443359374,0.15802878141403198,-0.25572818517684937,-0.09422823041677475
1700516979550564600,11.008564697265625,0.04682715982198715,0.32762473821640015,-0.11964064836502075
1700516979560575500,11.018575439453125,0.009665942750871181,-0.45968371629714966,-0.023389212787151337
1700516979570585600,11.028585693359375,0.08196384459733963,0.014336861670017242,-0.1895611435174942
1700516979580595500,11.038595458984375,0.06819556653499603,0.14701740443706512,-0.3419027328491211
1700516979590605600,11.04860546875,0.043475039303302765,0.14490924775600433,-0.028691565617918968
1700516979600616400,11.058616455078125,-0.07107976824045181,0.10114286094903946,0.02960982359945774
1700516979610626600,11.06862646484375,-0.05981353297829628,-0.38956746459007263,-0.06418164819478989
1700516979620636400,11.078636474609375,0.00797563511878252,-0.09182712435722351,-0.9212595820426941
1700516979630647300,11.088647216796875,-0.016684437170624733,0.08723130822181702,0.06632682681083679
1700516979640657400,11.098657470703126,-0.10392852872610092,-0.5042903423309326,0.35169970989227295
1700516979650667500,11.10866748046875,0.044082771986722946,-0.06208920478820801,-0.23934361338615417
1700516979660677400,11.118677490234376,0.028267856687307358,0.46342703700065613,0.36738866567611694
1700516979670688500,11.1286884765625,-0.005088767968118191,-0.19858978688716888,0.5866422057151794
1700516979680698600,11.13869873046875,0.07291548699140549,0.15197302401065826,-0.027235882356762886
1700516979690708500,11.14870849609375,0.12400210648775101,0.44817912578582764,0.187560573220253
1700516979700719600,11.1587197265625,0.0331084169447422,0.04201669245958328,0.46500444412231445
1700516979710729500,11.1687294921875,0.21873554587364197,-0.3886183202266693,0.14779771864414215
1700516979720739600,11.178739501953125,0.007415572181344032,0.3517806828022003,-0.42400452494621277
1700516979730749700,11.188749755859375,-0.11130042374134064,-0.019643476232886314,-0.14075258374214172
1700516979740760600,11.198760498046875,-0.0937267616391182,-0.4923010468482971,-0.02207787148654461
1700516979750769700,11.208769775390625,-0.015781359747052193,-0.32391735911369324,-0.6526638269424438
1700516979760779500,11.218779541015625,-0.09269797801971436,0.393875390291214,-0.5859079360961914
1700516979770790700,11.228790771484375,-0.06339628249406815,-0.42480480670928955,-0.127450630068779
1700516979780800500,11.238800537109375,-0.12049179524183273,-0.4547067880630493,0.09093017131090164
1700516979790810600,11.248810546875,0.004236822947859764,0.04920323193073273,0.10971184819936752
1700516979800821500,11.258821533203125,0.16394685208797455,0.2633754312992096,-0.13329334557056427
1700516979810831600,11.26883154296875,-0.015303322114050388,-0.5004801154136658,-0.3077453076839447
1700516979820841500,11.278841552734375,-0.019945211708545685,-0.2841121554374695,-0.20098157227039337
1700516979830851600,11.2888515625,0.07749558985233307,0.3333550691604614,-0.07972519099712372
1700516979840862700,11.29886279296875,-0.05483262240886688,0.3976227343082428,-0.44748881459236145
1700516979850872800,11.308872802734374,0.05919035151600838,-0.5777530670166016,-0.36931145191192627
1700516979860882400,11.31888232421875,0.06921129673719406,0.30110231041908264,-0.1865467131137848
1700516979870893800,11.328893798828124,0.04340153560042381,0.4346494674682617,0.09375152736902237
1700516979880903700,11.338903564453124,0.0183505117893219,-0.08670000731945038,0.2650654911994934
1700516979890913800,11.348913818359375,0.11463523656129837,0.092078797519207,0.4630699157714844
1700516979900923600,11.358923583984375,0.14320829510688782,0.16774718463420868,0.7629777789115906
1700516979910934800,11.368934814453125,-0.06899957358837128,-0.17736946046352386,0.5620604157447815
1700516979920944600,11.378944580078125,-0.12847594916820526,-0.34018367528915405,0.3982056975364685
1700516979930954800,11.388954833984375,0.013205550611019135,0.06415767967700958,-0.36855247616767883
1700516979940965600,11.398965576171875,0.009248625487089157,-0.13803483545780182,-0.7058995962142944
1700516979950975700,11.408975830078125,-0.049851980060338974,-0.27015984058380127,-0.5202000737190247
1700516979960985600,11.418985595703125,-0.015334481373429298,-0.2462979257106781,-0.21823886036872864
1700516979970995700,11.42899560546875,-0.027654264122247696,0.7622992396354675,0.10418472439050674
1700516979981006600,11.439006591796876,-0.1318323314189911,-0.11542726308107376,0.22396571934223175
1700516979991016700,11.4490166015625,-0.009401490911841393,-0.19557030498981476,0.1054513230919838
1700516980001026600,11.459026611328126,0.12101457267999649,0.5546592473983765,-0.25688105821609497
1700516980011037700,11.46903759765625,0.018644258379936218,-0.17984139919281006,-0.24739114940166473
1700516980021047600,11.479047607421874,-0.055328767746686935,-0.21551577746868134,-0.05673651769757271
1700516980031057700,11.4890576171875,0.054181214421987534,0.35547366738319397,-0.025051290169358253
1700516980041067500,11.499067626953124,0.14750397205352783,0.02466539852321148,-0.16355697810649872
1700516980051078700,11.50907861328125,0.04878085479140282,-0.13552480936050415,-0.09614703804254532
1700516980061088500,11.519088623046875,0.04380766674876213,0.11396384984254837,-0.01709403283894062
1700516980071098600,11.5290986328125,0.12639202177524567,0.13753601908683777,0.2378634214401245
1700516980081109500,11.539109619140625,-0.13346271216869354,-0.09368201345205307,0.36004820466041565
1700516980091119600,11.54911962890625,-0.13246163725852966,-0.1936432421207428,0.3683311641216278
1700516980101129500,11.55912939453125,0.15576216578483582,0.41176411509513855,-0.15902240574359894
1700516980111139600,11.5691396484375,0.049976613372564316,-0.015206117182970047,-0.38881751894950867
1700516980121150700,11.579150634765625,-0.12144866585731506,-0.07800079137086868,-0.16479294002056122
1700516980131160800,11.589160888671875,-0.03700169175863266,0.2540850043296814,0.046669233590364456
1700516980141170700,11.599170654296875,0.07658079266548157,0.12113042175769806,0.13905668258666992
1700516980151180800,11.609180908203125,-0.0222693532705307,-0.1717163622379303,0.10819917172193527
1700516980161191700,11.619191650390626,0.01774810440838337,0.057072874158620834,-0.06586423516273499
1700516980171201800,11.629201904296876,0.13392823934555054,0.043831635266542435,-0.007811850402504206
1700516980181211600,11.639211669921876,-0.1203269436955452,-0.16994643211364746,0.07582072913646698
1700516980191222800,11.649222900390624,-0.12551051378250122,-0.2939698398113251,0.05269117280840874
1700516980201232600,11.659232666015624,0.11521553993225098,0.16392529010772705,-0.17707091569900513
1700516980211242800,11.66924267578125,0.023807061836123466,0.06567088514566422,-0.11251509189605713
1700516980221252600,11.679252685546874,-0.12612783908843994,0.01979261264204979,0.06781180202960968
1700516980231263700,11.689263671875,-0.018384866416454315,-0.09237786382436752,0.1508377194404602
1700516980241273600,11.699273681640625,0.0521598719060421,0.33759161829948425,-0.0344325415790081
1700516980251283700,11.70928369140625,-0.044144291430711746,0.06517953425645828,-0.03151531517505646
1700516980261294600,11.719294677734375,-0.051356665790081024,-0.3076536953449249,-0.1563486009836197
1700516980271304700,11.7293046875,0.056767407804727554,0.3497265875339508,-0.4432685077190399
1700516980281314600,11.739314453125,-0.14677320420742035,0.04571635648608208,-0.30403125286102295
1700516980291324700,11.74932470703125,-0.06692736595869064,-0.15681570768356323,0.23116983473300934
1700516980301335600,11.75933544921875,0.08569493144750595,-0.10029464215040207,0.572493314743042
1700516980311345700,11.769345703125,-0.003964648116379976,0.5785078406333923,0.7897947430610657
1700516980321355500,11.77935546875,0.07813448458909988,-0.5419002771377563,0.5915586352348328
1700516980331366700,11.78936669921875,0.04886500909924507,-0.20377123355865479,-0.2663038671016693
1700516980341376500,11.79937646484375,-0.22348688542842865,0.2164018154144287,-0.7922496795654297
1700516980351386600,11.80938671875,-0.09716436266899109,-0.12296746671199799,-0.47765764594078064
1700516980361396500,11.819396484375,-0.04233946651220322,-0.24419455230236053,-0.4561784565448761
1700516980371408000,11.829407958984374,-0.024395620450377464,0.5252499580383301,-0.013668674044311047
1700516980381417700,11.839417724609374,-0.14812767505645752,0.14871251583099365,0.7393670082092285
1700516980391427800,11.849427734375,0.021277058869600296,-0.576156497001648,0.5346711277961731
1700516980401437400,11.8594375,0.03737320378422737,0.4591473340988159,0.01215466670691967
1700516980411448800,11.86944873046875,-0.23888634145259857,0.4383310079574585,0.10987190902233124
1700516980421458700,11.879458740234375,0.006896255537867546,-0.8228312730789185,0.15204599499702454
1700516980431468800,11.88946875,0.12428093701601028,0.6911107897758484,0.07132025063037872
1700516980441479700,11.899479736328125,0.031014641746878624,0.26591211557388306,0.45475658774375916
1700516980451489800,11.90948974609375,0.26908445358276367,-0.7846647500991821,0.4483271837234497
1700516980461499600,11.919499755859375,0.1272362470626831,0.31990209221839905,-0.26874038577079773
1700516980471509800,11.929509765625,-0.09633665531873703,0.17647570371627808,-0.16362568736076355
1700516980481520600,11.939520751953125,-0.11630424112081528,-0.5052959322929382,0.004797950852662325
1700516980491530800,11.94953076171875,-0.0633733794093132,-0.2603130638599396,-0.51479572057724
1700516980501540600,11.95954052734375,0.04855102300643921,0.44915515184402466,-0.372426301240921
1700516980511550700,11.96955078125,-0.16351835429668427,-0.29623138904571533,-0.15465642511844635
1700516980521561600,11.9795615234375,-0.035111647099256516,-0.44659215211868286,0.05311834439635277
1700516980531571700,11.98957177734375,0.08441794663667679,0.21245047450065613,-0.23941604793071747
1700516980541581600,11.99958154296875,-0.08543873578310013,0.15712383389472961,-0.20965442061424255
1700516980551592700,12.0095927734375,0.052895437926054,-0.17446421086788177,0.32474851608276367
1700516980561602600,12.0196025390625,0.25103649497032166,0.2759021520614624,0.16141632199287415
1700516980571612700,12.02961279296875,-0.09034773707389832,0.5312633514404297,0.45696353912353516
1700516980581622500,12.03962255859375,0.20609857141971588,-0.36774659156799316,0.615151584148407
1700516980591633700,12.049633544921875,0.13550110161304474,0.02129516936838627,-0.20050141215324402
1700516980601643500,12.0596435546875,-0.10988016426563263,0.21163980662822723,-0.2109532505273819
1700516980611653600,12.069653564453125,-0.04722769930958748,-0.4991147220134735,-0.047028761357069016
1700516980621663500,12.07966357421875,-0.07655416429042816,-0.6878446936607361,-0.6164115071296692
1700516980631674600,12.089674560546875,-0.06637928634881973,0.2978098392486572,-0.6921669840812683
1700516980641684500,12.0996845703125,-0.11301150918006897,-0.3706968426704407,-0.38237321376800537
1700516980651694600,12.109694580078125,-0.08608908206224442,-0.3350144624710083,-0.1318696141242981
1700516980661705700,12.119705810546876,0.06107187643647194,0.4619375467300415,-0.04771425947546959
1700516980671715800,12.1297158203125,0.052557751536369324,0.16241741180419922,0.04138152673840523
1700516980681725700,12.1397255859375,-0.03007827326655388,-0.10329922288656235,0.12131843715906143
1700516980691735800,12.14973583984375,0.01792946644127369,-0.3371543288230896,0.12342153489589691
1700516980701746700,12.15974658203125,0.04218447208404541,0.3022956848144531,-0.1753968596458435
1700516980711756800,12.1697568359375,-0.13711844384670258,0.02959384396672249,-0.3456612527370453
