time,seconds_elapsed,z,y,x
1700515531949964800,0.01596484375,-1.5743560791015625,0.2270965576171875,0.0567474365234375
1700515531959974700,0.025974609375,-1.1504974365234375,0.1228790283203125,-0.001983642578125
1700515531969984800,0.03598486328125,-0.4141082763671875,-0.480255126953125,0.029632568359375
1700515531979995000,0.045994873046875,-0.9350738525390625,-0.1585235595703125,-0.0422515869140625
1700515531990004700,0.056004638671875,-1.5329742431640625,0.217376708984375,0.0187225341796875
1700515532000014800,0.066014892578125,-1.0384521484375,0.07635498046875,0.0560302734375
1700515532010024700,0.076024658203125,-0.31488037109375,-0.55133056640625,-0.04815673828125
1700515532020034800,0.086034912109375,-1.203216552734375,0.008270263671875,0.0039520263671875
1700515532030044700,0.096044677734375,-1.544281005859375,0.2260589599609375,0.002899169921875
1700515532040054800,0.1060546875,-0.8221435546875,-0.08465576171875,0.0554656982421875
1700515532050065000,0.11606494140625,-0.4136505126953125,-0.4915924072265625,-0.0440216064453125
1700515532060074800,0.12607470703125,-1.26470947265625,0.0644378662109375,0.0020294189453125
1700515532070084900,0.1360849609375,-1.5729827880859375,0.274688720703125,0.0257415771484375
1700515532080094700,0.1460947265625,-0.5450286865234375,-0.23785400390625,0.0405120849609375
1700515532090104800,0.156104736328125,-0.546417236328125,-0.446197509765625,-0.0574493408203125
1700515532100115000,0.166114990234375,-1.5400238037109375,0.17596435546875,0.07232666015625
1700515532110124800,0.176124755859375,-1.3054351806640625,0.2066497802734375,-0.0219573974609375
1700515532120135700,0.1861357421875,-0.4845428466796875,-0.3763427734375,0.058837890625
1700515532130145800,0.196145751953125,-0.7508544921875,-0.289459228515625,-0.041473388671875
1700515532140156000,0.206156005859375,-1.4736328125,0.1759490966796875,0.0241851806640625
1700515532150165800,0.216165771484375,-1.270721435546875,0.1855010986328125,0.041839599609375
1700515532160175900,0.22617578125,-0.3227996826171875,-0.4997406005859375,-0.002716064453125
1700515532170185700,0.236185791015625,-0.975830078125,-0.1399993896484375,-0.0342254638671875
1700515532180195800,0.24619580078125,-1.5808258056640625,0.2216644287109375,0.0416412353515625
1700515532190205700,0.256205810546875,-1.0164642333984375,0.0346527099609375,0.0237274169921875
1700515532200215800,0.2662158203125,-0.3828125,-0.492584228515625,0.0000457763671875
1700515532210226000,0.276225830078125,-1.05523681640625,-0.0574951171875,-0.021820068359375
1700515532220235800,0.28623583984375,-1.594329833984375,0.2248992919921875,0.0306854248046875
1700515532230246000,0.296245849609375,-0.871734619140625,-0.025909423828125,0.0457000732421875
1700515532240255000,0.3062548828125,-0.3214874267578125,-0.5390777587890625,-0.0529632568359375
1700515532250264800,0.316264892578125,-1.3573760986328125,0.091400146484375,0.04022216796875
1700515532260275000,0.32627490234375,-1.5009765625,0.2067718505859375,-0.01983642578125
1700515532270284800,0.336284912109375,-0.683502197265625,-0.1688232421875,0.0560302734375
1700515532280295000,0.346294921875,-0.4950103759765625,-0.4317779541015625,-0.0343475341796875
1700515532290305000,0.356304931640625,-1.33489990234375,0.0998687744140625,0.000091552734375
1700515532300315000,0.36631494140625,-1.4996337890625,0.22344970703125,0.0261077880859375
1700515532310325000,0.376324951171875,-0.5079193115234375,-0.2605133056640625,0.03546142578125
1700515532320334800,0.3863349609375,-0.58770751953125,-0.394317626953125,-0.062774658203125
1700515532330345000,0.396344970703125,-1.5770263671875,0.1954193115234375,0.0680084228515625
1700515532340355800,0.40635595703125,-1.28619384765625,0.1389617919921875,-0.0302581787109375
1700515532350366000,0.416365966796875,-0.4684600830078125,-0.3382568359375,0.054046630859375
1700515532360375800,0.426375732421875,-0.721832275390625,-0.285430908203125,-0.04571533203125
1700515532370386000,0.436385986328125,-1.54345703125,0.169769287109375,0.0298309326171875
1700515532380395800,0.446395751953125,-1.2577056884765625,0.1717987060546875,0.016143798828125
1700515532390406000,0.456406005859375,-0.2629241943359375,-0.4638824462890625,-0.0003662109375
1700515532400416000,0.466416015625,-0.985870361328125,-0.164764404296875,-0.0192718505859375
1700515532410425900,0.47642578125,-1.64227294921875,0.223236083984375,0.0412139892578125
1700515532420436000,0.48643603515625,-0.97491455078125,0.0282135009765625,-0.0072174072265625
1700515532430445800,0.49644580078125,-0.402374267578125,-0.4662933349609375,0.03570556640625
1700515532440456000,0.5064560546875,-1.039276123046875,-0.076202392578125,-0.034820556640625
1700515532450465800,0.5164658203125,-1.5776519775390625,0.1864166259765625,0.025970458984375
1700515532460476000,0.526475830078125,-0.9265289306640625,0.02178955078125,0.042633056640625
1700515532470486000,0.536486083984375,-0.2871856689453125,-0.5374755859375,-0.0365142822265625
1700515532480495900,0.546495849609375,-1.3099517822265625,0.0576171875,0.02911376953125
1700515532490506000,0.556506103515625,-1.5555419921875,0.195159912109375,-0.0094757080078125
1700515532500515800,0.566515869140625,-0.72174072265625,-0.1180267333984375,0.033905029296875
1700515532510526000,0.57652587890625,-0.4476776123046875,-0.4561004638671875,-0.005615234375
1700515532520536000,0.5865361328125,-1.3137359619140625,0.0775299072265625,-0.000885009765625
1700515532530546000,0.5965458984375,-1.5360107421875,0.21295166015625,0.0151214599609375
1700515532540556000,0.60655615234375,-0.5570526123046875,-0.19793701171875,0.0363311767578125
1700515532550566000,0.61656591796875,-0.5029296875,-0.4496612548828125,-0.05072021484375
1700515532560576000,0.626575927734375,-1.5689239501953125,0.1842498779296875,0.07061767578125
1700515532570587000,0.6365869140625,-1.32794189453125,0.1519927978515625,-0.0480194091796875
1700515532580597000,0.646596923828125,-0.502044677734375,-0.302459716796875,0.059783935546875
1700515532590606800,0.65660693359375,-0.6827392578125,-0.3232269287109375,-0.032562255859375
1700515532600617000,0.666616943359375,-1.49053955078125,0.1507568359375,0.0103759765625
1700515532610626800,0.676626708984375,-1.3193511962890625,0.1854400634765625,0.0177154541015625
1700515532620637000,0.686636962890625,-0.3249969482421875,-0.417510986328125,0.01629638671875
1700515532630647000,0.69664697265625,-0.865814208984375,-0.2233734130859375,-0.0355682373046875
1700515532640657000,0.706656982421875,-1.6393585205078125,0.2173919677734375,0.050750732421875
1700515532650667000,0.7166669921875,-1.0640716552734375,0.0602874755859375,-0.0177154541015625
1700515532660676900,0.7266767578125,-0.394744873046875,-0.431610107421875,0.0413665771484375
1700515532670687000,0.73668701171875,-0.947479248046875,-0.1356353759765625,-0.037109375
1700515532680697000,0.746697021484375,-1.6088409423828125,0.190765380859375,0.033966064453125
1700515532690707000,0.75670703125,-0.99896240234375,0.0709228515625,0.021026611328125
1700515532700717000,0.766717041015625,-0.24627685546875,-0.539764404296875,-0.0257415771484375
1700515532710727000,0.776726806640625,-1.266448974609375,0.00531005859375,0.0236968994140625
1700515532720737000,0.786737060546875,-1.575042724609375,0.2100372314453125,-0.0047607421875
1700515532730747000,0.796746826171875,-0.770172119140625,-0.07818603515625,0.02099609375
1700515532740757000,0.806757080078125,-0.4327392578125,-0.4727020263671875,0.0092926025390625
1700515532750767000,0.81676708984375,-1.2605743408203125,0.047393798828125,-0.014068603515625
1700515532760777000,0.82677685546875,-1.556915283203125,0.222076416015625,0.0198822021484375
1700515532770787000,0.836787109375,-0.6196136474609375,-0.15716552734375,0.0368194580078125
1700515532780797000,0.846796875,-0.451171875,-0.4826812744140625,-0.052459716796875
1700515532790808000,0.85680810546875,-1.54571533203125,0.1686859130859375,0.0672454833984375
1700515532800818000,0.86681787109375,-1.3685302734375,0.1770782470703125,-0.03729248046875
1700515532810828000,0.876828125,-0.5167083740234375,-0.2918548583984375,0.056427001953125
1700515532820838000,0.886837890625,-0.651519775390625,-0.3515777587890625,-0.0295867919921875
1700515532830848000,0.896847900390625,-1.4742431640625,0.1559600830078125,0.0134429931640625
1700515532840857900,0.90685791015625,-1.345306396484375,0.1998443603515625,0.021514892578125
1700515532850868000,0.916867919921875,-0.3435211181640625,-0.4121551513671875,0.019989013671875
1700515532860878000,0.926878173828125,-0.8343963623046875,-0.242828369140625,-0.0411224365234375
1700515532870888000,0.936887939453125,-1.630828857421875,0.2213287353515625,0.0576171875
1700515532880898000,0.94689794921875,-1.1004180908203125,0.0698394775390625,-0.0125732421875
1700515532890908000,0.956907958984375,-0.376953125,-0.43609619140625,0.0362396240234375
1700515532900918000,0.96691796875,-0.9303131103515625,-0.158477783203125,-0.0369873046875
1700515532910928100,0.97692822265625,-1.6367340087890625,0.219818115234375,0.0408935546875
1700515532920938000,0.98693798828125,-0.98675537109375,0.0652923583984375,0.0189971923828125
1700515532930948000,0.996947998046875,-0.2370147705078125,-0.5574493408203125,-0.031463623046875
1700515532940958000,1.0069580078125,-1.295684814453125,0.0160980224609375,0.0283660888671875
1700515532950968000,1.016968017578125,-1.563751220703125,0.23028564453125,-0.0116424560546875
1700515532960978000,1.02697802734375,-0.7272491455078125,-0.1110687255859375,0.0319061279296875
1700515532970988000,1.036988037109375,-0.483612060546875,-0.47772216796875,-0.0057830810546875
1700515532980998100,1.046998046875,-1.2685089111328125,0.0724639892578125,-0.018463134765625
1700515532991008000,1.057008056640625,-1.5140533447265625,0.2231292724609375,0.017303466796875
1700515533001019000,1.067018798828125,-0.610595703125,-0.204376220703125,0.05767822265625
1700515533011029000,1.077029052734375,-0.5152587890625,-0.4438018798828125,-0.0705108642578125
1700515533021039000,1.0870390625,-1.505462646484375,0.1766815185546875,0.06298828125
1700515533031049000,1.097049072265625,-1.360992431640625,0.1555328369140625,-0.02447509765625
1700515533041059000,1.10705908203125,-0.507354736328125,-0.3013153076171875,0.04998779296875
1700515533051069000,1.11706884765625,-0.6462860107421875,-0.340362548828125,-0.0473785400390625
1700515533061079000,1.1270791015625,-1.5242767333984375,0.1685333251953125,0.0334320068359375
1700515533071089200,1.137089111328125,-1.326629638671875,0.1978912353515625,0.0098876953125
1700515533081099000,1.14709912109375,-0.277313232421875,-0.4521484375,0.0057830810546875
1700515533091109000,1.157109130859375,-0.92559814453125,-0.2079010009765625,-0.023773193359375
1700515533101119000,1.167118896484375,-1.6380767822265625,0.233154296875,0.0454559326171875
1700515533111129000,1.177129150390625,-1.0205841064453125,0.0490264892578125,-0.0093536376953125
1700515533121139000,1.187138916015625,-0.391845703125,-0.4613037109375,0.0385589599609375
1700515533131149000,1.197149169921875,-1.0028228759765625,-0.1037139892578125,-0.0377044677734375
1700515533141159200,1.2071591796875,-1.5892333984375,0.209381103515625,0.0277557373046875
1700515533151169000,1.2171689453125,-0.934112548828125,0.0299072265625,0.0448760986328125
1700515533161179100,1.22717919921875,-0.28704833984375,-0.5513763427734375,-0.0398712158203125
1700515533171189000,1.23718896484375,-1.3160400390625,0.056488037109375,0.0260009765625
1700515533181199000,1.24719921875,-1.5480804443359375,0.20611572265625,-0.010009765625
1700515533191209000,1.257208984375,-0.7066650390625,-0.1308746337890625,0.0406341552734375
1700515533201219000,1.267218994140625,-0.466064453125,-0.4622802734375,-0.0156707763671875
1700515533211230000,1.27722998046875,-1.318115234375,0.084136962890625,-0.0070037841796875
1700515533221240000,1.287239990234375,-1.5294036865234375,0.2341766357421875,0.0186309814453125
1700515533231250000,1.29725,-0.51263427734375,-0.2447052001953125,0.0428009033203125
1700515533241260300,1.30726025390625,-0.5574798583984375,-0.42755126953125,-0.0574798583984375
1700515533251270400,1.3172705078125,-1.5854339599609375,0.201934814453125,0.06646728515625
1700515533261280300,1.3272802734375,-1.2917327880859375,0.1541290283203125,-0.034271240234375
1700515533271290400,1.337290283203125,-0.454376220703125,-0.357818603515625,0.057098388671875
1700515533281300200,1.34730029296875,-0.7545318603515625,-0.2793426513671875,-0.0404205322265625
1700515533291310300,1.357310302734375,-1.5161895751953125,0.1701202392578125,0.0145721435546875
1700515533301320200,1.3673203125,-1.239898681640625,0.168182373046875,0.027679443359375
1700515533311330300,1.377330322265625,-0.2969512939453125,-0.4845428466796875,0.007904052734375
1700515533321340400,1.38734033203125,-0.9833221435546875,-0.14300537109375,-0.0329132080078125
1700515533331350300,1.397350341796875,-1.62298583984375,0.217620849609375,0.0355682373046875
1700515533341360400,1.4073603515625,-0.9751129150390625,0.024322509765625,0.0110015869140625
1700515533351370200,1.417370361328125,-0.386871337890625,-0.47802734375,0.017669677734375
1700515533361380400,1.42738037109375,-1.07586669921875,-0.055145263671875,-0.0307769775390625
1700515533371390500,1.437390380859375,-1.58953857421875,0.2045440673828125,0.0229644775390625
1700515533381400300,1.447400390625,-0.8576812744140625,-0.0157318115234375,0.04705810546875
1700515533391411200,1.4574111328125,-0.3234405517578125,-0.535552978515625,-0.042327880859375
1700515533401421300,1.46742138671875,-1.357513427734375,0.091888427734375,0.0285186767578125
1700515533411431400,1.477431396484375,-1.509674072265625,0.1815948486328125,-0.01715087890625
1700515533421441300,1.487441162109375,-0.6875762939453125,-0.1408233642578125,0.0498199462890625
1700515533431451400,1.497451416015625,-0.4602813720703125,-0.4481964111328125,-0.0254669189453125
1700515533441461200,1.507461181640625,-1.35821533203125,0.0971527099609375,0.003143310546875
1700515533451471400,1.517471435546875,-1.527069091796875,0.2299346923828125,0.0212860107421875
1700515533461481200,1.527481201171875,-0.46539306640625,-0.2622833251953125,0.0309295654296875
1700515533471491300,1.5374912109375,-0.582794189453125,-0.4152374267578125,-0.050750732421875
1700515533481501400,1.54750146484375,-1.6264190673828125,0.209716796875,0.0671844482421875
1700515533491511300,1.55751123046875,-1.2361602783203125,0.139068603515625,-0.0370941162109375
1700515533501521400,1.567521484375,-0.444244384765625,-0.3734130859375,0.059814453125
1700515533511531300,1.57753125,-0.8137664794921875,-0.2536468505859375,-0.0330657958984375
1700515533521541400,1.587541259765625,-1.4812164306640625,0.1580657958984375,0.0031890869140625
1700515533531551500,1.597551513671875,-1.217987060546875,0.151763916015625,0.035308837890625
1700515533541561300,1.607561279296875,-0.3362579345703125,-0.4641265869140625,0.010711669921875
1700515533551571500,1.617571533203125,-0.9662322998046875,-0.13232421875,-0.0412750244140625
1700515533561582300,1.627582275390625,-1.6134185791015625,0.197357177734375,0.045867919921875
1700515533571592400,1.637592529296875,-0.9778594970703125,0.01873779296875,0.00238037109375
1700515533581602300,1.647602294921875,-0.396728515625,-0.450347900390625,0.0245208740234375
1700515533591612400,1.6576123046875,-1.0469207763671875,-0.067413330078125,-0.0327301025390625
1700515533601622300,1.667622314453125,-1.603057861328125,0.181640625,0.0303955078125
1700515533611632400,1.67763232421875,-0.8834075927734375,0.011138916015625,0.031463623046875
1700515533621642200,1.687642333984375,-0.29302978515625,-0.533233642578125,-0.0320281982421875
1700515533631652400,1.69765234375,-1.3479156494140625,0.0706939697265625,0.026763916015625
1700515533641662500,1.707662353515625,-1.5353851318359375,0.174102783203125,-0.0190887451171875
1700515533651672300,1.71767236328125,-0.6787872314453125,-0.1241607666015625,0.0416412353515625
1700515533661682400,1.727682373046875,-0.49139404296875,-0.4414825439453125,-0.00701904296875
1700515533671692300,1.7376923828125,-1.3026275634765625,0.081329345703125,-0.0167999267578125
1700515533681702400,1.747702392578125,-1.5201416015625,0.18548583984375,0.02337646484375
1700515533691712300,1.757712158203125,-0.572265625,-0.1753692626953125,0.0443878173828125
1700515533701722000,1.76772216796875,-0.5016021728515625,-0.450347900390625,-0.0611419677734375
1700515533711733200,1.777733154296875,-1.5665435791015625,0.1828155517578125,0.06719970703125
1700515533721743400,1.787743408203125,-1.3262939453125,0.1244049072265625,-0.0420989990234375
1700515533731753500,1.79775341796875,-0.498992919921875,-0.269073486328125,0.059051513671875
1700515533741763300,1.807763427734375,-0.684356689453125,-0.3348236083984375,-0.0318603515625
1700515533751773400,1.8177734375,-1.4727325439453125,0.1452178955078125,0.0069427490234375
1700515533761783300,1.827783203125,-1.335540771484375,0.1674957275390625,0.0228118896484375
1700515533771793400,1.83779345703125,-0.3491668701171875,-0.3680419921875,0.0255279541015625
1700515533781803300,1.84780322265625,-0.819183349609375,-0.26165771484375,-0.0465240478515625
1700515533791813400,1.8578134765625,-1.6526336669921875,0.2078704833984375,0.0611114501953125
1700515533801823200,1.8678232421875,-1.066741943359375,0.0565338134765625,-0.0287933349609375
1700515533811833000,1.8778330078125,-0.4207305908203125,-0.390716552734375,0.055572509765625
1700515533821843200,1.88784326171875,-0.92620849609375,-0.1623992919921875,-0.0440673828125
1700515533831853000,1.89785302734375,-1.5514678955078125,0.154815673828125,0.0232696533203125
1700515533841863200,1.90786328125,-1.0749053955078125,0.0976409912109375,0.0298614501953125
1700515533851874300,1.917874267578125,-0.276580810546875,-0.491668701171875,-0.00946044921875
1700515533861884400,1.927884521484375,-1.1484222412109375,-0.046234130859375,-0.011993408203125
1700515533871894300,1.937894287109375,-1.60888671875,0.174102783203125,0.027130126953125
1700515533881904400,1.947904296875,-0.8217926025390625,-0.0318450927734375,0.0028076171875
1700515533891914200,1.957914306640625,-0.428009033203125,-0.44970703125,0.03399658203125
1700515533901924400,1.96792431640625,-1.167388916015625,-0.0084228515625,-0.0359649658203125
1700515533911934200,1.977934326171875,-1.5662078857421875,0.1656951904296875,0.0293121337890625
1700515533921944000,1.987944091796875,-0.7710113525390625,-0.0353546142578125,0.0355072021484375
1700515533931954200,1.9979541015625,-0.35223388671875,-0.5130767822265625,-0.034271240234375
1700515533941964000,2.007964111328125,-1.456085205078125,0.1194610595703125,0.0367431640625
1700515533951974100,2.01797412109375,-1.4581451416015625,0.1432342529296875,-0.031829833984375
1700515533961984300,2.027984375,-0.6118316650390625,-0.1524810791015625,0.0424652099609375
1700515533971995400,2.037995361328125,-0.54266357421875,-0.4189300537109375,-0.0056610107421875
1700515533982005200,2.048005126953125,-1.3705291748046875,0.10552978515625,-0.0142669677734375
1700515533992015400,2.058015380859375,-1.4649810791015625,0.18438720703125,0.0221710205078125
1700515534002025500,2.068025390625,-0.4752197265625,-0.2310333251953125,0.033905029296875
1700515534012035300,2.078035400390625,-0.602386474609375,-0.40362548828125,-0.0494232177734375
1700515534022045400,2.08804541015625,-1.6312713623046875,0.2030487060546875,0.069061279296875
1700515534032055000,2.098054931640625,-1.2227783203125,0.1112823486328125,-0.045654296875
1700515534042065200,2.108065185546875,-0.4565582275390625,-0.322540283203125,0.065093994140625
1700515534052075300,2.1180751953125,-0.78857421875,-0.2791748046875,-0.03350830078125
1700515534062085000,2.128085205078125,-1.5041351318359375,0.1551971435546875,0.005767822265625
1700515534072095200,2.13809521484375,-1.224639892578125,0.1487274169921875,0.023193359375
1700515534082106400,2.1481064453125,-0.3117828369140625,-0.436859130859375,0.0193023681640625
1700515534092116500,2.158116455078125,-0.971435546875,-0.1680450439453125,-0.0388946533203125
1700515534102126300,2.168126220703125,-1.6305694580078125,0.1992645263671875,0.0436553955078125
1700515534112136400,2.178136474609375,-0.9617156982421875,0.026519775390625,-0.0091094970703125
1700515534122146300,2.188146240234375,-0.412078857421875,-0.43695068359375,0.04345703125
1700515534132156400,2.198156494140625,-1.040802001953125,-0.0885009765625,-0.042938232421875
1700515534142166000,2.208166015625,-1.57989501953125,0.179412841796875,0.025604248046875
1700515534152176000,2.218176025390625,-0.90264892578125,0.03106689453125,0.0316314697265625
1700515534162186200,2.228186279296875,-0.2962799072265625,-0.53350830078125,-0.0254058837890625
1700515534172196000,2.238196044921875,-1.3335723876953125,0.0538177490234375,0.0161895751953125
1700515534182207200,2.248207275390625,-1.5289306640625,0.1797332763671875,-0.018157958984375
1700515534192217300,2.25821728515625,-0.7007904052734375,-0.1039886474609375,0.0371856689453125
1700515534202227500,2.2682275390625,-0.4912567138671875,-0.45489501953125,0.00469970703125
1700515534212237300,2.2782373046875,-1.2952423095703125,0.0746917724609375,-0.026153564453125
1700515534222247400,2.288247314453125,-1.5183563232421875,0.194549560546875,0.02130126953125
1700515534232257300,2.29825732421875,-0.566986083984375,-0.180145263671875,0.0482330322265625
1700515534242267100,2.30826708984375,-0.5143890380859375,-0.4558868408203125,-0.0510711669921875
1700515534252277200,2.31827734375,-1.5730133056640625,0.1889495849609375,0.0592041015625
1700515534262287000,2.328287109375,-1.311309814453125,0.1331634521484375,-0.0379638671875
1700515534272298000,2.338298095703125,-0.4918060302734375,-0.2824249267578125,0.065399169921875
1700515534282308000,2.34830810546875,-0.6981201171875,-0.3322906494140625,-0.030487060546875
1700515534292318200,2.358318115234375,-1.4857635498046875,0.1535186767578125,0.0083465576171875
1700515534302328000,2.368328125,-1.3056640625,0.176605224609375,0.01947021484375
1700515534312338200,2.378338134765625,-0.3219146728515625,-0.4069366455078125,0.025604248046875
1700515534322348000,2.38834814453125,-0.887359619140625,-0.2234649658203125,-0.0434722900390625
1700515534332358100,2.398358154296875,-1.6458587646484375,0.21185302734375,0.0490875244140625
1700515534342368000,2.408367919921875,-1.023681640625,0.051361083984375,-0.0167999267578125
1700515534352378000,2.418378173828125,-0.4091949462890625,-0.423919677734375,0.050323486328125
1700515534362389200,2.42838916015625,-0.979888916015625,-0.1278533935546875,-0.050048828125
1700515534372399400,2.4383994140625,-1.5709075927734375,0.176239013671875,0.0220794677734375
1700515534382409200,2.4484091796875,-0.977386474609375,0.0624542236328125,0.03607177734375
1700515534392419000,2.458419189453125,-0.2826080322265625,-0.52899169921875,-0.0202789306640625
1700515534402429200,2.46842919921875,-1.2653656005859375,0.022430419921875,0.0030670166015625
1700515534412439000,2.47843896484375,-1.569122314453125,0.186309814453125,-0.00408935546875
1700515534422449200,2.48844921875,-0.7292327880859375,-0.0804443359375,0.033233642578125
1700515534432459000,2.498458984375,-0.480926513671875,-0.462615966796875,0.0037384033203125
1700515534442470400,2.508470458984375,-1.2611846923828125,0.055908203125,-0.02545166015625
1700515534452480300,2.518480224609375,-1.510467529296875,0.1812744140625,0.01666259765625
1700515534462490400,2.528490478515625,-0.6139678955078125,-0.15087890625,0.052337646484375
1700515534472500200,2.538500244140625,-0.5181732177734375,-0.448944091796875,-0.05450439453125
1700515534482510300,2.54851025390625,-1.5141143798828125,0.148223876953125,0.056884765625
1700515534492520400,2.5585205078125,-1.332733154296875,0.1244659423828125,-0.03936767578125
1700515534502530000,2.568530029296875,-0.5187530517578125,-0.2360076904296875,0.062896728515625
1700515534512540200,2.5785400390625,-0.68963623046875,-0.3372650146484375,-0.03594970703125
1700515534522551300,2.58855126953125,-1.4564666748046875,0.128936767578125,0.009613037109375
1700515534532561400,2.5985615234375,-1.331817626953125,0.16400146484375,0.0193939208984375
1700515534542571300,2.6085712890625,-0.3258819580078125,-0.3555145263671875,0.0196380615234375
1700515534552581400,2.618581298828125,-0.8958892822265625,-0.2427825927734375,-0.0315704345703125
1700515534562591200,2.62859130859375,-1.6087799072265625,0.1634979248046875,0.0499114990234375
1700515534572601300,2.638601318359375,-1.0285491943359375,0.068359375,-0.028533935546875
1700515534582611200,2.648611083984375,-0.4297027587890625,-0.3766937255859375,0.0576629638671875
1700515534592622300,2.658622314453125,-1.010955810546875,-0.1369476318359375,-0.0378570556640625
1700515534602632200,2.668632080078125,-1.48974609375,0.1058349609375,0.0068206787109375
1700515534612642300,2.678642333984375,-1.014617919921875,0.095733642578125,0.043731689453125
1700515534622652400,2.68865234375,-0.3470306396484375,-0.452178955078125,-0.0167236328125
1700515534632662300,2.698662353515625,-1.2232208251953125,-0.0297393798828125,0.0025634765625
1700515534642672400,2.70867236328125,-1.5324554443359375,0.1163177490234375,0.0156402587890625
1700515534652682200,2.71868212890625,-0.734130859375,-0.027984619140625,0.004913330078125
1700515534662693400,2.728693359375,-0.5459136962890625,-0.3870086669921875,0.02923583984375
1700515534672703200,2.738703125,-1.22430419921875,-0.0160064697265625,-0.02398681640625
1700515534682713300,2.74871337890625,-1.464080810546875,0.1074981689453125,0.013092041015625
1700515534692723200,2.75872314453125,-0.6256561279296875,-0.0513458251953125,0.0328216552734375
1700515534702733300,2.7687333984375,-0.5846405029296875,-0.40655517578125,-0.0260467529296875
1700515534712743200,2.7787431640625,-1.4598541259765625,0.05560302734375,0.0384674072265625
1700515534722753300,2.788753173828125,-1.312774658203125,0.0938568115234375,-0.035980224609375
1700515534732764200,2.79876416015625,-0.50439453125,-0.1380767822265625,0.0307769775390625
1700515534742774300,2.808774169921875,-0.8573760986328125,-0.3111419677734375,0.0278167724609375
1700515534752784100,2.8187841796875,-1.30523681640625,0.0196685791015625,-0.0460662841796875
1700515534762794200,2.828794189453125,-1.241485595703125,0.1044769287109375,0.029754638671875
1700515534772804400,2.838804443359375,-0.54290771484375,-0.165863037109375,0.0299835205078125
1700515534782814200,2.848814208984375,-0.859588623046875,-0.304779052734375,-0.0267181396484375
1700515534792825300,2.858825439453125,-1.45135498046875,0.0686187744140625,0.0379791259765625
1700515534802835200,2.868835205078125,-1.082183837890625,0.0445404052734375,-0.0278778076171875
1700515534812845300,2.87884521484375,-0.606170654296875,-0.150238037109375,0.035003662109375
1700515534822855200,2.888855224609375,-0.8881988525390625,-0.2840728759765625,-0.0010986328125
1700515534832865300,2.898865234375,-1.377197265625,0.0556793212890625,-0.0096893310546875
1700515534842875100,2.908875244140625,-1.12158203125,0.0922698974609375,0.026336669921875
1700515534852885200,2.91888525390625,-0.4807281494140625,-0.222503662109375,-0.0051116943359375
1700515534862896000,2.928896240234375,-1.038787841796875,-0.248687744140625,0.0140838623046875
1700515534872906200,2.93890625,-1.512603759765625,0.0876922607421875,0.027740478515625
1700515534882916000,2.948916015625,-0.7784576416015625,0.0070648193359375,-0.043731689453125
1700515534892926200,2.95892626953125,-0.7268829345703125,-0.1981353759765625,0.0718536376953125
1700515534902936300,2.968936279296875,-1.037261962890625,-0.2259368896484375,-0.0232696533203125
1700515534912946200,2.9789462890625,-1.3134613037109375,0.0617828369140625,-0.0133056640625
1700515534922957000,2.98895703125,-0.900848388671875,0.057891845703125,0.031951904296875
1700515534932967200,2.99896728515625,-0.65728759765625,-0.2725677490234375,0.0063629150390625
1700515534942977300,3.008977294921875,-1.115386962890625,-0.1541595458984375,-0.0099639892578125
1700515534952987100,3.018987060546875,-1.42095947265625,0.0667877197265625,0.040008544921875
1700515534962997200,3.028997314453125,-0.7002410888671875,-0.0113067626953125,-0.0492401123046875
1700515534973007000,3.039007080078125,-0.8144378662109375,-0.232635498046875,0.0911407470703125
1700515534983018200,3.049018310546875,-1.050750732421875,-0.1863555908203125,-0.063629150390625
1700515534993028000,3.059028076171875,-1.3066864013671875,0.0769195556640625,0.0376434326171875
1700515535003038200,3.0690380859375,-0.849945068359375,0.0510101318359375,-0.0074462890625
1700515535013048000,3.079048095703125,-0.675994873046875,-0.3258819580078125,0.033660888671875
1700515535023058200,3.08905810546875,-1.25897216796875,-0.1143951416015625,-0.0194854736328125
1700515535033069000,3.099069091796875,-1.1350250244140625,0.058197021484375,0.002532958984375
1700515535043079200,3.1090791015625,-0.91143798828125,0.00250244140625,0.005096435546875
1700515535053089000,3.119089111328125,-0.748504638671875,-0.286529541015625,0.0576629638671875
1700515535063099100,3.12909912109375,-1.1521759033203125,-0.1061248779296875,-0.0601654052734375
1700515535073109200,3.139109130859375,-1.1279296875,0.0834197998046875,0.016632080078125
1700515535083119000,3.149119140625,-0.9689788818359375,-0.015838623046875,0.052093505859375
1700515535093130000,3.1591298828125,-0.6628570556640625,-0.331634521484375,-0.0203399658203125
1700515535103140000,3.16914013671875,-1.221527099609375,-0.0642242431640625,0.01983642578125
1700515535113150200,3.179150146484375,-1.20672607421875,0.094451904296875,-0.0340576171875
1700515535123160000,3.18916015625,-0.860992431640625,-0.068695068359375,0.06085205078125
1700515535133170200,3.199170166015625,-0.7409515380859375,-0.2997894287109375,-0.0040130615234375
1700515535143181300,3.209181396484375,-1.139251708984375,-0.0558624267578125,-0.020050048828125
1700515535153191400,3.21919140625,-1.2570037841796875,0.12554931640625,0.00421142578125
1700515535163201300,3.229201171875,-0.786773681640625,-0.1056671142578125,0.0560150146484375
1700515535173211100,3.239211181640625,-0.73907470703125,-0.326904296875,-0.026702880859375
1700515535183221000,3.249220947265625,-1.2768096923828125,-0.0260772705078125,0.030914306640625
1700515535193232400,3.259232421875,-1.180755615234375,0.13397216796875,-0.0414581298828125
1700515535203242200,3.2692421875,-0.7498626708984375,-0.1633758544921875,0.089202880859375
1700515535213252400,3.27925244140625,-0.83526611328125,-0.26226806640625,-0.0470123291015625
1700515535223262200,3.28926220703125,-1.18304443359375,-0.0294036865234375,0.0048828125
1700515535233272300,3.299272216796875,-1.203216552734375,0.161224365234375,0.003936767578125
1700515535243284000,3.309283935546875,-0.67083740234375,-0.230499267578125,0.0483245849609375
1700515535253294000,3.319294189453125,-0.9014434814453125,-0.2465057373046875,-0.03656005859375
1700515535263304000,3.329303955078125,-1.3036956787109375,0.0171661376953125,0.0291290283203125
1700515535273314000,3.33931396484375,-1.0864410400390625,0.1020660400390625,-0.02008056640625
1700515535283324000,3.349323974609375,-0.6818695068359375,-0.2757110595703125,0.078948974609375
1700515535293335300,3.359335205078125,-0.936431884765625,-0.169769287109375,-0.062042236328125
1700515535303345200,3.36934521484375,-1.2601776123046875,0.0192413330078125,0.0146331787109375
1700515535313355300,3.379355224609375,-1.1086883544921875,0.1074371337890625,0.0245819091796875
1700515535323364900,3.38936474609375,-0.585052490234375,-0.3380584716796875,0.0226898193359375
1700515535333375000,3.399375,-1.0252838134765625,-0.132843017578125,-0.0216827392578125
1700515535343386000,3.40938623046875,-1.3554229736328125,0.0594329833984375,0.00506591796875
1700515535353396200,3.419396240234375,-0.967987060546875,0.030426025390625,0.02392578125
1700515535363406000,3.429406005859375,-0.6425323486328125,-0.327972412109375,0.04229736328125
1700515535373416200,3.439416259765625,-1.0135955810546875,-0.1005401611328125,-0.0478057861328125
1700515535383427000,3.449427001953125,-1.346466064453125,0.0760345458984375,0.0265045166015625
1700515535393437200,3.459437255859375,-0.9486236572265625,0.006988525390625,0.0391998291015625
1700515535403447000,3.469447021484375,-0.5700225830078125,-0.3586578369140625,-0.0055999755859375
1700515535413457200,3.47945703125,-1.2107391357421875,-0.0713348388671875,0.0164337158203125
1700515535423467300,3.48946728515625,-1.3040618896484375,0.1195526123046875,-0.030364990234375
1700515535433478100,3.49947802734375,-0.8191375732421875,-0.0948028564453125,0.06915283203125
1700515535443488000,3.509488037109375,-0.7045745849609375,-0.309417724609375,-0.0092926025390625
1700515535453498000,3.519498046875,-1.139251708984375,-0.0359039306640625,-0.0242156982421875
1700515535463508200,3.52950830078125,-1.307342529296875,0.1361846923828125,0.0119781494140625
1700515535473519000,3.53951904296875,-0.7752227783203125,-0.154876708984375,0.0599517822265625
1700515535483529200,3.549529296875,-0.6827850341796875,-0.2945709228515625,-0.0447540283203125
1700515535493539000,3.5595390625,-1.3250732421875,-0.0166015625,0.043182373046875
1700515535503549200,3.569549072265625,-1.2184600830078125,0.1324615478515625,-0.037994384765625
1700515535513559000,3.57955908203125,-0.700439453125,-0.217864990234375,0.08551025390625
1700515535523570200,3.589570068359375,-0.80621337890625,-0.2320098876953125,-0.0511474609375
1700515535533580000,3.599580078125,-1.24334716796875,-0.0097503662109375,0.004913330078125
1700515535543590100,3.609590087890625,-1.2177276611328125,0.1424560546875,0.0128936767578125
1700515535553600000,3.61960009765625,-0.640899658203125,-0.2768402099609375,0.0527801513671875
1700515535563611100,3.629611083984375,-0.8428802490234375,-0.1930084228515625,-0.049713134765625
1700515535573621000,3.63962109375,-1.3693084716796875,0.0138702392578125,0.04034423828125
1700515535583631000,3.649631103515625,-1.106353759765625,0.084686279296875,-0.0134124755859375
1700515535593641000,3.659640869140625,-0.6531829833984375,-0.27508544921875,0.0708770751953125
1700515535603652000,3.669652099609375,-0.867889404296875,-0.1645050048828125,-0.0706939697265625
1700515535613662000,3.679661865234375,-1.337158203125,0.0188446044921875,0.035888671875
1700515535623672000,3.689672119140625,-1.1410369873046875,0.1050872802734375,0.0129241943359375
1700515535633682000,3.699681884765625,-0.5140380859375,-0.342864990234375,0.01922607421875
1700515535643692000,3.709692138671875,-1.0296630859375,-0.1302490234375,-0.014801025390625
1700515535653703000,3.719702880859375,-1.3990020751953125,0.0586395263671875,0.00775146484375
1700515535663713000,3.729713134765625,-0.9441375732421875,0.0155181884765625,0.0161285400390625
1700515535673723000,3.739722900390625,-0.653289794921875,-0.3318328857421875,0.0460357666015625
1700515535683733000,3.74973291015625,-1.0000457763671875,-0.0797576904296875,-0.056976318359375
1700515535693744000,3.759744140625,-1.3371124267578125,0.047882080078125,0.033111572265625
1700515535703754200,3.769754150390625,-0.9842376708984375,0.0173492431640625,0.04193115234375
1700515535713764000,3.77976416015625,-0.5542144775390625,-0.356231689453125,-0.0169219970703125
1700515535723774200,3.789774169921875,-1.163177490234375,-0.0618896484375,0.01959228515625
1700515535733785000,3.79978515625,-1.3558502197265625,0.086181640625,-0.0188140869140625
1700515535743795200,3.809795166015625,-0.8325347900390625,-0.0543212890625,0.04632568359375
1700515535753805000,3.81980517578125,-0.668701171875,-0.330413818359375,0.00238037109375
1700515535763815200,3.829815185546875,-1.11639404296875,-0.0404052734375,-0.02325439453125
1700515535773826000,3.839825927734375,-1.3533477783203125,0.1166534423828125,0.0150146484375
1700515535783836200,3.849836181640625,-0.77197265625,-0.1116943359375,0.044708251953125
1700515535793846000,3.859845947265625,-0.6488037109375,-0.3283538818359375,-0.0272674560546875
1700515535803856100,3.869856201171875,-1.3339996337890625,-0.01910400390625,0.035858154296875
1700515535813867000,3.879866943359375,-1.25299072265625,0.11956787109375,-0.038604736328125
1700515535823877000,3.889877197265625,-0.691070556640625,-0.2010040283203125,0.077301025390625
1700515535833887000,3.899886962890625,-0.7812347412109375,-0.250701904296875,-0.036529541015625
1700515535843898000,3.909898193359375,-1.25140380859375,-0.0126800537109375,-0.001251220703125
1700515535853908000,3.919907958984375,-1.24517822265625,0.14654541015625,0.0102691650390625
1700515535863918000,3.92991796875,-0.59832763671875,-0.2772064208984375,0.03851318359375
1700515535873928200,3.93992822265625,-0.8400421142578125,-0.2128448486328125,-0.0299072265625
1700515535883939000,3.94993896484375,-1.4066162109375,0.0435028076171875,0.0376129150390625
1700515535893949000,3.959948974609375,-1.1301727294921875,0.0900115966796875,-0.0100555419921875
1700515535903959000,3.969958984375,-0.627960205078125,-0.310211181640625,0.0683135986328125
1700515535913969200,3.97996923828125,-0.8664398193359375,-0.1317901611328125,-0.0341339111328125
1700515535923980000,3.98997998046875,-1.36724853515625,0.0323638916015625,0.017669677734375
1700515535933990000,3.999989990234375,-1.1478118896484375,0.1012420654296875,0.0211944580078125
1700515535944000000,4.01,-0.46234130859375,-0.3542327880859375,0.0165863037109375
1700515535954010000,4.020010009765625,-1.003753662109375,-0.0820159912109375,0.005950927734375
1700515535964021200,4.030021240234375,-1.4531707763671875,0.04901123046875,-0.0037841796875
1700515535974030800,4.04003076171875,-0.969268798828125,0.01641845703125,0.0198822021484375
1700515535984041000,4.050041015625,-0.5783843994140625,-0.3378753662109375,0.0362396240234375
1700515535994051000,4.060051025390625,-0.9593048095703125,-0.076080322265625,-0.049285888671875
1700515536004062200,4.070062255859375,-1.4381866455078125,0.029693603515625,0.023529052734375
1700515536014072000,4.080072021484375,-1.0032958984375,0.0254364013671875,0.0277252197265625
1700515536024082200,4.090082275390625,-0.45159912109375,-0.3783416748046875,-0.0111236572265625
1700515536034093000,4.100093017578125,-1.1609039306640625,-0.0279083251953125,0.02154541015625
1700515536044103200,4.110103271484375,-1.4621429443359375,0.0573577880859375,-0.018402099609375
1700515536054113000,4.120113037109375,-0.8205108642578125,-0.0565643310546875,0.049041748046875
1700515536064123100,4.130123046875,-0.591156005859375,-0.32147216796875,0.0094451904296875
1700515536074134000,4.140134033203125,-1.107574462890625,-0.029541015625,-0.0156097412109375
1700515536084144000,4.15014404296875,-1.4091033935546875,0.0806732177734375,0.0032196044921875
1700515536094154200,4.160154296875,-0.865875244140625,-0.0606536865234375,0.0454864501953125
1700515536104165000,4.1701650390625,-0.4955291748046875,-0.3368988037109375,-0.0501556396484375
1700515536114175000,4.180175048828125,-1.2935333251953125,-0.0101776123046875,0.044525146484375
1700515536124185000,4.19018505859375,-1.4003448486328125,0.0771026611328125,-0.0513763427734375
1700515536134195200,4.2001953125,-0.7400054931640625,-0.1056671142578125,0.068084716796875
1700515536144206000,4.2102060546875,-0.61553955078125,-0.3094635009765625,-0.0217132568359375
1700515536154216000,4.2202158203125,-1.2100982666015625,-0.029571533203125,-0.0038909912109375
1700515536164226000,4.23022607421875,-1.4098358154296875,0.1271209716796875,0.00604248046875
1700515536174236200,4.240236083984375,-0.70294189453125,-0.1336669921875,0.0488433837890625
1700515536184247000,4.2502470703125,-0.6237945556640625,-0.3322601318359375,-0.03045654296875
1700515536194257000,4.2602568359375,-1.38055419921875,-0.0138397216796875,0.0621490478515625
1700515536204267000,4.27026708984375,-1.2577972412109375,0.1412353515625,-0.03375244140625
1700515536214278000,4.28027783203125,-0.667633056640625,-0.2040863037109375,0.0928192138671875
1700515536224288000,4.2902880859375,-0.74749755859375,-0.2425079345703125,-0.04010009765625
1700515536234298000,4.300298095703125,-1.255859375,-0.02581787109375,0.0163726806640625
1700515536244308500,4.31030859375,-1.2757720947265625,0.1702117919921875,0.001800537109375
1700515536254318600,4.320318603515625,-0.6259613037109375,-0.2647705078125,0.0554351806640625
1700515536264328400,4.330328369140625,-0.7692108154296875,-0.2088470458984375,-0.0510711669921875
1700515536274338600,4.340338623046875,-1.4146270751953125,-0.009429931640625,0.055328369140625
1700515536284349400,4.350349365234375,-1.1616058349609375,0.1177978515625,-0.03472900390625
1700515536294359600,4.360359619140625,-0.6240234375,-0.28326416015625,0.080352783203125
1700515536304369400,4.370369384765625,-0.8320465087890625,-0.1773681640625,-0.0558929443359375
1700515536314380300,4.38038037109375,-1.3416900634765625,0.003997802734375,0.0345458984375
1700515536324390400,4.390390380859375,-1.2016448974609375,0.153900146484375,-0.00372314453125
1700515536334400500,4.400400390625,-0.501983642578125,-0.3520355224609375,0.053558349609375
1700515536344410400,4.410410400390625,-0.9637451171875,-0.1468048095703125,-0.02392578125
1700515536354421500,4.42042138671875,-1.3946075439453125,0.0424346923828125,0.024505615234375
1700515536364431400,4.430431396484375,-1.0495147705078125,0.078369140625,-0.0036773681640625
1700515536374441500,4.44044140625,-0.5908355712890625,-0.3187255859375,0.0620574951171875
1700515536384452600,4.45045263671875,-0.97100830078125,-0.1388092041015625,-0.0559234619140625
1700515536394462500,4.46046240234375,-1.349822998046875,0.0709228515625,0.0292510986328125
1700515536404472300,4.470472412109375,-1.0438385009765625,0.0883941650390625,0.0146026611328125
1700515536414483500,4.4804833984375,-0.5186614990234375,-0.3775482177734375,-0.0020904541015625
1700515536424493600,4.49049365234375,-1.2429351806640625,-0.1176300048828125,0.032073974609375
1700515536434503700,4.500503662109375,-1.176666259765625,0.135101318359375,-0.0589752197265625
1700515536444513500,4.510513427734375,-0.971160888671875,0.0025482177734375,0.0552978515625
1700515536454524400,4.5205244140625,-0.6894989013671875,-0.364715576171875,0.001434326171875
1700515536464534500,4.530534423828125,-1.16827392578125,-0.079833984375,-0.027984619140625
1700515536474544600,4.540544677734375,-1.1229248046875,0.13787841796875,0.00384521484375
1700515536484555500,4.550555419921875,-0.921417236328125,-0.0523834228515625,0.04193115234375
1700515536494565400,4.5605654296875,-0.6847076416015625,-0.3677215576171875,-0.029022216796875
1700515536504575500,4.570575439453125,-1.3714599609375,0.0153961181640625,0.0421905517578125
1700515536514586400,4.58058642578125,-1.0583343505859375,0.073455810546875,-0.0295257568359375
1700515536524596500,4.590596435546875,-0.7488250732421875,-0.1338653564453125,0.0320281982421875
1700515536534606300,4.6006064453125,-0.8548431396484375,-0.2952423095703125,0.0044097900390625
1700515536544617500,4.610617431640625,-1.3462066650390625,0.0317535400390625,0.000762939453125
1700515536554627300,4.62062744140625,-1.070526123046875,0.1013641357421875,0.0133209228515625
1700515536564637400,4.630637451171875,-0.53521728515625,-0.248809814453125,0.005279541015625
1700515536574648300,4.6406484375,-1.087554931640625,-0.2256927490234375,0.021697998046875
1700515536584658400,4.650658447265625,-1.468017578125,0.0800933837890625,0.023468017578125
1700515536594668300,4.660668212890625,-0.755767822265625,0.0143890380859375,-0.033905029296875
1700515536604678400,4.670678466796875,-0.7263946533203125,-0.23760986328125,0.0752105712890625
1700515536614689300,4.680689208984375,-1.0706634521484375,-0.187469482421875,-0.03179931640625
1700515536624699400,4.690699462890625,-1.3597564697265625,0.077880859375,0.0103302001953125
1700515536634709200,4.700709228515625,-0.7942352294921875,0.046478271484375,0.0200042724609375
1700515536644720600,4.710720703125,-0.636199951171875,-0.3112945556640625,-0.000823974609375
1700515536654730500,4.72073046875,-1.270538330078125,-0.105926513671875,0.02166748046875
1700515536664740600,4.73074072265625,-1.3618316650390625,0.090057373046875,0.0041046142578125
1700515536674751500,4.74075146484375,-0.6146392822265625,-0.0318756103515625,-0.0101776123046875
1700515536684761600,4.75076171875,-0.8107452392578125,-0.2972869873046875,0.062896728515625
1700515536694771500,4.760771484375,-1.197723388671875,-0.092132568359375,-0.0549468994140625
1700515536704782600,4.770782470703125,-1.3142547607421875,0.1048736572265625,0.0292205810546875
1700515536714792400,4.78079248046875,-0.61590576171875,-0.040130615234375,0.00079345703125
1700515536724802600,4.790802490234375,-0.7668304443359375,-0.3582611083984375,0.002044677734375
1700515536734813400,4.8008134765625,-1.424346923828125,0.00006103515625,0.017913818359375
1700515536744823600,4.810823486328125,-1.184326171875,0.0930023193359375,-0.031707763671875
1700515536754833400,4.82083349609375,-0.5526123046875,-0.1176605224609375,0.021453857421875
1700515536764844500,4.830844482421875,-0.928314208984375,-0.3168487548828125,0.02630615234375
1700515536774854400,4.8408544921875,-1.3047943115234375,0.0151824951171875,-0.0509796142578125
1700515536784864500,4.850864501953125,-1.1702880859375,0.113037109375,0.0326385498046875
1700515536794875400,4.86087548828125,-0.5882720947265625,-0.1855926513671875,0.036895751953125
1700515536804885500,4.870885498046875,-0.7642822265625,-0.337158203125,-0.0573883056640625
1700515536814895400,4.880895263671875,-1.5598602294921875,0.158294677734375,0.071075439453125
1700515536824906200,4.89090625,-1.1128997802734375,0.0512542724609375,-0.0441741943359375
1700515536834916400,4.900916259765625,-0.5249481201171875,-0.23944091796875,0.05865478515625
1700515536844926500,4.910926513671875,-0.7979278564453125,-0.321014404296875,-0.0256195068359375
1700515536854937600,4.9209375,-1.527923583984375,0.1502532958984375,0.0266571044921875
1700515536864947500,4.930947509765625,-1.1920623779296875,0.1365203857421875,0.0017547607421875
1700515536874957600,4.94095751953125,-0.308990478515625,-0.3347625732421875,0.0088043212890625
1700515536884968400,4.950968505859375,-0.9647369384765625,-0.266387939453125,-0.0070343017578125
1700515536894978600,4.960978515625,-1.6874237060546875,0.1949920654296875,0.066162109375
1700515536904988400,4.970988525390625,-0.91436767578125,0.046051025390625,-0.051361083984375
1700515536914999600,4.98099951171875,-0.43487548828125,-0.385467529296875,0.0633392333984375
1700515536925009400,4.991009521484375,-1.010589599609375,-0.153472900390625,-0.03619384765625
1700515536935019500,5.00101953125,-1.56536865234375,0.1598358154296875,0.0280914306640625
1700515536945030400,5.011030517578125,-0.99066162109375,0.1010284423828125,0.0240325927734375
1700515536955040500,5.02104052734375,-0.2621307373046875,-0.48797607421875,-0.0279388427734375
1700515536965050400,5.03105029296875,-1.2328948974609375,-0.0512542724609375,0.0191650390625
1700515536975061500,5.0410615234375,-1.622344970703125,0.2016754150390625,0.0214996337890625
1700515536985071400,5.0510712890625,-0.736663818359375,-0.0404510498046875,-0.00286865234375
1700515536995081500,5.06108154296875,-0.444122314453125,-0.45709228515625,0.032684326171875
1700515537005092400,5.07109228515625,-1.23516845703125,0.0070343017578125,-0.0233612060546875
1700515537015102500,5.0811025390625,-1.526458740234375,0.1627960205078125,0.0199432373046875
1700515537025112300,5.0911123046875,-0.72930908203125,-0.0424957275390625,0.0380706787109375
1700515537035123500,5.10112353515625,-0.3676605224609375,-0.496856689453125,-0.0460052490234375
1700515537045133300,5.11113330078125,-1.485321044921875,0.0916748046875,0.0466766357421875
1700515537055143400,5.121143310546875,-1.4459686279296875,0.149810791015625,-0.038482666015625
1700515537065154600,5.131154541015625,-0.603912353515625,-0.1356048583984375,0.03765869140625
1700515537075164700,5.14116455078125,-0.52996826171875,-0.434539794921875,-0.0173492431640625
1700515537085174500,5.151174560546875,-1.4300994873046875,0.110931396484375,-0.0056915283203125
1700515537095185400,5.161185302734375,-1.4697723388671875,0.1865997314453125,0.0305023193359375
1700515537105195500,5.171195556640625,-0.444000244140625,-0.2205810546875,0.011566162109375
1700515537115205600,5.18120556640625,-0.5755157470703125,-0.4601287841796875,-0.056304931640625
1700515537125216500,5.191216552734375,-1.675689697265625,0.2122802734375,0.0665740966796875
1700515537135226400,5.201226318359375,-1.206939697265625,0.119476318359375,-0.03570556640625
1700515537145237500,5.211237548828125,-0.4635467529296875,-0.3477783203125,0.063873291015625
1700515537155247400,5.221247314453125,-0.74017333984375,-0.28106689453125,-0.0600128173828125
1700515537165257500,5.231257568359375,-1.51129150390625,0.127685546875,0.0243072509765625
1700515537175268400,5.241268310546875,-1.2443084716796875,0.150146484375,0.0311279296875
1700515537185278500,5.251278564453125,-0.3298797607421875,-0.3905792236328125,0.0036773681640625
1700515537195288300,5.261288330078125,-0.906707763671875,-0.2015380859375,-0.037384033203125
1700515537205299500,5.271299560546875,-1.6692047119140625,0.2104644775390625,0.0709686279296875
1700515537215309300,5.281309326171875,-0.9916229248046875,0.060302734375,-0.0177154541015625
1700515537225319400,5.2913193359375,-0.4149017333984375,-0.40020751953125,0.0457916259765625
1700515537235330600,5.30133056640625,-0.987213134765625,-0.12152099609375,-0.036163330078125
1700515537245341000,5.3113408203125,-1.5930938720703125,0.161407470703125,0.0417022705078125
1700515537255350800,5.321350830078125,-0.9895782470703125,0.1010284423828125,0.0189208984375
1700515537265361700,5.331361572265625,-0.2708892822265625,-0.473052978515625,-0.0189361572265625
1700515537275371800,5.341371826171875,-1.2529144287109375,-0.03985595703125,0.0109710693359375
1700515537285382000,5.3513818359375,-1.5870208740234375,0.1846923828125,0.011444091796875
1700515537295392800,5.361392822265625,-0.75762939453125,-0.0283355712890625,0.011871337890625
1700515537305403000,5.37140283203125,-0.4568634033203125,-0.446258544921875,0.0224456787109375
1700515537315414000,5.3814140625,-1.1999664306640625,0.0087432861328125,-0.0457000732421875
1700515537325423900,5.391423828125,-1.55816650390625,0.142608642578125,0.037689208984375
1700515537335433700,5.401433837890625,-0.7364654541015625,-0.0307159423828125,0.022308349609375
1700515537345444900,5.41144482421875,-0.343536376953125,-0.5125732421875,-0.052398681640625
1700515537355455000,5.421455078125,-1.496307373046875,0.0907440185546875,0.044525146484375
1700515537365464800,5.43146484375,-1.4405059814453125,0.138641357421875,-0.0260162353515625
1700515537375476000,5.44147607421875,-0.5879669189453125,-0.1694183349609375,0.034881591796875
1700515537385485800,5.45148583984375,-0.568023681640625,-0.4095611572265625,-0.0070648193359375
1700515537395496000,5.461495849609375,-1.36444091796875,0.083465576171875,-0.0152435302734375
1700515537405506800,5.4715068359375,-1.434661865234375,0.134674072265625,0.0335540771484375
1700515537415517000,5.481516845703125,-0.540924072265625,-0.164825439453125,0.025482177734375
1700515537425527800,5.49152783203125,-0.5374755859375,-0.428741455078125,-0.056854248046875
1700515537435538000,5.501537841796875,-1.641082763671875,0.16876220703125,0.0838470458984375
1700515537445547800,5.5115478515625,-1.233062744140625,0.1077117919921875,-0.0465240478515625
1700515537455558700,5.52155859375,-0.485565185546875,-0.2618408203125,0.05322265625
1700515537465568800,5.53156884765625,-0.754425048828125,-0.314361572265625,-0.0222625732421875
1700515537475579000,5.541578857421875,-1.477081298828125,0.12945556640625,0.010498046875
1700515537485589800,5.55158984375,-1.2520294189453125,0.1346435546875,0.020538330078125
1700515537495599900,5.561599853515625,-0.4258880615234375,-0.2855072021484375,0.0202789306640625
1700515537505609700,5.571609619140625,-0.8083343505859375,-0.281280517578125,-0.040740966796875
1700515537515620900,5.581620849609375,-1.6530609130859375,0.1745147705078125,0.0752105712890625
1700515537525631000,5.591630859375,-1.029083251953125,0.0642852783203125,-0.039306640625
1700515537535641900,5.601641845703125,-0.5051422119140625,-0.3012847900390625,0.0610198974609375
1700515537545652000,5.61165185546875,-0.84063720703125,-0.2264404296875,-0.0650634765625
1700515537555661800,5.621661865234375,-1.5820159912109375,0.1352691650390625,0.0522003173828125
1700515537565673000,5.6316728515625,-1.096405029296875,0.1324310302734375,-0.0005340576171875
1700515537575682800,5.641682861328125,-0.2801971435546875,-0.3969879150390625,-0.013671875
1700515537585693000,5.65169287109375,-1.1009521484375,-0.1666107177734375,0.004608154296875
1700515537595703800,5.661703857421875,-1.6553497314453125,0.188385009765625,0.0329742431640625
1700515537605714000,5.6717138671875,-0.80438232421875,0.0074920654296875,-0.025848388671875
1700515537615724800,5.681724853515625,-0.4919891357421875,-0.398712158203125,0.058502197265625
1700515537625735000,5.69173486328125,-1.075836181640625,-0.084075927734375,-0.058380126953125
1700515537635744800,5.701744873046875,-1.530548095703125,0.11944580078125,0.0375213623046875
1700515537645755600,5.711755615234375,-0.9114990234375,0.0728759765625,0.0290374755859375
1700515537655765800,5.721765869140625,-0.31231689453125,-0.4876251220703125,-0.0370025634765625
1700515537665775900,5.73177587890625,-1.3141937255859375,-0.0065155029296875,0.030426025390625
1700515537675786800,5.741786865234375,-1.5687713623046875,0.161773681640625,0.0088348388671875
1700515537685796900,5.751796875,-0.6815032958984375,-0.0650634765625,0.0115966796875
1700515537695808000,5.76180810546875,-0.4950714111328125,-0.443603515625,0.019927978515625
1700515537705817900,5.77181787109375,-1.2607574462890625,0.0256195068359375,-0.02703857421875
1700515537715828000,5.781827880859375,-1.5112762451171875,0.14556884765625,0.0374908447265625
1700515537725838800,5.7918388671875,-0.665252685546875,-0.0667266845703125,0.023040771484375
1700515537735849000,5.801848876953125,-0.4070281982421875,-0.4904022216796875,-0.0466156005859375
1700515537745858800,5.81185888671875,-1.553924560546875,0.120819091796875,0.057464599609375
1700515537755870000,5.821869873046875,-1.378143310546875,0.1474609375,-0.0359344482421875
1700515537765879800,5.8318798828125,-0.545013427734375,-0.190643310546875,0.0430755615234375
1700515537775891000,5.841890869140625,-0.627349853515625,-0.389495849609375,-0.0182952880859375
1700515537785900800,5.85190087890625,-1.422943115234375,0.1151123046875,-0.004791259765625
1700515537795911000,5.861910888671875,-1.3728790283203125,0.1539154052734375,0.0294952392578125
1700515537805921800,5.871921875,-0.484466552734375,-0.2148284912109375,0.0225372314453125
1700515537815932000,5.881931884765625,-0.6302032470703125,-0.3646392822265625,-0.0557403564453125
1700515537825941800,5.891941650390625,-1.647308349609375,0.1562957763671875,0.0908355712890625
1700515537835952600,5.90195263671875,-1.175689697265625,0.1094207763671875,-0.043426513671875
1700515537845962800,5.911962646484375,-0.47186279296875,-0.2609100341796875,0.0566558837890625
1700515537855973600,5.9219736328125,-0.7577362060546875,-0.3525238037109375,-0.03668212890625
1700515537865983700,5.931983642578125,-1.5453948974609375,0.172027587890625,0.0327301025390625
1700515537875993900,5.941993896484375,-1.220672607421875,0.14642333984375,0.005218505859375
1700515537886005000,5.9520048828125,-0.320343017578125,-0.40008544921875,0.000152587890625
1700515537896014800,5.962014892578125,-0.9422454833984375,-0.22686767578125,-0.0302886962890625
1700515537906026000,5.97202587890625,-1.70269775390625,0.19940185546875,0.05377197265625
1700515537916035800,5.982035888671875,-0.9458160400390625,0.04736328125,-0.0402679443359375
1700515537926046000,5.9920458984375,-0.4376068115234375,-0.40093994140625,0.0504150390625
1700515537936056800,6.002056884765625,-0.9911041259765625,-0.139404296875,-0.060821533203125
1700515537946067000,6.01206689453125,-1.5718231201171875,0.1741943359375,0.030303955078125
1700515537956077800,6.022077880859375,-0.9967803955078125,0.1103973388671875,0.0246429443359375
1700515537966088000,6.032087890625,-0.2429962158203125,-0.49432373046875,-0.0342254638671875
1700515537976097800,6.042097900390625,-1.21820068359375,-0.0432586669921875,0.0204315185546875
1700515537986108700,6.052108642578125,-1.607696533203125,0.2135162353515625,0.0161285400390625
1700515537996118800,6.062118896484375,-0.7625579833984375,-0.0235748291015625,0.014312744140625
1700515538006129000,6.07212890625,-0.4186248779296875,-0.47088623046875,0.0258331298828125
1700515538016139800,6.082139892578125,-1.1938629150390625,0.0164642333984375,-0.021392822265625
1700515538026149600,6.092149658203125,-1.586181640625,0.1758270263671875,0.0420989990234375
1700515538036161000,6.1021611328125,-0.720428466796875,-0.042144775390625,0.0290374755859375
1700515538046171000,6.1121708984375,-0.340362548828125,-0.5272216796875,-0.0413665771484375
1700515538056181000,6.122180908203125,-1.5056610107421875,0.099151611328125,0.06268310546875
1700515538066192000,6.13219189453125,-1.4853515625,0.168975830078125,-0.03192138671875
1700515538076202000,6.142201904296875,-0.5845947265625,-0.193023681640625,0.0436553955078125
1700515538086212900,6.152212890625,-0.5457305908203125,-0.4431915283203125,-0.01751708984375
1700515538096223000,6.162222900390625,-1.4212799072265625,0.1067657470703125,0.0013885498046875
1700515538106232800,6.17223291015625,-1.4640960693359375,0.173126220703125,0.018798828125
1700515538116243700,6.18224365234375,-0.3062286376953125,-0.2218170166015625,0.0168914794921875
1700515538126253800,6.19225390625,-0.8214111328125,-0.4998321533203125,-0.048828125
1700515538136264700,6.2022646484375,-1.68231201171875,0.3501129150390625,0.07861328125
1700515538146274800,6.21227490234375,-0.9984588623046875,0.02197265625,-0.0485992431640625
1700515538156285000,6.222284912109375,-0.46429443359375,-0.35321044921875,0.050994873046875
1700515538166295800,6.2322958984375,-0.886627197265625,-0.2061004638671875,-0.04254150390625
1700515538176305700,6.2423056640625,-1.523590087890625,0.1344757080078125,0.0268707275390625
1700515538186316800,6.25231689453125,-1.1259002685546875,0.142822265625,0.019134521484375
1700515538196326700,6.26232666015625,-0.3411407470703125,-0.36712646484375,-0.002166748046875
1700515538206336800,6.272336669921875,-0.962677001953125,-0.2076568603515625,-0.0308685302734375
1700515538216348000,6.282347900390625,-1.6751556396484375,0.20111083984375,0.0702362060546875
1700515538226358000,6.29235791015625,-0.9225006103515625,0.043060302734375,-0.02093505859375
1700515538236369000,6.302368896484375,-0.4414520263671875,-0.396392822265625,0.0322418212890625
1700515538246378800,6.312378662109375,-0.9937896728515625,-0.1115875244140625,-0.043975830078125
1700515538256388600,6.322388671875,-1.59014892578125,0.1391754150390625,0.038116455078125
1700515538266399700,6.332399658203125,-0.991302490234375,0.0888519287109375,0.0234527587890625
1700515538276409600,6.34240966796875,-0.2679595947265625,-0.487213134765625,-0.035797119140625
1700515538286420500,6.35242041015625,-1.2327423095703125,-0.03851318359375,0.0192108154296875
1700515538296430600,6.3624306640625,-1.62811279296875,0.1806488037109375,0.016143798828125
1700515538306440700,6.372440673828125,-0.7493133544921875,-0.026031494140625,0.0032501220703125
1700515538316451600,6.38245166015625,-0.4553985595703125,-0.4420318603515625,0.0198822021484375
1700515538326461400,6.39246142578125,-1.2042999267578125,0.002655029296875,-0.0192108154296875
1700515538336472600,6.40247265625,-1.541473388671875,0.134918212890625,0.0276641845703125
1700515538346482400,6.412482421875,-0.7670135498046875,0.0001220703125,0.0355072021484375
1700515538356492500,6.422492431640625,-0.355133056640625,-0.48974609375,-0.046905517578125
1700515538366503400,6.43250341796875,-1.42181396484375,0.0770416259765625,0.0428009033203125
1700515538376513500,6.442513427734375,-1.4786529541015625,0.136749267578125,-0.016143798828125
1700515538386524700,6.452524658203125,-0.63079833984375,-0.112335205078125,0.0258331298828125
1700515538396534800,6.46253466796875,-0.5336456298828125,-0.4371795654296875,-0.0029754638671875
1700515538406544600,6.472544677734375,-1.2998809814453125,0.07159423828125,-0.0402069091796875
1700515538416555500,6.482555419921875,-1.4824981689453125,0.1212005615234375,0.0290069580078125
1700515538426565600,6.492565673828125,-0.6185760498046875,-0.122283935546875,0.03118896484375
1700515538436576500,6.502576416015625,-0.46142578125,-0.4686431884765625,-0.0632171630859375
1700515538446586600,6.512586669921875,-1.569854736328125,0.1444091796875,0.0409088134765625
1700515538456597500,6.522597412109375,-1.351165771484375,0.1123504638671875,-0.0318145751953125
1700515538466607600,6.532607666015625,-0.547027587890625,-0.1970977783203125,0.052276611328125
1700515538476617500,6.542617431640625,-0.639129638671875,-0.370086669921875,-0.0239410400390625
1700515538486628600,6.552628662109375,-1.4041900634765625,0.1264801025390625,-0.00079345703125
1700515538496638500,6.562638427734375,-1.3780364990234375,0.139984130859375,0.0326690673828125
1700515538506649600,6.572649658203125,-0.4808807373046875,-0.22222900390625,0.0378875732421875
1700515538516659500,6.582659423828125,-0.6299896240234375,-0.353179931640625,-0.0453033447265625
1700515538526669600,6.592669677734375,-1.6395721435546875,0.190948486328125,0.0874786376953125
1700515538536680700,6.6026806640625,-1.1924591064453125,0.0933380126953125,-0.033477783203125
1700515538546690800,6.61269091796875,-0.4661407470703125,-0.28094482421875,0.0654449462890625
1700515538556701700,6.62270166015625,-0.780731201171875,-0.2524566650390625,-0.022613525390625
1700515538566711600,6.632711669921875,-1.499664306640625,0.0987701416015625,0.030670166015625
1700515538576721700,6.6427216796875,-0.49322509765625,-0.01947021484375,0.12322998046875
1700515538586732500,6.652732666015625,-0.52349853515625,-0.567535400390625,-0.1456451416015625
1700515538596742700,6.66274267578125,-2.565765380859375,0.748565673828125,-0.226348876953125
1700515538606753500,6.67275341796875,-1.29541015625,-0.2090606689453125,0.342498779296875
1700515538616763600,6.682763671875,0.25079345703125,0.0113983154296875,-0.11871337890625
1700515538626774500,6.6927744140625,-0.8541107177734375,-0.2526397705078125,-0.0352020263671875
1700515538636784600,6.70278466796875,-1.3468475341796875,-0.4719696044921875,0.0899810791015625
1700515538646794500,6.71279443359375,-1.1491851806640625,0.2770233154296875,-0.0723724365234375
1700515538656805600,6.7228056640625,-1.01025390625,0.01641845703125,0.0323944091796875
1700515538666815500,6.7328154296875,-0.511688232421875,-0.3124237060546875,-0.01202392578125
1700515538676826400,6.742826416015625,-1.2631988525390625,-0.1573486328125,-0.002227783203125
1700515538686836500,6.75283642578125,-1.3609161376953125,0.1091461181640625,-0.013702392578125
1700515538696846600,6.7628466796875,-0.795684814453125,-0.0366363525390625,-0.0086822509765625
1700515538706857700,6.772857666015625,-0.7505035400390625,-0.298614501953125,0.0581512451171875
1700515538716867600,6.78286767578125,-1.0350189208984375,-0.0838470458984375,-0.0295867919921875
1700515538726878700,6.792878662109375,-1.1768951416015625,0.0044097900390625,-0.0068817138671875
1700515538736888600,6.802888671875,-1.047760009765625,0.0144805908203125,0.0327301025390625
1700515538746899700,6.812899658203125,-0.75372314453125,-0.2616729736328125,0.036407470703125
1700515538756909600,6.82290966796875,-1.0902862548828125,-0.0710601806640625,0.008697509765625
1700515538766919700,6.832919677734375,-1.0755615234375,-0.01190185546875,-0.030029296875
1700515538776930600,6.8429306640625,-1.01141357421875,-0.009613037109375,0.063507080078125
1700515538786940700,6.852940673828125,-0.864410400390625,-0.22344970703125,0.0247650146484375
1700515538796951600,6.86295166015625,-1.003570556640625,-0.0572509765625,-0.0120086669921875
1700515538806961700,6.872961669921875,-1.0960845947265625,0.0278472900390625,0.0163116455078125
1700515538816972500,6.88297265625,-0.9404754638671875,-0.023406982421875,0.0305328369140625
1700515538826982400,6.892982421875,-0.85791015625,-0.229095458984375,0.005706787109375
1700515538836992500,6.902992431640625,-1.183624267578125,-0.03350830078125,0.0130767822265625
1700515538847003600,6.913003662109375,-1.036651611328125,0.0168914794921875,-0.0298004150390625
1700515538857013800,6.923013671875,-0.9456787109375,-0.064544677734375,0.0255126953125
1700515538867024600,6.933024658203125,-0.9117584228515625,-0.2174224853515625,0.004302978515625
1700515538877034800,6.94303466796875,-1.041259765625,-0.058746337890625,-0.021331787109375
1700515538887045600,6.953045654296875,-1.0892333984375,0.06842041015625,-0.009002685546875
1700515538897055700,6.9630556640625,-0.9145965576171875,-0.1466522216796875,0.0208740234375
1700515538907065600,6.973065673828125,-0.9078521728515625,-0.2004852294921875,0.0044708251953125
1700515538917076500,6.983076416015625,-1.142547607421875,-0.044189453125,-0.00531005859375
1700515538927086600,6.993086669921875,-0.9849700927734375,0.0152130126953125,-0.0244293212890625
1700515538937097500,7.003097412109375,-0.912628173828125,-0.15472412109375,0.0577239990234375
1700515538947107600,7.013107666015625,-0.9776458740234375,-0.1872406005859375,0.0025787353515625
1700515538957118500,7.023118408203125,-1.0662078857421875,-0.0388641357421875,-0.0121917724609375
1700515538967128600,7.033128662109375,-0.9611968994140625,0.0651702880859375,0.002105712890625
1700515538977138400,7.043138427734375,-0.8711090087890625,-0.223785400390625,0.0570068359375
1700515538987149600,7.053149658203125,-1.0326080322265625,-0.1272125244140625,0.002685546875
1700515538997159400,7.063159423828125,-1.20196533203125,-0.0234832763671875,0.0147247314453125
1700515539007170600,7.073170654296875,-0.874603271484375,-0.010162353515625,-0.02850341796875
1700515539017180700,7.0831806640625,-0.9119720458984375,-0.2040557861328125,0.0979461669921875
1700515539027191600,7.093191650390625,-1.0201873779296875,-0.11370849609375,-0.039337158203125
1700515539037201700,7.10320166015625,-1.0821990966796875,-0.02874755859375,-0.0062408447265625
1700515539047212500,7.113212646484375,-1.0500335693359375,0.066131591796875,0.016265869140625
1700515539057222700,7.12322265625,-0.818603515625,-0.27423095703125,0.0306854248046875
1700515539067232500,7.133232421875,-1.072113037109375,-0.037750244140625,-0.016265869140625
1700515539077243600,7.14324365234375,-1.1209564208984375,-0.0261993408203125,-0.022064208984375
1700515539087253500,7.15325341796875,-0.9450531005859375,0.0218353271484375,0.019134521484375
1700515539097264600,7.1632646484375,-0.877471923828125,-0.245391845703125,0.0387115478515625
1700515539107274500,7.1732744140625,-1.018524169921875,-0.0450286865234375,-0.0404815673828125
1700515539117285400,7.183285400390625,-1.0933685302734375,-0.025665283203125,-0.019134521484375
1700515539127295500,7.19329541015625,-0.9848785400390625,0.032501220703125,0.0294342041015625
1700515539137306600,7.203306640625,-0.8311614990234375,-0.2680816650390625,0.001251220703125
1700515539147316700,7.213316650390625,-1.1669158935546875,-0.0327606201171875,-0.0203704833984375
1700515539157326600,7.22332666015625,-1.0233306884765625,-0.037872314453125,-0.02459716796875
1700515539167337700,7.233337646484375,-0.9178314208984375,-0.023345947265625,0.0133514404296875
1700515539177347600,7.24334765625,-0.9214019775390625,-0.24951171875,0.0353240966796875
1700515539187358700,7.253358642578125,-1.055206298828125,-0.063507080078125,-0.0228271484375
1700515539197368600,7.26336865234375,-1.072296142578125,0.0373992919921875,-0.011444091796875
1700515539207379500,7.27337939453125,-0.9442138671875,-0.0726318359375,0.0352783203125
1700515539217389600,7.2833896484375,-0.8717498779296875,-0.278656005859375,0.0401763916015625
1700515539227400400,7.293400390625,-1.251678466796875,-0.034393310546875,0.0165557861328125
1700515539237410600,7.30341064453125,-0.8810577392578125,0.0074615478515625,-0.029388427734375
1700515539247420700,7.313420654296875,-0.9481048583984375,-0.06982421875,0.0740509033203125
1700515539257431800,7.323431884765625,-0.9442138671875,-0.2707672119140625,0.034912109375
1700515539267441700,7.333441650390625,-1.1150054931640625,0.0154876708984375,-0.0196075439453125
1700515539277452800,7.343452880859375,-1.104034423828125,0.1172027587890625,0.0249176025390625
1700515539287462700,7.353462646484375,-0.6674041748046875,-0.2263946533203125,0.0265350341796875
1700515539297473800,7.363473876953125,-1.024810791015625,-0.1485595703125,0.0305938720703125
1700515539307483600,7.373483642578125,-1.2949371337890625,0.010406494140625,0.015533447265625
1700515539317494500,7.38349462890625,-0.89984130859375,0.030059814453125,-0.037139892578125
1700515539327504600,7.393504638671875,-0.828857421875,-0.1406707763671875,0.0546875
1700515539337515500,7.403515625,-0.984130859375,-0.192291259765625,0.016387939453125
1700515539347525600,7.413525634765625,-1.24176025390625,-0.00543212890625,-0.058837890625
1700515539357535500,7.423535400390625,-0.87188720703125,0.0889129638671875,-0.0041961669921875
1700515539367546600,7.433546630859375,-0.855865478515625,-0.2299957275390625,0.0251922607421875
1700515539377556500,7.443556396484375,-1.07989501953125,-0.1197357177734375,-0.0030670166015625
1700515539387567600,7.453567626953125,-1.2384185791015625,-0.0292510986328125,-0.0423126220703125
1700515539397577500,7.463577392578125,-0.831817626953125,0.02960205078125,-0.0152435302734375
1700515539407588600,7.473588623046875,-0.8914794921875,-0.220001220703125,0.0709381103515625
1700515539417598700,7.4835986328125,-1.0513763427734375,-0.1241607666015625,-0.0682220458984375
1700515539427609600,7.493609619140625,-1.1566619873046875,-0.0034332275390625,0.0091552734375
1700515539437619700,7.50361962890625,-0.8491363525390625,0.0193634033203125,0.00634765625
1700515539447630600,7.513630615234375,-0.81024169921875,-0.309356689453125,0.0248260498046875
1700515539457640700,7.523640625,-1.208709716796875,-0.0197296142578125,0.000762939453125
1700515539467651600,7.533651611328125,-1.1389923095703125,-0.0474853515625,-0.01678466796875
1700515539477661700,7.54366162109375,-0.7984466552734375,-0.02862548828125,-0.00225830078125
1700515539487671600,7.553671630859375,-0.906494140625,-0.2324981689453125,0.080291748046875
1700515539497682700,7.5636826171875,-1.1262664794921875,-0.0768585205078125,-0.0474395751953125
1700515539507692500,7.573692626953125,-1.01129150390625,0.008087158203125,0.012054443359375
1700515539517703400,7.583703369140625,-0.988189697265625,-0.041839599609375,0.0492401123046875
1700515539527713500,7.593713623046875,-0.7970123291015625,-0.2275848388671875,0.0259552001953125
1700515539537724700,7.603724609375,-1.2392578125,-0.04827880859375,0.0123291015625
1700515539547734800,7.61373486328125,-0.9925689697265625,0.030609130859375,-0.0202789306640625
1700515539557745700,7.62374560546875,-0.97113037109375,-0.0559539794921875,0.0821533203125
1700515539567755800,7.633755859375,-0.8903350830078125,-0.2040863037109375,-0.009246826171875
1700515539577766700,7.6437666015625,-1.0618743896484375,-0.0364227294921875,0.0001678466796875
1700515539587776800,7.65377685546875,-1.1356658935546875,0.116424560546875,0.0156097412109375
1700515539597787600,7.66378759765625,-0.8342132568359375,-0.157440185546875,0.031005859375
1700515539607797500,7.673797607421875,-0.8948516845703125,-0.2158966064453125,-0.0133209228515625
1700515539617808600,7.68380859375,-1.2627105712890625,-0.0057220458984375,0.0262298583984375
1700515539627818500,7.693818603515625,-1.0250244140625,0.0692291259765625,-0.0413970947265625
1700515539637829600,7.70382958984375,-0.807403564453125,-0.172088623046875,0.0612030029296875
1700515539647839500,7.713839599609375,-0.9248504638671875,-0.2132720947265625,-0.054412841796875
1700515539657849600,7.723849609375,-1.141815185546875,-0.04449462890625,0.000579833984375
1700515539667860700,7.73386083984375,-1.07940673828125,0.1163787841796875,-0.0153961181640625
1700515539677870800,7.743870849609375,-0.7204742431640625,-0.259796142578125,0.0378265380859375
1700515539687881700,7.7538818359375,-1.00018310546875,-0.1775360107421875,-0.0421600341796875
1700515539697891800,7.763891845703125,-1.234527587890625,-0.0130462646484375,0.0165863037109375
1700515539707902700,7.77390283203125,-1.0442352294921875,0.0353240966796875,-0.0009002685546875
1700515539717912600,7.78391259765625,-0.71441650390625,-0.2569427490234375,0.06048583984375
1700515539727923700,7.793923828125,-0.933502197265625,-0.1402130126953125,-0.0636749267578125
1700515539737933600,7.80393359375,-1.293731689453125,0.0086517333984375,0.0406494140625
1700515539747944700,7.81394482421875,-1.0856475830078125,0.0629425048828125,0.02239990234375
1700515539757954600,7.82395458984375,-0.5316619873046875,-0.3199615478515625,0.0088348388671875
1700515539767965400,7.83396533203125,-1.104156494140625,-0.090118408203125,0.007659912109375
1700515539777975600,7.8439755859375,-1.3957977294921875,0.064361572265625,-0.0103302001953125
1700515539787986400,7.853986328125,-0.8816986083984375,-0.0220947265625,0.050933837890625
1700515539797996500,7.86399658203125,-0.66546630859375,-0.309326171875,0.0219573974609375
1700515539808007700,7.874007568359375,-1.03814697265625,-0.0489349365234375,-0.03741455078125
1700515539818017800,7.884017822265625,-1.34295654296875,0.0706329345703125,0.0218048095703125
1700515539828028700,7.894028564453125,-0.9415740966796875,-0.0305023193359375,0.059539794921875
1700515539838038800,7.904038818359375,-0.5455169677734375,-0.3214569091796875,-0.030853271484375
1700515539848049700,7.914049560546875,-1.2085113525390625,-0.047515869140625,0.0234375
1700515539858059500,7.9240595703125,-1.37042236328125,0.0904998779296875,-0.0222625732421875
1700515539868070700,7.934070556640625,-0.7968597412109375,-0.0919189453125,0.0580902099609375
1700515539878080500,7.94408056640625,-0.6539764404296875,-0.300994873046875,-0.025482177734375
1700515539888091600,7.954091552734375,-1.1498870849609375,-0.0220947265625,-0.0176849365234375
1700515539898101500,7.9641015625,-1.3717498779296875,0.1184844970703125,0.010955810546875
1700515539908112600,7.974112548828125,-0.74560546875,-0.1616973876953125,0.0485382080078125
1700515539918122500,7.98412255859375,-0.640289306640625,-0.2537994384765625,-0.0433807373046875
1700515539928133600,7.994133544921875,-1.35125732421875,-0.015838623046875,0.0299224853515625
1700515539938143700,8.004143798828125,-1.27288818359375,0.087921142578125,-0.0273895263671875
1700515539948154600,8.014154541015625,-0.6941070556640625,-0.1958770751953125,0.0791168212890625
1700515539958164700,8.024164794921875,-0.7116546630859375,-0.2225799560546875,-0.065460205078125
1700515539968175600,8.034175537109375,-1.2804107666015625,-0.0193328857421875,0.015533447265625
1700515539978185700,8.044185791015625,-1.309722900390625,0.13720703125,0.0131378173828125
1700515539988195600,8.054195556640625,-0.581878662109375,-0.2819976806640625,0.036285400390625
1700515539998206700,8.064206787109375,-0.7942352294921875,-0.1784820556640625,-0.04278564453125
1700515540008216600,8.074216552734375,-1.44317626953125,-0.006195068359375,0.045745849609375
1700515540018227500,8.0842275390625,-1.116973876953125,0.0802459716796875,-0.00506591796875
1700515540028237600,8.094237548828126,-0.652099609375,-0.287017822265625,0.0746002197265625
1700515540038248400,8.10424853515625,-0.8391876220703125,-0.1525726318359375,-0.0597686767578125
1700515540048258600,8.114258544921874,-1.332763671875,-0.00799560546875,0.03179931640625
1700515540058269700,8.124269775390625,-1.15081787109375,0.1220855712890625,0.026123046875
1700515540068279800,8.13427978515625,-0.5402374267578125,-0.3284759521484375,0.01678466796875
1700515540078290700,8.144290771484375,-1.0093841552734375,-0.135162353515625,-0.018798828125
1700515540088300800,8.15430078125,-1.3456878662109375,0.038848876953125,0.0124359130859375
1700515540098311700,8.164311767578125,-1.0240020751953125,0.0520477294921875,0.010040283203125
1700515540108321800,8.17432177734375,-0.642181396484375,-0.3072967529296875,0.0507354736328125
1700515540118332700,8.184332763671875,-0.9850006103515625,-0.111572265625,-0.065093994140625
1700515540128342500,8.194342529296875,-1.29473876953125,0.0517578125,0.0321807861328125
1700515540138353700,8.204353759765626,-1.012908935546875,0.0481719970703125,0.0335845947265625
1700515540148363500,8.214363525390626,-0.59771728515625,-0.3355255126953125,-0.004913330078125
1700515540158374700,8.224374755859374,-1.1714630126953125,-0.0998382568359375,-0.0053253173828125
1700515540168384500,8.234384521484374,-1.242431640625,0.0845184326171875,-0.0208892822265625
1700515540178395600,8.244395751953125,-0.88818359375,-0.062713623046875,0.0449371337890625
1700515540188405500,8.254405517578125,-0.7447357177734375,-0.2939300537109375,-0.0059814453125
1700515540198416600,8.264416748046875,-1.09320068359375,-0.051483154296875,-0.044921875
1700515540208426800,8.2744267578125,-1.2442169189453125,0.0893402099609375,0.01568603515625
1700515540218437600,8.284437744140625,-0.88330078125,-0.096710205078125,0.0485076904296875
1700515540228447700,8.29444775390625,-0.687774658203125,-0.2949676513671875,-0.032958984375
1700515540238458600,8.304458740234375,-1.258941650390625,-0.0428924560546875,0.0258941650390625
1700515540248468700,8.31446875,-1.2160186767578125,0.1018524169921875,-0.0233612060546875
1700515540258478600,8.324478515625,-0.793609619140625,-0.138153076171875,0.0698394775390625
1700515540268489500,8.334489501953126,-0.7447052001953125,-0.2774810791015625,-0.0557708740234375
1700515540278499600,8.34449951171875,-1.190887451171875,-0.04388427734375,0.0196075439453125
1700515540288510500,8.354510498046874,-1.2122039794921875,0.165435791015625,0.00701904296875
1700515540298520600,8.3645205078125,-0.719482421875,-0.1707611083984375,0.054931640625
1700515540308531500,8.374531494140625,-0.8645172119140625,-0.28118896484375,-0.030487060546875
1700515540318541600,8.38454150390625,-1.2391815185546875,-0.048583984375,0.0502166748046875
1700515540328552400,8.394552490234375,-1.123565673828125,0.1156463623046875,-0.009796142578125
1700515540338562600,8.4045625,-0.7435760498046875,-0.24102783203125,0.069061279296875
1700515540348573700,8.41457373046875,-0.8807220458984375,-0.16082763671875,-0.0655670166015625
1700515540358583800,8.424583740234375,-1.2304534912109375,-0.0298919677734375,0.047454833984375
1700515540368594700,8.4345947265625,-1.162109375,0.1300201416015625,0.0203094482421875
1700515540378604500,8.4446044921875,-0.6108551025390625,-0.3119049072265625,0.004669189453125
1700515540388615700,8.45461572265625,-0.9380950927734375,-0.1436004638671875,-0.0270843505859375
1700515540398625500,8.46462548828125,-1.38916015625,0.0207672119140625,0.035430908203125
1700515540408636700,8.47463671875,-1.0225982666015625,0.0495758056640625,0.0128631591796875
1700515540418646500,8.484646484375,-0.6467437744140625,-0.3189239501953125,0.018402099609375
1700515540428657400,8.494657470703125,-0.905120849609375,-0.094329833984375,-0.0460205078125
1700515540438667500,8.50466748046875,-1.3785247802734375,0.03204345703125,0.028961181640625
1700515540448678400,8.514678466796875,-1.0716552734375,0.053558349609375,0.0370941162109375
1700515540458688500,8.5246884765625,-0.4991912841796875,-0.366729736328125,-0.0246124267578125
1700515540468699600,8.53469970703125,-1.0750579833984375,-0.0656280517578125,-0.013824462890625
1700515540478709800,8.544709716796875,-1.4320526123046875,0.058746337890625,0.01068115234375
1700515540488720600,8.554720703125,-0.91326904296875,-0.05810546875,0.0433502197265625
1700515540498730800,8.564730712890626,-0.5994873046875,-0.342864990234375,-0.0174713134765625
1700515540508741600,8.57474169921875,-0.997894287109375,-0.0655975341796875,-0.030914306640625
1700515540518751700,8.584751708984374,-1.4039154052734375,0.1004791259765625,0.0472869873046875
1700515540528762600,8.5947626953125,-0.9578704833984375,-0.09033203125,0.0583648681640625
1700515540538772500,8.6047724609375,-0.5081634521484375,-0.340789794921875,-0.056640625
1700515540548783600,8.61478369140625,-1.190460205078125,-0.0162353515625,0.048370361328125
1700515540558793500,8.62479345703125,-1.379547119140625,0.1041412353515625,0.02197265625
1700515540568804600,8.6348046875,-0.8886260986328125,-0.1613311767578125,0.056427001953125
1700515540578815700,8.644815673828125,-0.594482421875,-0.2569580078125,-0.0228729248046875
1700515540588825600,8.65482568359375,-1.14202880859375,-0.0431671142578125,0.029571533203125
1700515540598836700,8.664836669921876,-1.378662109375,0.1363677978515625,0.0391387939453125
1700515540608846600,8.6748466796875,-0.8214569091796875,-0.2345123291015625,0.0559539794921875
1700515540618857700,8.684857666015626,-0.578948974609375,-0.273681640625,-0.052642822265625
1700515540628867600,8.69486767578125,-1.2691650390625,-0.0159454345703125,0.077117919921875
1700515540638878500,8.70487841796875,-1.3054351806640625,0.085845947265625,0.0128326416015625
1700515540648888600,8.714888671875,-0.8141632080078125,-0.243408203125,0.0579071044921875
1700515540658899500,8.7248994140625,-0.6060943603515625,-0.22406005859375,-0.063568115234375
1700515540668909600,8.73490966796875,-1.2575836181640625,0.0015716552734375,0.0521240234375
1700515540678920400,8.74492041015625,-1.3123931884765625,0.1202545166015625,0.027008056640625
1700515540688930600,8.7549306640625,-0.649078369140625,-0.3162841796875,0.0098876953125
1700515540698941700,8.764941650390625,-0.7840423583984375,-0.2012481689453125,-0.0520172119140625
1700515540708951600,8.77495166015625,-1.3106842041015625,0.0545806884765625,0.0598602294921875
1700515540718962700,8.784962646484376,-1.158477783203125,0.0590972900390625,0.0106658935546875
1700515540728973600,8.7949736328125,-0.710479736328125,-0.329925537109375,0.0149078369140625
1700515540738983700,8.804983642578126,-0.854034423828125,-0.151702880859375,-0.0277099609375
1700515540748994600,8.81499462890625,-1.1977386474609375,0.0127105712890625,0.0621795654296875
1700515540759004700,8.825004638671874,-1.2009124755859375,0.060516357421875,0.02020263671875
1700515540769015600,8.835015625,-0.6320953369140625,-0.3585662841796875,-0.0169830322265625
1700515540779025700,8.845025634765625,-0.955291748046875,-0.148773193359375,0.015289306640625
1700515540789036500,8.85503662109375,-1.238311767578125,0.0431060791015625,0.0875091552734375
1700515540799046400,8.86504638671875,-1.1403961181640625,0.001251220703125,0.020660400390625
1700515540809057500,8.8750576171875,-0.66497802734375,-0.318328857421875,0.0071868896484375
1700515540819067400,8.8850673828125,-0.938995361328125,-0.131134033203125,0.003509521484375
1700515540829078800,8.895078857421876,-0.45648193359375,-0.0533447265625,0.1811370849609375
1700515540839088600,8.905088623046876,-0.9193267822265625,-0.10107421875,-0.1133270263671875
1700515540849099500,8.915099609375,-3.2240753173828125,0.0218658447265625,0.0395050048828125
1700515540859110700,8.925110595703124,-0.1141204833984375,-0.06646728515625,0.15234375
1700515540869120500,8.93512060546875,-0.53643798828125,-0.092071533203125,-0.0126495361328125
1700515540879131600,8.945131591796875,-0.80340576171875,-0.1170806884765625,-0.003631591796875
1700515540889141500,8.9551416015625,-1.074310302734375,-0.2770233154296875,0.023956298828125
1700515540899152600,8.965152587890625,-1.0828399658203125,-0.052398681640625,0.0530853271484375
1700515540909162500,8.97516259765625,-1.20074462890625,0.120574951171875,0.0269622802734375
1700515540919173400,8.98517333984375,-0.7992706298828125,-0.193511962890625,0.0889892578125
1700515540929183500,8.99518359375,-0.705902099609375,-0.31134033203125,-0.039794921875
1700515540939194600,9.005194580078125,-1.249542236328125,-0.05548095703125,0.1073455810546875
1700515540949204700,9.015204833984376,-1.116119384765625,-0.000030517578125,0.071868896484375
1700515540959215600,9.025215576171876,-0.9109039306640625,-0.301422119140625,0.0359344482421875
1700515540969225700,9.035225830078126,-1.00433349609375,-0.2019500732421875,-0.0531005859375
1700515540979236600,9.045236572265624,-1.11566162109375,-0.0224609375,0.0794830322265625
1700515540989247500,9.05524755859375,-0.989105224609375,0.0578460693359375,0.0628509521484375
1700515540999257600,9.065257568359375,-0.7870635986328125,-0.33880615234375,0.03619384765625
1700515541009268500,9.0752685546875,-1.007781982421875,-0.15533447265625,-0.0376434326171875
1700515541019278600,9.085278564453125,-1.12957763671875,0.03369140625,0.0881195068359375
1700515541029289500,9.09528955078125,-1.0033721923828125,-0.0596160888671875,0.018646240234375
1700515541039299600,9.105299560546875,-0.957550048828125,-0.300506591796875,0.0494842529296875
1700515541049310700,9.115310791015625,-0.9218902587890625,-0.1377716064453125,0.012786865234375
1700515541059320600,9.125320556640625,-1.06671142578125,-0.0202789306640625,0.035430908203125
1700515541069331700,9.135331787109376,-1.001983642578125,0.00775146484375,0.0792999267578125
1700515541079342600,9.145342529296874,-0.848907470703125,-0.3500213623046875,0.03515625
1700515541089352700,9.155352783203124,-1.0966949462890625,-0.114227294921875,0.0210723876953125
1700515541099363600,9.165363525390624,-0.9932708740234375,-0.0110626220703125,0.064697265625
1700515541109373700,9.175373779296875,-0.9716644287109375,-0.086334228515625,0.0867462158203125
1700515541119384600,9.185384521484375,-0.961578369140625,-0.2960205078125,0.0799560546875
1700515541129394400,9.19539453125,-1.009674072265625,-0.1413726806640625,0.036346435546875
1700515541139405600,9.205405517578125,-1.0106658935546875,-0.0403900146484375,0.0828094482421875
1700515541149415400,9.21541552734375,-0.99383544921875,-0.0706939697265625,0.1137847900390625
1700515541159426800,9.2254267578125,-0.8740081787109375,-0.307037353515625,0.02374267578125
1700515541169437700,9.235437744140626,-1.0989837646484375,-0.1201019287109375,0.08721923828125
1700515541179447600,9.245447509765626,-0.967529296875,0.0221099853515625,0.04681396484375
1700515541189458700,9.255458740234374,-1.06494140625,-0.1309051513671875,0.087493896484375
1700515541199468500,9.265468505859374,-0.9199676513671875,-0.2441864013671875,0.038238525390625
1700515541209479700,9.275479736328125,-0.9791717529296875,-0.1342315673828125,0.029876708984375
1700515541219489500,9.285489501953125,-1.0425872802734375,0.0495758056640625,0.0589599609375
1700515541229500400,9.29550048828125,-0.9734649658203125,-0.1615142822265625,0.08001708984375
1700515541239510500,9.305510498046875,-0.9373626708984375,-0.2733917236328125,0.000213623046875
1700515541249522000,9.31552197265625,-1.0473785400390625,-0.1070556640625,0.040740966796875
1700515541259533000,9.325532958984375,-0.9662322998046875,-0.0074462890625,0.036376953125
1700515541269543200,9.335543212890625,-1.0725555419921875,-0.1137542724609375,0.08892822265625
1700515541279554000,9.345553955078126,-0.8462677001953125,-0.27642822265625,0.0096435546875
1700515541289564200,9.355564208984376,-1.1145477294921875,-0.116302490234375,0.01312255859375
1700515541299575000,9.365574951171874,-0.9629058837890625,0.1024932861328125,0.0748748779296875
1700515541309585200,9.375585205078124,-0.882049560546875,-0.287261962890625,0.063873291015625
1700515541319596000,9.385595947265625,-1.1116943359375,-0.2454986572265625,-0.0078887939453125
1700515541329607000,9.39560693359375,-0.9788665771484375,-0.033935546875,0.016021728515625
1700515541339617000,9.405616943359375,-1.0107574462890625,0.067901611328125,0.0784912109375
1700515541349628000,9.4156279296875,-0.905670166015625,-0.3065185546875,0.062408447265625
1700515541359638000,9.425637939453125,-1.036712646484375,-0.26397705078125,-0.0605316162109375
1700515541369649200,9.435649169921875,-1.0657501220703125,0.1790771484375,0.113311767578125
1700515541379659300,9.4456591796875,-0.7078399658203125,-0.1439361572265625,0.0526123046875
1700515541389670100,9.455670166015626,-1.117950439453125,-0.4004364013671875,-0.00628662109375
1700515541399681000,9.465680908203124,-1.182464599609375,-0.06243896484375,0.0390167236328125
1700515541409691100,9.475691162109374,-0.8649749755859375,0.2425537109375,0.059051513671875
1700515541419702000,9.485701904296874,-0.718353271484375,-0.4200592041015625,0.108642578125
1700515541429712100,9.495712158203125,-1.430419921875,-0.3651580810546875,-0.1305084228515625
1700515541439723000,9.505722900390625,-0.9828033447265625,0.352691650390625,0.2221527099609375
1700515541449733000,9.515733154296875,-0.336029052734375,-0.3430023193359375,0.026336669921875
1700515541459744000,9.525743896484375,-1.4995880126953125,-0.3199310302734375,-0.03985595703125
1700515541469755100,9.535755126953125,-1.3140869140625,0.1021575927734375,0.092193603515625
1700515541479765200,9.54576513671875,-0.1984710693359375,-0.065093994140625,0.0471954345703125
1700515541489776000,9.555776123046876,-1.384246826171875,-0.4611968994140625,0.035247802734375
1700515541499786200,9.5657861328125,-1.5098876953125,0.2011871337890625,0.07330322265625
1700515541509797000,9.575797119140624,-0.1081695556640625,-0.20770263671875,0.082183837890625
1700515541519807000,9.585806884765624,-1.2600860595703125,-0.337188720703125,-0.0038299560546875
1700515541529818000,9.595818115234374,-1.574249267578125,0.1338958740234375,0.1187286376953125
1700515541539829000,9.6058291015625,-0.19659423828125,-0.1721343994140625,0.015533447265625
1700515541549839000,9.615839111328125,-1.19244384765625,-0.4132843017578125,0.0669403076171875
1700515541559850000,9.62585009765625,-1.5330657958984375,0.210205078125,0.1006317138671875
1700515541569860000,9.635860107421875,-0.1709442138671875,-0.2605133056640625,0.019775390625
1700515541579871200,9.645871337890625,-1.198211669921875,-0.3551025390625,0.060821533203125
1700515541589882000,9.655882080078126,-1.5912628173828125,0.209442138671875,0.0831298828125
1700515541599892200,9.665892333984376,-0.1597747802734375,-0.2738037109375,0.0324249267578125
1700515541609903000,9.675903076171876,-1.4420013427734375,-0.213226318359375,0.0146942138671875
1700515541619913200,9.685913330078124,-1.345001220703125,0.071197509765625,0.1817779541015625
1700515541629924000,9.695924072265624,-0.0424041748046875,-0.33892822265625,-0.09930419921875
1700515541639934000,9.705933837890624,-1.5774688720703125,-0.11090087890625,0.122039794921875
1700515541649945000,9.715945068359375,-1.07781982421875,0.0387420654296875,0.0833282470703125
1700515541659956000,9.7259560546875,-0.4921417236328125,-0.3824310302734375,-0.0344085693359375
1700515541669966000,9.735966064453125,-1.824951171875,-0.026092529296875,0.121917724609375
1700515541679977200,9.745977294921875,-0.49249267578125,-0.4700775146484375,0.00115966796875
1700515541689987000,9.755987060546875,-1.20513916015625,-1.1199188232421875,-0.134796142578125
1700515541699998200,9.765998291015626,-1.851837158203125,-0.7893524169921875,0.0196380615234375
1700515541710009000,9.776009033203126,-0.52532958984375,-0.487213134765625,-0.0004730224609375
1700515541720019200,9.786019287109376,-0.688568115234375,-0.52587890625,0.062530517578125
1700515541730030000,9.796030029296874,-0.0270233154296875,-0.565826416015625,0.001220703125
1700515541740040000,9.8060400390625,-0.5922393798828125,-0.3884429931640625,-0.01422119140625
1700515541750051000,9.816051025390625,-1.03594970703125,-0.1061859130859375,0.1504669189453125
1700515541760062000,9.82606201171875,-1.005401611328125,-0.586090087890625,-0.0568695068359375
1700515541770072000,9.836072021484375,-1.598541259765625,-0.3382568359375,-0.106170654296875
1700515541780083200,9.846083251953125,-0.838226318359375,-0.904510498046875,0.086456298828125
1700515541790093000,9.856093017578125,-0.6836700439453125,-0.092132568359375,-0.0941925048828125
1700515541800104200,9.866104248046875,-1.734161376953125,-0.1309967041015625,0.171173095703125
1700515541810115000,9.876114990234376,-0.5279541015625,-0.7588653564453125,0.075531005859375
1700515541820125200,9.886125244140626,-0.849212646484375,-0.0091552734375,-0.02337646484375
1700515541830136000,9.896135986328124,-1.3626556396484375,-0.7350311279296875,0.1569061279296875
1700515541840146200,9.906146240234374,-0.889801025390625,-0.559906005859375,-0.1729583740234375
1700515541850157000,9.916156982421874,-1.0421142578125,-0.0391082763671875,0.1782989501953125
1700515541860168000,9.92616796875,-0.7264251708984375,-0.72509765625,-0.0085906982421875
1700515541870178000,9.936177978515625,-1.0491180419921875,-0.2344207763671875,-0.1031036376953125
1700515541880189200,9.946189208984375,-0.993621826171875,-0.28509521484375,0.26507568359375
1700515541890199300,9.95619921875,-0.9167938232421875,-1.12554931640625,-0.2351226806640625
1700515541900210200,9.966210205078125,-1.4492950439453125,-0.5707550048828125,-0.0290069580078125
1700515541910221000,9.976220947265626,-0.8492889404296875,-0.2022247314453125,0.1815948486328125
1700515541920231200,9.986231201171876,-0.38336181640625,-0.600006103515625,-0.1817169189453125
1700515541930242000,9.996241943359376,-1.0279541015625,0.027252197265625,0.21246337890625
1700515541940252200,10.006252197265624,-0.509918212890625,-0.6746673583984375,0.0029449462890625
1700515541950263000,10.016262939453124,-0.9807891845703125,-0.5796356201171875,-0.155426025390625
1700515541960274000,10.02627392578125,-1.3643341064453125,-0.374786376953125,0.1241455078125
1700515541970284000,10.036283935546875,-0.893310546875,-0.984954833984375,-0.1254730224609375
1700515541980295200,10.046295166015625,-1.2352447509765625,0.0532073974609375,0.0595855712890625
1700515541990305300,10.05630517578125,-0.36517333984375,-0.3292999267578125,0.2207794189453125
1700515542000316200,10.066316162109375,-0.4550628662109375,-0.413116455078125,-0.20050048828125
1700515542010327000,10.0763271484375,-1.201171875,-0.026611328125,0.22332763671875
1700515542020337200,10.086337158203126,-0.913909912109375,-0.8456268310546875,-0.00665283203125
1700515542030348000,10.09634814453125,-1.517059326171875,-0.7126617431640625,-0.2222900390625
1700515542040358100,10.106358154296874,-1.3639678955078125,-0.3873443603515625,0.32965087890625
1700515542050369000,10.116369140625,-0.673187255859375,-0.8070526123046875,-0.249847412109375
1700515542060380000,10.1263798828125,-0.7677001953125,-0.063232421875,0.1367340087890625
1700515542070390000,10.13639013671875,-0.22003173828125,-0.3104705810546875,0.1833038330078125
1700515542080401200,10.146401123046875,-1.0078125,-0.7100830078125,-0.2774200439453125
1700515542090412000,10.156412109375,-1.5478973388671875,-0.116943359375,0.2703399658203125
1700515542100422100,10.166422119140625,-0.92486572265625,-1.0684967041015625,-0.0325927734375
1700515542110433000,10.17643310546875,-1.4913330078125,-0.8157501220703125,-0.1079254150390625
1700515542120443100,10.186443115234376,-0.6470947265625,-0.11456298828125,0.160736083984375
1700515542130454000,10.1964541015625,-0.11395263671875,-0.6524658203125,-0.108306884765625
1700515542140465000,10.20646484375,-1.16619873046875,0.1636199951171875,0.1806793212890625
1700515542150475000,10.21647509765625,-0.715484619140625,-0.5276336669921875,0.0483856201171875
1700515542160486000,10.22648583984375,-0.918060302734375,-0.4877471923828125,-0.2026519775390625
1700515542170497300,10.236497314453125,-1.5893707275390625,-0.286956787109375,0.194122314453125
1700515542180507100,10.246507080078125,-0.7407073974609375,-0.9979400634765625,-0.0838470458984375
1700515542190518000,10.25651806640625,-1.4960174560546875,-0.1589202880859375,-0.072967529296875
1700515542200528100,10.266528076171875,-0.6011199951171875,-0.5105133056640625,0.314605712890625
1700515542210539000,10.2765390625,-0.6358184814453125,-0.6624755859375,-0.2740325927734375
1700515542220550100,10.286550048828126,-1.0860748291015625,0.305267333984375,0.3004608154296875
1700515542230560000,10.29656005859375,-0.3690338134765625,-0.681121826171875,0.1564178466796875
1700515542240571100,10.306571044921874,-1.4202728271484375,-0.767120361328125,-0.313934326171875
1700515542250582500,10.31658251953125,-1.43536376953125,-0.293914794921875,0.3844757080078125
1700515542260592000,10.326592041015624,-0.6565704345703125,-0.901580810546875,-0.1392059326171875
1700515542270603500,10.336603515625,-1.410430908203125,-0.3921661376953125,-0.0087127685546875
1700515542280613400,10.34661328125,-0.3049468994140625,-0.48211669921875,0.219818115234375
1700515542290624300,10.356624267578125,-0.6675872802734375,-0.6854400634765625,-0.2335205078125
1700515542300635400,10.366635498046875,-1.4036865234375,-0.0307159423828125,0.2760467529296875
1700515542310645200,10.376645263671875,-0.56298828125,-0.7288665771484375,-0.004302978515625
1700515542320656400,10.386656494140626,-1.0473480224609375,-0.281036376953125,-0.02923583984375
1700515542330667300,10.396667236328126,-0.7822113037109375,-0.04486083984375,0.2034759521484375
1700515542340677400,10.406677490234374,-0.6819915771484375,-1.04278564453125,-0.224609375
1700515542350688500,10.4166884765625,-1.764068603515625,-0.1532135009765625,0.135894775390625
1700515542360698000,10.426697998046874,-0.7778167724609375,-0.6759185791015625,0.13623046875
1700515542370709500,10.43670947265625,-0.9818115234375,-0.5304107666015625,-0.0501708984375
1700515542380720400,10.446720458984375,-0.9156341552734375,-0.1216278076171875,0.2341766357421875
1700515542390730500,10.45673046875,-0.3803863525390625,-0.9762420654296875,-0.0416412353515625
1700515542400741400,10.466741455078125,-1.5933837890625,-0.19671630859375,0.1949005126953125
1700515542410752300,10.476752197265625,-0.698150634765625,-0.779266357421875,0.102447509765625
1700515542420762400,10.486762451171876,-0.8299407958984375,-0.6506195068359375,-0.089935302734375
1700515542430773200,10.496773193359376,-0.884613037109375,-0.1724700927734375,0.21905517578125
1700515542440784400,10.506784423828124,-0.320709228515625,-0.8619232177734375,-0.0726165771484375
1700515542450794500,10.51679443359375,-1.370330810546875,-0.1362152099609375,0.0445098876953125
1700515542460805400,10.526805419921875,-0.8029632568359375,-0.635955810546875,0.197906494140625
1700515542470815500,10.5368154296875,-1.1164093017578125,-0.480010986328125,-0.1198272705078125
1700515542480826400,10.546826416015625,-1.0008087158203125,-0.418487548828125,0.2793121337890625
1700515542490837200,10.556837158203125,-1.0584716796875,-0.5470123291015625,-0.0919647216796875
1700515542500847400,10.566847412109375,-1.315460205078125,-0.3627777099609375,0.1035919189453125
1700515542510858200,10.576858154296875,-0.6848907470703125,-0.7559051513671875,0.00823974609375
1700515542520869400,10.586869384765626,-1.279296875,-0.081787109375,-0.123565673828125
1700515542530879200,10.596879150390626,-0.41351318359375,-0.66131591796875,0.2034149169921875
1700515542540890400,10.606890380859374,-1.3028717041015625,-0.61944580078125,-0.2859649658203125
1700515542550901500,10.616901611328124,-1.1924896240234375,-0.4115142822265625,0.09686279296875
1700515542560911400,10.626911376953124,-0.581756591796875,-0.552490234375,-0.0304107666015625
1700515542570922500,10.636922607421875,-1.0172576904296875,-0.241729736328125,0.09130859375
1700515542580933400,10.646933349609375,-0.4687652587890625,-0.77447509765625,-0.0532989501953125
1700515542590943200,10.656943115234375,-1.47021484375,-0.2616729736328125,0.1406707763671875
1700515542600954400,10.666954345703125,-0.7120361328125,-0.537139892578125,0.1152191162109375
1700515542610964200,10.676964111328125,-1.1763153076171875,-0.17303466796875,0.007110595703125
1700515542620975400,10.686975341796876,-0.56768798828125,-0.6192779541015625,0.130767822265625
1700515542630986500,10.696986572265626,-1.0251922607421875,-0.4811248779296875,-0.167999267578125
1700515542640996400,10.706996337890626,-1.107818603515625,-0.5391387939453125,0.186859130859375
1700515542651007500,10.717007568359374,-0.793975830078125,-0.425567626953125,-0.0644989013671875
1700515542661018400,10.727018310546875,-1.153717041015625,-0.2057342529296875,0.1020965576171875
1700515542671028500,10.737028564453125,-0.680572509765625,-0.686767578125,-0.10662841796875
1700515542681039400,10.747039306640625,-1.408782958984375,-0.1690216064453125,0.06842041015625
1700515542691050200,10.75705029296875,-0.699615478515625,-0.6722564697265625,0.0207672119140625
1700515542701060400,10.767060302734375,-1.0843963623046875,-0.0323944091796875,-0.0571136474609375
1700515542711071200,10.7770712890625,-0.6323394775390625,-0.7897186279296875,0.1233673095703125
1700515542721082400,10.787082275390626,-1.257080078125,-0.2212066650390625,-0.1750946044921875
1700515542731092500,10.797092529296876,-1.067596435546875,-0.57562255859375,0.1922760009765625
1700515542741103400,10.807103271484374,-1.155609130859375,-0.269378662109375,0.0329437255859375
1700515542751114500,10.817114501953125,-0.92620849609375,-0.5084991455078125,0.162261962890625
1700515542761124400,10.827124267578125,-0.986541748046875,-0.325347900390625,-0.0716400146484375
1700515542771135200,10.83713525390625,-1.16400146484375,-0.49615478515625,0.13409423828125
1700515542781145300,10.847145263671875,-0.7153472900390625,-0.365997314453125,-0.0366668701171875
1700515542791156200,10.85715625,-1.06048583984375,-0.240142822265625,0.09796142578125
1700515542801167400,10.86716748046875,-0.5422515869140625,-0.44140625,-0.0872802734375
1700515542811177200,10.87717724609375,-1.104095458984375,-0.2360992431640625,0.128997802734375
1700515542821188400,10.887188232421876,-0.573944091796875,-0.4232330322265625,-0.0037689208984375
1700515542831199500,10.897199462890624,-0.95037841796875,0.0202789306640625,0.07220458984375
1700515542841209300,10.907209228515624,-0.59033203125,-0.6182708740234375,0.081878662109375
1700515542851220500,10.917220458984374,-1.273406982421875,-0.02728271484375,-0.0256500244140625
1700515542861231400,10.9272314453125,-0.83087158203125,-0.52288818359375,0.1714630126953125
1700515542871241200,10.9372412109375,-0.9099884033203125,-0.0481414794921875,-0.0013275146484375
1700515542881252400,10.94725244140625,-0.794677734375,-0.6219635009765625,0.1144561767578125
1700515542891263200,10.95726318359375,-1.059783935546875,-0.0417022705078125,-0.062469482421875
1700515542901273300,10.9672734375,-1.018798828125,-0.678131103515625,0.192138671875
1700515542911284500,10.977284423828126,-1.0453643798828125,-0.1251983642578125,-0.0656280517578125
1700515542921295400,10.98729541015625,-0.871795654296875,-0.4683990478515625,0.1676177978515625
1700515542931305500,10.997305419921876,-0.99798583984375,-0.2159881591796875,0.0008697509765625
1700515542941316400,11.00731640625,-1.04595947265625,-0.50970458984375,0.1702880859375
1700515542951327200,11.0173271484375,-0.7049407958984375,-0.1173248291015625,0.0560302734375
1700515542961337300,11.02733740234375,-0.9106903076171875,-0.3120574951171875,0.13848876953125
1700515542971348200,11.03734814453125,-0.9385986328125,-0.261871337890625,-0.0715484619140625
1700515542981359400,11.047359375,-1.1739349365234375,-0.30584716796875,0.1429595947265625
1700515542991369200,11.057369140625,-0.9649810791015625,-0.3102874755859375,0.0102386474609375
1700515543001380400,11.06738037109375,-1.1121978759765625,-0.15155029296875,-0.0023651123046875
1700515543011391500,11.0773916015625,-0.9903717041015625,-0.4950714111328125,-0.0256805419921875
1700515543021401300,11.0874013671875,-1.3608245849609375,-0.26690673828125,0.0924530029296875
1700515543031412500,11.09741259765625,-0.92315673828125,-0.3511810302734375,0.0954437255859375
1700515543041423400,11.10742333984375,-1.123260498046875,-0.262939453125,0.131134033203125
1700515543051433200,11.11743310546875,-0.870361328125,-0.48193359375,0.02484130859375
1700515543061444400,11.1274443359375,-1.2658843994140625,-0.2758941650390625,0.1467132568359375
1700515543071455200,11.137455322265625,-0.7315216064453125,-0.4032440185546875,0.0634307861328125
1700515543081465300,11.14746533203125,-1.20928955078125,-0.1725311279296875,0.0504302978515625
1700515543091476500,11.1574765625,-0.4484710693359375,-0.458282470703125,0.0252227783203125
1700515543101487400,11.1674873046875,-1.3487548828125,-0.0662078857421875,0.0111083984375
1700515543111497500,11.17749755859375,-0.608489990234375,-0.3924713134765625,0.0960235595703125
1700515543121508400,11.18750830078125,-1.048095703125,0.0230255126953125,0.051849365234375
1700515543131519200,11.197519287109374,-0.9050750732421875,-0.4213714599609375,0.0279998779296875
1700515543141529300,11.207529296875,-1.17401123046875,0.0492095947265625,-0.0367889404296875
1700515543151540200,11.217540283203125,-0.697509765625,-0.48980712890625,0.069976806640625
1700515543161551400,11.22755126953125,-1.10504150390625,0.0391387939453125,-0.057159423828125
1700515543171561200,11.237561279296875,-0.5619659423828125,-0.5345916748046875,0.0818634033203125
1700515543181572400,11.247572265625,-1.34539794921875,-0.072113037109375,0.0136260986328125
1700515543191583500,11.25758349609375,-0.9978790283203125,-0.5135498046875,0.125335693359375
1700515543201593300,11.26759326171875,-1.2742462158203125,-0.0847320556640625,0.035675048828125
1700515543211604500,11.2776044921875,-0.8329925537109375,-0.512115478515625,0.2517547607421875
1700515543221615400,11.287615478515624,-1.1085357666015625,-0.098907470703125,-0.0116729736328125
1700515543231625200,11.297625244140624,-0.969451904296875,-0.5916748046875,0.1407012939453125
1700515543241636400,11.30763623046875,-0.9784393310546875,0.0223541259765625,0.005340576171875
1700515543251647700,11.317647705078125,-0.6946258544921875,-0.47265625,0.04412841796875
1700515543261657600,11.32765771484375,-0.91986083984375,-0.0225067138671875,-0.138916015625
1700515543271668700,11.337668701171875,-0.9164581298828125,-0.4969940185546875,0.1700592041015625
1700515543281679600,11.3476796875,-0.8471221923828125,-0.0870361328125,0.013458251953125
1700515543291689700,11.357689697265625,-1.0576324462890625,-0.210693359375,0.16156005859375
1700515543301700600,11.36770068359375,-0.8363494873046875,-0.2154693603515625,-0.08111572265625
1700515543311711500,11.37771142578125,-1.2473297119140625,-0.42730712890625,0.2119598388671875
1700515543321721600,11.3877216796875,-0.8031463623046875,-0.1714019775390625,-0.00885009765625
1700515543331732700,11.397732666015624,-0.810089111328125,-0.40826416015625,0.0895843505859375
1700515543341743600,11.40774365234375,-0.87664794921875,-0.2285003662109375,-0.03619384765625
1700515543351753700,11.417753662109375,-1.1257781982421875,-0.6408538818359375,0.0871734619140625
1700515543361764600,11.4277646484375,-0.9353485107421875,-0.0786285400390625,-0.0230255126953125
1700515543371775700,11.437775634765625,-0.7445831298828125,-0.3863677978515625,0.14117431640625
1700515543381785600,11.44778564453125,-0.9344940185546875,-0.374298095703125,-0.069488525390625
1700515543391796500,11.45779638671875,-1.33270263671875,-0.5323028564453125,0.161834716796875
1700515543401807600,11.4678076171875,-1.0452423095703125,0.0283355712890625,0.0856475830078125
1700515543411818800,11.47781884765625,-1.078155517578125,-0.5217742919921875,-0.0075836181640625
1700515543421828900,11.487828857421874,-1.133148193359375,-0.26776123046875,-0.08953857421875
1700515543431839700,11.49783984375,-1.046783447265625,-0.4626312255859375,0.085418701171875
1700515543441850600,11.5078505859375,-1.0059356689453125,-0.047515869140625,0.0788726806640625
1700515543451860700,11.51786083984375,-0.66156005859375,-0.5427398681640625,0.0246429443359375
1700515543461871600,11.52787158203125,-1.1055450439453125,-0.1031646728515625,-0.0250396728515625
1700515543471882500,11.537882568359375,-0.834564208984375,-0.53125,0.0588226318359375
1700515543481892600,11.547892578125,-0.844970703125,0.03582763671875,0.2309112548828125
1700515543491903500,11.557903564453126,-0.7877349853515625,-0.4445953369140625,0.0816497802734375
1700515543501914600,11.56791455078125,-1.3380126953125,-0.1835479736328125,-0.0157012939453125
1700515543511924700,11.5779248046875,-0.890716552734375,-0.403533935546875,0.177642822265625
1700515543521935600,11.587935546875,-1.0788726806640625,0.078155517578125,0.04656982421875
1700515543531946800,11.59794677734375,-0.6063690185546875,-0.7069244384765625,-0.0936279296875
1700515543541956600,11.60795654296875,-1.1711273193359375,-0.1072235107421875,0.0627899169921875
1700515543551967700,11.6179677734375,-0.6387176513671875,-0.35919189453125,-0.037261962890625
1700515543561978600,11.627978515625,-1.0114593505859375,-0.00274658203125,0.05694580078125
1700515543571988500,11.637988525390625,-0.6842803955078125,-0.5814666748046875,-0.04937744140625
1700515543581999600,11.64799951171875,-1.32379150390625,-0.1432037353515625,0.04046630859375
1700515543592010800,11.6580107421875,-0.970977783203125,-0.3670501708984375,0.015625
1700515543602021600,11.668021728515624,-1.3836517333984375,-0.1988067626953125,0.05633544921875
1700515543612031700,11.67803173828125,-0.8190460205078125,-0.337615966796875,-0.0633087158203125
1700515543622042600,11.688042724609375,-1.34429931640625,-0.290008544921875,0.12896728515625
1700515543632053500,11.698053466796875,-0.8621673583984375,-0.4088287353515625,0.0087738037109375
1700515543642063600,11.708063720703125,-1.011505126953125,-0.134674072265625,0.1086578369140625
1700515543652074500,11.718074462890625,-0.6700286865234375,-0.2606201171875,-0.1769561767578125
1700515543662085600,11.728085693359375,-1.0688629150390625,-0.3954620361328125,0.0861358642578125
1700515543672095500,11.738095458984375,-0.709991455078125,-0.224456787109375,-0.1207733154296875
1700515543682106600,11.748106689453126,-0.82330322265625,-0.18756103515625,0.1392822265625
1700515543692117800,11.75811767578125,-0.5873260498046875,-0.2067108154296875,-0.10455322265625
1700515543702127600,11.768127685546874,-1.0405731201171875,-0.31951904296875,0.2587738037109375
1700515543712138800,11.778138671875,-0.81243896484375,-0.1132659912109375,0.0359039306640625
1700515543722149600,11.788149658203125,-1.0323028564453125,-0.2458648681640625,0.1645050048828125
1700515543732159500,11.798159423828125,-1.0253753662109375,-0.2306060791015625,-0.075958251953125
1700515543742170600,11.808170654296875,-1.313873291015625,-0.502044677734375,0.0945587158203125
1700515543752181500,11.818181396484375,-1.2278900146484375,0.022430419921875,-0.17254638671875
1700515543762192600,11.828192626953125,-0.9029388427734375,-0.5367889404296875,-0.038482666015625
1700515543772202800,11.83820263671875,-1.267120361328125,-0.3291168212890625,-0.233489990234375
1700515543782213600,11.848213623046876,-1.1099853515625,-0.4383392333984375,0.0638580322265625
1700515543792224800,11.858224853515624,-1.025421142578125,-0.0930938720703125,0.0324859619140625
1700515543802234600,11.868234619140624,-0.665130615234375,-0.559173583984375,0.1620025634765625
1700515543812245500,11.87824560546875,-1.0561981201171875,-0.127044677734375,0.080413818359375
1700515543822256600,11.888256591796875,-0.81512451171875,-0.394134521484375,0.036529541015625
1700515543832266500,11.8982666015625,-0.8641204833984375,-0.01806640625,0.19842529296875
1700515543842277600,11.908277587890625,-0.6431427001953125,-0.4583740234375,0.078887939453125
1700515543852288800,11.918288818359375,-1.2866363525390625,-0.028289794921875,-0.1235198974609375
1700515543862298600,11.928298583984375,-0.7758941650390625,-0.4699859619140625,0.1974639892578125
1700515543872309800,11.938309814453126,-1.18743896484375,0.12164306640625,-0.018890380859375
1700515543882320600,11.948320556640626,-0.7093048095703125,-0.621551513671875,0.081329345703125
1700515543892331500,11.95833154296875,-1.225372314453125,0.002105712890625,-0.001617431640625
1700515543902341600,11.968341552734374,-0.6333465576171875,-0.470947265625,0.0505523681640625
1700515543912352500,11.9783525390625,-0.9697265625,0.0306549072265625,-0.0450592041015625
1700515543922363400,11.98836328125,-0.4579315185546875,-0.481109619140625,-0.050445556640625
1700515543932373500,11.99837353515625,-1.115264892578125,-0.13958740234375,-0.0351104736328125
1700515543942384600,12.008384521484375,-0.7425994873046875,-0.4356536865234375,-0.12103271484375
1700515543952395800,12.018395751953125,-1.06964111328125,-0.04412841796875,0.16162109375
1700515543962405600,12.028405517578125,-0.6719207763671875,-0.424468994140625,0.019775390625
1700515543972416500,12.03841650390625,-1.584747314453125,-0.2725372314453125,0.012115478515625
1700515543982427600,12.048427734375,-0.9377593994140625,-0.3030548095703125,0.096099853515625
1700515543992437500,12.0584375,-1.05670166015625,-0.1458892822265625,0.112518310546875
1700515544002448600,12.06844873046875,-0.8621368408203125,-0.4239959716796875,-0.05780029296875
1700515544012459500,12.07845947265625,-1.3746337890625,-0.4415283203125,0.1682891845703125
1700515544022470700,12.088470703125,-0.8923492431640625,-0.0878448486328125,0.0615234375
1700515544032480800,12.098480712890625,-0.970611572265625,-0.3071136474609375,0.0856475830078125
1700515544042491600,12.10849169921875,-0.9540863037109375,-0.3715667724609375,-0.2061920166015625
1700515544052502500,12.11850244140625,-1.183502197265625,-0.321746826171875,0.144134521484375
1700515544062512600,12.1285126953125,-0.8850555419921875,-0.053070068359375,0.0295257568359375
1700515544072523500,12.1385234375,-0.8552703857421875,-0.4591064453125,-0.059600830078125
1700515544082534700,12.14853466796875,-1.0432586669921875,-0.2082366943359375,-0.0587158203125
1700515544092545800,12.1585458984375,-0.89776611328125,-0.457305908203125,0.158843994140625
1700515544102555400,12.168555419921875,-1.0516204833984375,0.078643798828125,0.040374755859375
1700515544112566800,12.17856689453125,-0.8004150390625,-0.55841064453125,0.0912322998046875
1700515544122577700,12.18857763671875,-1.2707366943359375,-0.1835174560546875,0.0152740478515625
1700515544132587800,12.198587890625,-0.879913330078125,-0.6232452392578125,0.2101593017578125
1700515544142598700,12.2085986328125,-1.132415771484375,0.1567840576171875,0.106231689453125
1700515544152609500,12.218609619140626,-0.714385986328125,-0.5516204833984375,0.0687408447265625
1700515544162619600,12.22861962890625,-1.3758697509765625,-0.3316802978515625,-0.006622314453125
1700515544172630500,12.238630615234374,-0.9272308349609375,-0.409698486328125,0.087188720703125
1700515544182641700,12.2486416015625,-0.990478515625,0.0059661865234375,0.08050537109375
1700515544192652800,12.25865283203125,-0.667388916015625,-0.56610107421875,-0.095794677734375
1700515544202662700,12.26866259765625,-1.15985107421875,-0.3307647705078125,0.0784454345703125
1700515544212673800,12.278673828125,-0.62255859375,-0.229156494140625,-0.0723419189453125
1700515544222684700,12.2886845703125,-0.8559112548828125,-0.150146484375,0.065948486328125
1700515544232694500,12.298694580078125,-0.6765289306640625,-0.2706451416015625,-0.142120361328125
1700515544242705700,12.30870556640625,-0.94830322265625,-0.398681640625,0.08367919921875
1700515544252716800,12.318716796875,-0.9142303466796875,-0.0619354248046875,-0.1097869873046875
1700515544262726700,12.3287265625,-0.9828033447265625,-0.25042724609375,0.151123046875
1700515544272737800,12.33873779296875,-1.01812744140625,-0.09906005859375,-0.051727294921875
1700515544282748700,12.348748779296875,-1.1863861083984375,-0.6107635498046875,0.2288055419921875
1700515544292759600,12.358759521484375,-1.2342376708984375,0.0558929443359375,-0.0089874267578125
1700515544302769700,12.368769775390625,-0.8994598388671875,-0.4373779296875,0.1503143310546875
1700515544312780500,12.378780517578125,-1.245208740234375,-0.254974365234375,-0.115631103515625
1700515544322792000,12.3887919921875,-1.0435943603515625,-0.5472869873046875,-0.0541839599609375
1700515544332801800,12.3988017578125,-0.9829864501953125,-0.005035400390625,0.19061279296875
1700515544342812700,12.408812744140626,-0.5542144775390625,-0.5551605224609375,-0.07745361328125
1700515544352823800,12.41882373046875,-1.339752197265625,-0.2650909423828125,0.120941162109375
1700515544362834700,12.428834716796874,-0.83624267578125,-0.3355255126953125,0.0127105712890625
1700515544372844800,12.4388447265625,-1.0582275390625,-0.0422515869140625,0.1909942626953125
1700515544382855700,12.448855712890625,-0.802093505859375,-0.41009521484375,-0.0867767333984375
1700515544392866600,12.458866455078125,-1.191436767578125,-0.28564453125,0.20281982421875
1700515544402876700,12.468876708984375,-0.8040618896484375,-0.315185546875,0.00164794921875
1700515544412887800,12.4788876953125,-1.1974334716796875,-0.1486053466796875,0.1091156005859375
1700515544422898700,12.488898681640626,-0.7676849365234375,-0.28338623046875,-0.0079345703125
1700515544432909800,12.498909912109376,-1.1839447021484375,-0.4686737060546875,0.029052734375
1700515544442919700,12.508919677734376,-0.989471435546875,-0.127655029296875,-0.0462646484375
1700515544452930800,12.518930908203124,-0.8282470703125,-0.320556640625,0.120880126953125
1700515544462941700,12.528941650390625,-1.0487823486328125,-0.276275634765625,-0.109344482421875
1700515544472951600,12.53895166015625,-1.15118408203125,-0.5410614013671875,0.1482086181640625
1700515544482962700,12.548962646484375,-0.90838623046875,0.004364013671875,0.1356201171875
1700515544492973800,12.558973876953125,-0.6687469482421875,-0.7051849365234375,0.0625
1700515544502984700,12.568984619140625,-1.0043487548828125,-0.0261993408203125,-0.13720703125
1700515544512994800,12.578994873046875,-0.5865020751953125,-0.4899139404296875,0.0964508056640625
1700515544523005700,12.589005615234376,-1.0809478759765625,0.0687713623046875,0.0106353759765625
1700515544533016600,12.5990166015625,-1.028717041015625,-0.5120849609375,0.0543670654296875
1700515544543026700,12.609026611328124,-1.36920166015625,-0.1190032958984375,0.0239715576171875
1700515544553037600,12.61903759765625,-1.027099609375,-0.3605194091796875,-0.1567230224609375
1700515544563048700,12.629048583984375,-1.185546875,-0.012969970703125,0.0985870361328125
1700515544573059800,12.639059814453125,-0.6655426025390625,-0.4034271240234375,-0.097930908203125
1700515544583069700,12.649069580078125,-1.3379974365234375,-0.3199462890625,0.08587646484375
1700515544593080800,12.659080810546875,-0.930938720703125,-0.1820068359375,-0.0236663818359375
1700515544603091700,12.669091796875,-0.983642578125,-0.2613372802734375,0.0279693603515625
1700515544613101800,12.679101806640626,-1.042724609375,-0.244720458984375,-0.151611328125
1700515544623112700,12.68911279296875,-1.1471099853515625,-0.42816162109375,0.2196807861328125
1700515544633123600,12.69912353515625,-0.87359619140625,-0.0932769775390625,-0.008758544921875
1700515544643134700,12.709134765625,-0.6987152099609375,-0.505126953125,0.0429534912109375
1700515544653144600,12.71914453125,-0.8068084716796875,-0.0377197265625,-0.132904052734375
1700515544663155700,12.72915576171875,-0.8326873779296875,-0.590423583984375,0.0218963623046875
1700515544673166800,12.739166748046875,-0.9469451904296875,0.098175048828125,-0.1264495849609375
1700515544683177700,12.749177734375,-0.51251220703125,-0.499725341796875,0.0696258544921875
1700515544693187800,12.759187744140625,-1.197967529296875,-0.0821533203125,-0.0131378173828125
1700515544703198700,12.76919873046875,-0.950897216796875,-0.524932861328125,0.0827484130859375
1700515544713209600,12.779209716796874,-1.1716766357421875,0.2218017578125,0.067626953125
1700515544723219700,12.7892197265625,-0.93780517578125,-0.6445159912109375,0.0006866455078125
1700515544733230800,12.79923095703125,-1.3865814208984375,-0.168487548828125,-0.021392822265625
1700515544743241700,12.80924169921875,-0.6691436767578125,-0.46551513671875,0.0035247802734375
1700515544753252900,12.8192529296875,-1.013702392578125,-0.0761260986328125,0.023834228515625
1700515544763262700,12.8292626953125,-0.740081787109375,-0.344818115234375,-0.032989501953125
1700515544773273600,12.839273681640625,-1.17620849609375,-0.3910980224609375,0.162261962890625
1700515544783284700,12.84928466796875,-1.049652099609375,-0.21697998046875,-0.0948638916015625
1700515544793294600,12.859294677734376,-0.910675048828125,-0.2023468017578125,0.088592529296875
