time,seconds_elapsed,z,y,x
1700515531995009800,0.061009765625,-4.6007390604972835,3.5084795378580687,0.04556486954055726
1700515532005020000,0.07102001953125,4.864904376190901,-2.220015598334372,0.2882571342957206
1700515532015030000,0.081030029296875,3.23285788538754,-2.518078799715638,-0.8820254113584757
1700515532025040000,0.091039794921875,-5.170668945729732,2.853550817514956,0.46358924261387435
1700515532035050000,0.101050048828125,-2.707237682002783,2.5118594868093727,-0.1649620506742969
1700515532045059800,0.111059814453125,5.36347816721797,-3.000412234559655,0.25123265928644684
1700515532055070000,0.121070068359375,2.1109698249429463,-1.401184602035582,-0.7162073649093509
1700515532065079800,0.131079833984375,-5.66269901420176,3.054913640075922,0.3382519673740491
1700515532075090000,0.14108984375,-1.6420301246792077,2.395954349042475,0.1357768909885548
1700515532085100000,0.15110009765625,7.390902862989902,-4.3822868637084955,-0.363907911754027
1700515532095110000,0.16110986328125,-1.5564064356684684,0.22088651126362382,-0.05160729150995612
1700515532105120000,0.1711201171875,-5.651596020907164,3.424363623061776,-0.004434365718252956
1700515532115129900,0.1811298828125,1.3156056289494036,0.7095034833565353,0.26178136143283914
1700515532125140000,0.191139892578125,5.509194798141718,-4.072449345642328,-0.24081815971266476
1700515532135150800,0.20115087890625,-1.8431605997890232,1.2480626632913947,-0.24794421220030635
1700515532145161000,0.211160888671875,-5.394568886530399,3.3611937579214572,0.08479195089433342
1700515532155170800,0.2211708984375,2.7139462397307157,-0.4756768995642662,0.5353250203192234
1700515532165181000,0.231180908203125,5.330592965704202,-3.837563023664057,-0.8869142063133418
1700515532175191000,0.24119091796875,-4.233199879568815,2.3899779049813747,0.4302046402106061
1700515532185201000,0.251200927734375,-4.253654054054618,2.90414001802355,-0.31121907208506017
1700515532195211000,0.2612109375,4.107088112825155,-1.7096236514806746,0.44534017695691436
1700515532205220900,0.271220947265625,3.9363761568546294,-2.730542569744587,-0.6515574903443455
1700515532215231000,0.28123095703125,-4.409474730363488,2.4271584656015035,0.14607340847216546
1700515532225240800,0.29124072265625,-3.9832250017911193,3.142370389732718,0.06896587460059672
1700515532235250000,0.30125,6.216248842519521,-3.0794559606581924,0.028073928774520755
1700515532245260000,0.311260009765625,1.8800030144959687,-1.5653095808312296,-0.550063520571962
1700515532255270000,0.321269775390625,-5.9305298666656014,3.112715840703249,0.45370263937171545
1700515532265280000,0.331280029296875,-1.3100631923913955,1.8839739639535544,-0.23297745614964513
1700515532275290000,0.3412900390625,5.721399624973535,-3.3088293644338846,0.2551005502283573
1700515532285300000,0.351300048828125,0.9568120645344257,-0.46803734459653495,-0.5632465715436265
1700515532295310000,0.36131005859375,-5.6492760535269975,2.754560866452753,0.17195695106294004
1700515532305320000,0.37131982421875,-0.7252677464604377,1.9467564372114836,0.26095870167203244
1700515532315330000,0.381330078125,7.133150921469927,-4.235357349863648,-0.4518315482702106
1700515532325340200,0.391340087890625,-1.8667910662233829,0.81419873338826,-0.10373021352500654
1700515532335350000,0.40135009765625,-5.899485324582457,3.0360335830390452,-0.025205241470411418
1700515532345361000,0.41136083984375,1.6516507704615593,0.4479520034231245,0.11167645068857818
1700515532355371000,0.42137109375,5.760694693529605,-3.6934953289911148,-0.16369908153377472
1700515532365381000,0.431381103515625,-2.0867507449656726,1.2465078350648284,-0.2870430275319144
1700515532375391000,0.441390869140625,-5.769884546679258,3.0407419068604704,0.11898384195934049
1700515532385401000,0.451401123046875,3.111535106486082,-0.13653247686251996,0.21639365682378411
1700515532395411000,0.461410888671875,5.857598485967516,-3.9428728253975507,-0.656711512106657
1700515532405421000,0.471421142578125,-5.018285842654109,2.4403704138740894,0.4701952898154035
1700515532415431000,0.481430908203125,-4.147995292752981,2.714858970661461,-0.5331596224462614
1700515532425441000,0.49144091796875,4.215288959825038,-1.4360324819244443,0.43951844853349026
1700515532435451100,0.501451171875,3.894490487283468,-2.80206905208081,-0.3867487621806562
1700515532445461000,0.5114609375,-4.220423984625936,2.25870349477753,-0.09551548901782371
1700515532455471000,0.52147119140625,-4.111805788996816,2.946250728522241,0.09464355588834732
1700515532465481000,0.53148095703125,5.793652375757694,-2.4335300464600325,0.16185235768854617
1700515532475491000,0.541490966796875,2.759023398819566,-2.123915085103363,-0.5936460937215015
1700515532485501000,0.5515009765625,-6.167247203463315,3.065413406780362,0.5727569618845358
1700515532495511000,0.561510986328125,-1.8220038299918173,1.9348191850498317,-0.40872528739552944
1700515532505521200,0.571521240234375,5.667085850983858,-2.848886332835257,0.36375228280089794
1700515532515531000,0.581531005859375,1.5486550908893346,-1.0612509286522864,-0.45239915555771437
1700515532525541000,0.591541015625,-5.74593376224935,2.722542803162336,0.17475231740251182
1700515532535551000,0.601551025390625,-1.3774340163528918,2.224265218602866,0.041961474753729994
1700515532545561000,0.61156103515625,7.376317872798443,-4.032722899931669,-0.22521427480224518
1700515532555571200,0.6215712890625,-1.232509997111559,0.22098054622262714,-0.11432170450035482
1700515532565582000,0.63158203125,-6.10576894467175,3.1151725862056017,0.046330657148128375
1700515532575592000,0.641592041015625,1.1850339601874351,0.7509505423147231,-0.0890091301979497
1700515532585602000,0.65160205078125,5.749121160113811,-3.6686852973833677,0.10505896877758204
1700515532595612200,0.661612060546875,-1.488507788440585,0.8847153080295771,-0.37811288965195416
1700515532605622000,0.6716220703125,-5.641498989784718,2.8773098787650464,0.05819642410930246
1700515532615632100,0.681632080078125,2.048067670828104,0.4313830728728324,0.29846732520274816
1700515532625642000,0.69164208984375,6.362415555298328,-4.133108397005498,-0.5991700082421303
1700515532635652000,0.701652099609375,-4.212681407675147,2.139937853012979,0.30936347081363197
1700515532645662000,0.711661865234375,-4.744466563430429,2.7490403494656084,-0.41742399602737273
1700515532655672000,0.721672119140625,3.546556755056977,-0.8155768898736685,0.3067152213271707
1700515532665682200,0.73168212890625,4.7740001164287325,-3.1932828308463095,-0.326724976513721
1700515532675692000,0.741692138671875,-3.9902269895076747,2.134852950964123,-0.07067081535495817
1700515532685702000,0.751701904296875,-4.742544655457139,3.041774464778602,0.02334798709801398
1700515532695711700,0.761711669921875,5.498066670405865,-1.8760531078264115,0.10009078844357282
1700515532705721900,0.771721923828125,3.493905945843458,-2.766073901852965,-0.5461820760287344
1700515532715732000,0.78173193359375,-6.1585875116676085,3.0265456237256525,0.588049844617024
1700515532725741800,0.791741943359375,-2.223523606455326,2.1800933377906677,-0.5609546977467834
1700515532735752000,0.801751953125,5.3774137535899875,-2.555453421603143,0.4616902040595188
1700515532745761800,0.81176171875,2.0782307539016007,-1.5665870534211397,-0.47338725425712763
1700515532755772000,0.82177197265625,-5.516477940887213,2.7257296165049074,0.11906261541713029
1700515532765781800,0.83178173828125,-1.991091399630904,2.4931699839085337,0.06981546803410164
1700515532775791900,0.8417919921875,7.28435972006917,-3.8889109335854646,-0.21152506440673022
1700515532785803000,0.851802978515625,-0.6278636032849549,-0.24191833950690925,-0.1876158540962264
1700515532795813000,0.861813232421875,-6.278283566150069,3.2445041917786,0.17656839038114994
1700515532805823000,0.871822998046875,0.7975666744738816,0.9990316422350705,-0.1318481184385717
1700515532815832800,0.881832763671875,5.891567975586653,-3.7952959535598754,0.13066138373888098
1700515532825843000,0.891843017578125,-1.1917214751273393,0.7034655183665454,-0.36891806806623934
1700515532835852800,0.901852783203125,-5.6993865306079385,3.0241449923247097,0.08117784291724674
1700515532845863000,0.91186279296875,1.7279267854124307,0.5825995433218777,0.35688404099922627
1700515532855872800,0.921872802734375,6.450007914033532,-4.237863487465679,-0.6369280764892697
1700515532865883000,0.9318828125,-3.9023973148852584,2.0323703354805707,0.30866025444772094
1700515532875893000,0.94189306640625,-4.978047355768084,2.852418306353688,-0.34355160815212876
1700515532885902800,0.95190283203125,3.3847295318096875,-0.7511351781666279,0.32571167128533124
1700515532895913000,0.961912841796875,5.101956059509515,-3.3879943788245317,-0.4050684088557958
1700515532905922800,0.9719228515625,-4.098193443229794,2.1293651672028004,0.037015606716228645
1700515532915933000,0.981932861328125,-4.921693015861511,3.3314123676419256,-0.006048559449240565
1700515532925942800,0.99194287109375,5.785352749446034,-2.1700082893669603,0.09467277284967712
1700515532935953000,1.001952880859375,3.2569366801112887,-2.6980364306762814,-0.5454102879386394
1700515532945963000,1.011962890625,-6.245078046640753,3.1409806889399885,0.5424371538793668
1700515532955972900,1.021972900390625,-1.9256921680033205,2.2941969790935515,-0.4744639801105484
1700515532965983000,1.03198291015625,5.540123604890704,-3.101264180101454,0.40192309656739234
1700515532975992800,1.041992919921875,1.4195979183435439,-1.146417594610527,-0.48291203844957054
1700515532986003000,1.0520029296875,-5.127539413577318,2.756182037913799,0.018430888497270644
1700515532996012800,1.0620126953125,-1.6343986068874596,2.2459895591549572,0.27291257617492226
1700515533006024000,1.07202392578125,6.847714269688725,-4.053531586943566,-0.2536450541904196
1700515533016033800,1.08203369140625,-0.7554594711065292,0.23283976471200585,-0.29139881158862263
1700515533026044000,1.0920439453125,-5.966212589943408,3.0897675113141534,0.13346494251806287
1700515533036054000,1.102053955078125,0.8182499815404415,0.7961852300528437,0.05326499558910727
1700515533046063900,1.11206396484375,6.0662552649289365,-3.763331958544254,-0.13651479507535697
1700515533056074000,1.122073974609375,-1.4449977325379848,0.8136088046710938,-0.2901469848966226
1700515533066083800,1.132083740234375,-6.100497726270556,3.2296593816071746,0.1500994034520816
1700515533076094000,1.142093994140625,2.5054408519387246,0.17516674342229963,0.1797065057437867
1700515533086103800,1.152103759765625,6.247965584775805,-4.2128874516412615,-0.5950981556933372
1700515533096114000,1.162114013671875,-4.633691482028365,2.283241723706573,0.4288265202578157
1700515533106124000,1.1721240234375,-4.4350206750303505,2.867979740361869,-0.48403855826146897
1700515533116134000,1.1821337890625,3.9333804821699854,-1.1920675851512699,0.45624688049443063
1700515533126144000,1.19214404296875,4.267839231273531,-3.036565790219605,-0.42419612051080907
1700515533136153900,1.20215380859375,-4.103708991780877,2.261595855218172,-0.07010240434985607
1700515533146164000,1.2121640625,-4.297026162791252,3.172955205349624,0.1141326116690412
1700515533156173800,1.222173828125,5.842102810671925,-2.519261579759419,0.16180095629487184
1700515533166184000,1.232183837890625,2.6563854466438293,-2.189376568312198,-0.6107085068771615
1700515533176194000,1.242194091796875,-6.156397892668843,3.136798434819281,0.5015970113057643
1700515533186204000,1.252203857421875,-1.6879577631175517,1.9796243953295052,-0.31569128559567033
1700515533196214000,1.262214111328125,5.701184519940615,-3.055035805150866,0.335066578803584
1700515533206225000,1.272224853515625,1.3496756563335657,-0.9999527756679802,-0.5294893364356831
1700515533216235000,1.282235107421875,-5.758351345273852,2.903644635722041,0.16759473726544527
1700515533226244900,1.292244873046875,-1.014596729505062,2.0609838510245084,0.15821020179390907
1700515533236255200,1.302255126953125,7.3617258683443065,-4.279997286579013,-0.29632136268261816
1700515533246265000,1.31226513671875,-1.7479595196157693,0.5729543476201594,-0.11151293068993837
1700515533256275200,1.322275146484375,-6.0394853314250705,3.2535376853227613,-0.02948565873596817
1700515533266285000,1.33228515625,1.780650075340271,0.4099518700484186,0.10196922260131687
1700515533276295200,1.342295166015625,5.582867352595925,-3.7739486296266316,-0.10012342120469547
1700515533286305300,1.35230517578125,-2.0983377223849295,1.2723758512929082,-0.33071817433573303
1700515533296315100,1.362315185546875,-5.519364309978485,3.14962196829617,0.03343490781839937
1700515533306325200,1.3723251953125,3.090851799419522,-0.37414720089137554,0.43341479789614673
1700515533316335000,1.382335205078125,5.483775110203028,-3.8716488331392407,-0.7114398582465946
1700515533326345200,1.39234521484375,-4.668096440455317,2.514449211041629,0.3575856133973226
1700515533336355300,1.402355224609375,-4.184461859884858,2.6536598210722206,-0.3634997693445533
1700515533346365200,1.412365234375,4.400483030134439,-1.550257119258493,0.461662877661176
1700515533356375300,1.422375244140625,3.705661859863996,-2.713932211205363,-0.5404476970952004
1700515533366385200,1.43238525390625,-4.507824045434594,2.426451194114983,0.0074839990798383944
1700515533376395300,1.442395263671875,-3.8011446795880794,2.9447108056038616,0.06517857461422681
1700515533386405000,1.452405029296875,6.196925133368373,-2.8248423171639443,0.1404536962937098
1700515533396416300,1.462416259765625,1.9564298360943793,-1.673855880267918,-0.5839709412729367
1700515533406426000,1.472426025390625,-6.0681590527236455,3.078747812388837,0.4583390670007094
1700515533416436200,1.482436279296875,-1.307915658968687,1.6976855225361882,-0.29465854403693226
1700515533426446000,1.492446044921875,5.78591973567903,-2.9373537208393214,0.3802707618055865
1700515533436456200,1.502456298828125,1.193094517046213,-0.8681898512948304,-0.616908494028449
1700515533446466300,1.51246630859375,-6.103693307441473,2.962086303296685,0.2856339279189706
1700515533456476200,1.52247607421875,-0.628764351516962,1.9184809214502572,0.09598159955907612
1700515533466486300,1.532486328125,7.564462609606981,-4.342913469219208,-0.3346387818455696
1700515533476496100,1.54249609375,-2.29267079243958,0.7700573207795619,-0.040155119451507924
1700515533486506200,1.55250634765625,-5.920578381493687,3.158734664556384,-0.0562220918290317
1700515533496516400,1.562516357421875,2.290844746056199,0.2641942495271563,0.04732059063408524
1700515533506526200,1.572526123046875,5.14191514493227,-3.7376147489637135,0.016144156666425987
1700515533516536300,1.582536376953125,-2.2752520401269196,1.4536580088555813,-0.39218733650539067
1700515533526546200,1.592546142578125,-5.010269709458947,2.83225405472517,-0.010232713266089558
1700515533536556300,1.602556396484375,2.8574101232916114,-0.272648043487221,0.5118406478246673
1700515533546566100,1.612566162109375,5.339132245990633,-3.69359762032181,-0.7497001769274473
1700515533556576300,1.622576171875,-4.455214737275242,2.491998602041602,0.3439253733679652
1700515533566587100,1.632587158203125,-4.174321574142575,2.4170655261322853,-0.3534636015638709
1700515533576597200,1.64259716796875,4.250937196311354,-1.2932662252388893,0.4024527099320665
1700515533586607000,1.652607177734375,3.9108033241808413,-2.7233424291074275,-0.501891135414131
1700515533596617200,1.6626171875,-4.464762317821383,2.345054182888567,0.059884523326717315
1700515533606627300,1.67262744140625,-4.014474711057543,2.8029540182217954,-0.007827451355801894
1700515533616637200,1.68263720703125,6.130955992898345,-2.4360811922475696,0.14943060994558036
1700515533626647300,1.692647216796875,2.3865906006306408,-2.0029051715433597,-0.5528241078590974
1700515533636657200,1.7026572265625,-6.331762642881274,3.012418898695707,0.49271684515979136
1700515533646667300,1.712667236328125,-1.3119389231353997,1.7462956780567764,-0.44794148202911016
1700515533656677000,1.722677001953125,5.585864780846237,-2.757223071399331,0.47539070303402836
1700515533666687200,1.732687255859375,1.30220312654078,-0.9193906078305095,-0.593264693188481
1700515533676697300,1.742697265625,-5.548451872774958,2.552200265026092,0.1257609440119937
1700515533686707200,1.752707275390625,-1.3200491643548011,2.1730220842301846,0.18418211678788066
1700515533696717300,1.76271728515625,7.16471919516623,-3.8403576228186487,-0.21034436672218143
1700515533706728200,1.772728271484375,-1.055802600118518,0.21032478523887693,-0.28632176405265924
1700515533716738300,1.78273828125,-6.234940098986029,2.889086241276562,0.19975827344115824
1700515533726748200,1.792748046875,1.374955059018731,0.8136509633123874,-0.1393832723169122
1700515533736758300,1.80275830078125,5.584432117694616,-3.5012209450319407,0.20899379236344248
1700515533746768100,1.81276806640625,-1.289271164253354,0.7972033941194414,-0.4722748360358178
1700515533756778200,1.8227783203125,-5.631487883380055,2.5971535054743287,0.11812408332484774
1700515533766788400,1.832788330078125,1.7344512187451122,0.8148921955451369,0.31197445702962573
1700515533776798200,1.842798095703125,6.515318298333883,-4.1455519912540915,-0.5279289552511647
1700515533786808300,1.852808349609375,-3.9665889242887493,1.9905147687867282,0.20315726822968572
1700515533796818200,1.862818115234375,-4.965529819500446,2.499408001515269,-0.32521964998468755
1700515533806828300,1.872828369140625,3.5630262438207865,-0.42265981432162225,0.24354334689285606
1700515533816838100,1.882838134765625,4.50583550196588,-3.2062279448762534,-0.15868545462284236
1700515533826848300,1.89284814453125,-3.3929818118482826,1.9567313032589853,-0.282036670611985
1700515533836858400,1.9028583984375,-4.702869647672772,2.6169758117973805,0.07439849410858004
1700515533846869200,1.912869140625,4.452629981479048,-0.9723655344318598,0.30750100141000003
1700515533856879400,1.92287939453125,4.3735880089461805,-3.15848098205626,-0.6954124872270971
1700515533866889200,1.93288916015625,-5.729953518307209,2.80513691521883,0.559300719994679
1700515533876899300,1.9428994140625,-2.8534079019129273,1.96231757895872,-0.5576608438331634
1700515533886909200,1.9529091796875,4.9873254717230795,-1.6483577202655375,0.5184390231763943
1700515533896919300,1.962919189453125,2.825886857780814,-2.2210721216499802,-0.4784553513016551
1700515533906929200,1.97292919921875,-5.00614181587398,2.4643033703863617,0.026682036024704574
1700515533916939300,1.982939208984375,-2.96897781637609,2.518399117711186,0.025914047326892613
1700515533926949400,1.992949462890625,6.5802937515914435,-2.7607822251856327,0.13212357437908648
1700515533936959200,2.002959228515625,1.1143103186666965,-1.3315680449739098,-0.5077571779033169
1700515533946969300,2.01296923828125,-6.534019491672516,2.9901170505166053,0.42370504905823614
1700515533956979200,2.022979248046875,-0.18219021231830118,1.3817352206781506,-0.4119959065640345
1700515533966990300,2.032990234375,5.57739447414279,-2.838393288132548,0.45580337451063097
1700515533977000200,2.043000244140625,0.5031821616053581,-0.5155646002512425,-0.6101651937806979
1700515533987010300,2.05301025390625,-5.686183934685587,2.6225965742886066,0.19649459547009318
1700515533997020200,2.063020263671875,-0.2775362539201975,1.8283216348364948,0.0885149534728378
1700515534007030300,2.0730302734375,7.2554650494962925,-4.024366867257655,-0.2517000941351056
1700515534017040100,2.0830400390625,-2.3489649265915156,0.7972133309915661,-0.0620217545511201
1700515534027050200,2.09305029296875,-5.9064288601100445,2.882279191610217,-0.05329788407855667
1700515534037060400,2.103060302734375,2.345167287874222,0.39695787537544963,-0.018272519597783685
1700515534047070200,2.1130703125,5.206138318517803,-3.5475124483466147,0.17539390324167906
1700515534057080300,2.123080322265625,-2.257224216005206,1.2789236655011773,-0.48469917759466913
1700515534067090200,2.133090087890625,-5.180161581218242,2.6872026097118855,0.08323148751142434
1700515534077101300,2.143101318359375,2.9245500611066815,0.03793181737884879,0.380253956801258
1700515534087111200,2.153111083984375,5.581633426886796,-3.8703056018367405,-0.6055484207002446
1700515534097121300,2.163121337890625,-4.762008649861812,2.4039881640248,0.3287611219838261
1700515534107131100,2.173131103515625,-4.054162578323483,2.3688312181867657,-0.4302778150446713
1700515534117141200,2.183141357421875,4.226882951506972,-1.0491261180292815,0.4062120259329676
1700515534127151400,2.1931513671875,3.844301684269309,-2.8772055416077373,-0.34480204660464076
1700515534137161200,2.2031611328125,-4.29082029388845,2.3029925722286104,-0.12800057616494595
1700515534147171300,2.21317138671875,-3.9648979024618862,2.786333430549502,0.018929741397500036
1700515534157181200,2.22318115234375,5.918292900905013,-2.1915767087049782,0.19023714251052587
1700515534167191300,2.23319140625,2.510184247073531,-2.23071497926414,-0.566911779520288
1700515534177202200,2.2432021484375,-6.203007668152451,3.02679287648499,0.43109789925590153
1700515534187212300,2.25321240234375,-1.4165952293962238,1.8580334670111536,-0.46880898655615744
1700515534197222100,2.26322216796875,5.439350862064957,-2.6707436423420905,0.5464164693064988
1700515534207232300,2.273232177734375,1.3705226295292376,-1.131703498146683,-0.6043359761705621
1700515534217242400,2.283242431640625,-5.485022479915618,2.63313696526438,0.08359806493464857
1700515534227252200,2.293252197265625,-1.313158235797286,2.1983128850921987,0.15040617697946726
1700515534237262300,2.303262451171875,7.176189268207549,-3.9253403835773466,-0.10648729368080384
1700515534247272200,2.313272216796875,-1.2310235579460858,0.21140147455967961,-0.2342706377653405
1700515534257282300,2.3232822265625,-6.155066936326026,3.006256868934631,0.0801695152580738
1700515534267292200,2.333292236328125,1.481308816847205,0.7763525484662502,-0.02265081688039936
1700515534277303300,2.34330322265625,5.605777688062191,-3.588592062231898,0.2128291692752391
1700515534287313200,2.353313232421875,-1.5127596016436815,0.8409893443539738,-0.45534269819632167
1700515534297323300,2.3633232421875,-5.578968591591716,2.8290488289430735,0.1087543070310261
1700515534307333000,2.3733330078125,2.212999289831519,0.48981093111783264,0.35921829263307153
1700515534317343200,2.38334326171875,6.212302735242247,-4.122245934468507,-0.5484191874310373
1700515534327353300,2.393353271484375,-4.366746180227398,2.18238349455446,0.2427444150675088
1700515534337363200,2.40336328125,-4.6057729630112645,2.5845360159635544,-0.40593883501477535
1700515534347373300,2.413373291015625,3.8798645805597305,-0.76307878700383,0.39245921224933117
1700515534357383200,2.423383056640625,4.259992609426379,-3.118081167128682,-0.3138933327956125
1700515534367394300,2.433394287109375,-3.8418665660768747,2.1245506065279245,-0.2296341736037284
1700515534377404200,2.443404052734375,-4.377344146609306,2.867635164707899,0.029651407224312424
1700515534387414300,2.453414306640625,5.394486468943954,-1.832377924489975,0.31386790609341114
1700515534397424000,2.463424072265625,3.223454097226262,-2.580352592799067,-0.6750141345817595
1700515534407434200,2.473434326171875,-6.0728451647132635,2.9735014312803743,0.4551352294581011
1700515534417444400,2.4834443359375,-1.958884828031063,2.023054225602746,-0.41794535302035507
1700515534427454200,2.4934541015625,5.439430357041955,-2.5329040284037587,0.48835492362324145
1700515534437464300,2.50346435546875,1.586302976760268,-1.361469262240827,-0.5222039286678657
1700515534447475200,2.51347509765625,-5.133390477693081,2.495734281438589,0.006973848467459902
1700515534457485300,2.5234853515625,-1.706103660660982,2.317490468658507,0.1771385914845392
1700515534467495200,2.5334951171875,6.87782533031404,-3.6506191870778797,-0.10124320988170803
1700515534477505300,2.54350537109375,-0.8396212708711623,-0.001484539469331503,-0.27740740337613967
1700515534487515100,2.55351513671875,-5.848046813768148,2.6007991685003042,0.1417930916713085
1700515534497525200,2.563525146484375,1.01678284137249,1.076401151511073,-0.07078234943803399
1700515534507535000,2.57353515625,5.510577776932716,-3.293129106476903,0.19710001401733607
1700515534517546200,2.583546142578125,-1.219773849657178,0.6311087226860225,-0.4623291230175644
1700515534527556000,2.59355615234375,-5.4946250055193895,2.4464529486581683,0.11874854449927806
1700515534537566200,2.603566162109375,1.9647376457124948,0.8725489963524043,0.26910690028164536
1700515534547576000,2.613576171875,6.025650282818079,-3.8445226335436105,-0.4774361643217504
1700515534557586200,2.623586181640625,-4.157892417389154,1.7843414772041142,0.2641451862210408
1700515534567596300,2.63359619140625,-4.385597011169791,2.287008236633241,-0.39721575912665574
1700515534577606100,2.643606201171875,3.9925539711505174,-0.35702158630639313,0.2916856657059863
1700515534587616300,2.6536162109375,3.5258839693844317,-2.7893507325440643,-0.1432423497647047
1700515534597627100,2.663627197265625,-3.3345003967851397,1.6992206231489777,-0.2858913732787594
1700515534607637200,2.67363720703125,-4.056336415231228,2.3589853853464127,0.03114434919580817
1700515534617647000,2.683647216796875,4.943128602600098,-0.9706918290659785,0.3327820480629802
1700515534627657200,2.6936572265625,2.9113106403052806,-2.5173224283903837,-0.6299960122037679
1700515534637667000,2.7036669921875,-5.427023295411467,2.2980051392048595,0.4983055685449391
1700515534647677200,2.71367724609375,-2.1435288632422687,1.8375487512566149,-0.521958319876343
1700515534657687300,2.723687255859375,5.390792290601134,-1.5195125830352305,0.3966618150383234
1700515534667698200,2.7336982421875,1.216942425623536,-1.575021704289317,-0.32365868427827954
1700515534677708000,2.7437080078125,-4.488651142930984,1.8010924132578074,-0.10645791232269257
1700515534687718100,2.75371826171875,-1.7564894475519657,2.3006413329273463,0.0641138679921627
1700515534697728300,2.763728271484375,6.233090671727061,-2.281689379698038,-0.00725680272784084
1700515534707738000,2.773738037109375,-0.6685936730802059,-0.8124125075586139,-0.18100798026379197
1700515534717748200,2.783748291015625,-5.39396975159347,1.9425334126889704,0.16790413200818002
1700515534727758000,2.793758056640625,1.5989543685406447,1.2938731050908565,-0.36836573141310364
1700515534737769200,2.803769287109375,3.8457612354278563,-1.9607316249415276,0.45759968334287404
1700515534747779000,2.813779052734375,-1.0879092184752226,-0.3156748459175229,-0.3407661786846816
1700515534757789200,2.8237890625,-3.6594127343863248,1.493409296746552,-0.2205935196664184
1700515534767799000,2.833799072265625,1.4004612561970948,1.5203215613305567,0.28774894731156525
1700515534777809200,2.84380908203125,3.9770015972316264,-2.4588714084655043,-0.17640841404646634
1700515534787819300,2.8538193359375,-2.17467218952477,0.40365737301409244,-0.14095840354599057
1700515534797830100,2.863830078125,-4.041498327061534,1.5466311838462947,0.049314066006243225
1700515534807840000,2.873840087890625,3.1574615758806464,0.6670710666228086,-0.19888430361822246
1700515534817850000,2.88385009765625,2.4997248123794793,-1.8258628435075281,0.3795587045460939
1700515534827860200,2.893860107421875,-1.4098241278260946,0.15514029282927513,-0.5642243670672178
1700515534837870000,2.9038701171875,-4.012698349034786,1.7707700479693709,0.29422409814242273
1700515534847880200,2.913880126953125,3.368918799215555,0.79799651725851,-0.2294984549274668
1700515534857891300,2.923891357421875,3.2935493777155873,-2.5251392396211623,-0.026225012972205877
1700515534867901400,2.9339013671875,-4.142170532122254,0.9622159694045781,0.14476817109249532
1700515534877911300,2.943911376953125,-2.6159850471943615,1.6488476957395672,-0.34680388794634487
1700515534887921400,2.95392138671875,4.16672162053287,0.27195933057069777,-0.07842983198389411
1700515534897931000,2.963930908203125,1.1064958455234766,-2.1132047443881627,0.5460022259498015
1700515534907941000,2.973941162109375,-2.344224454066157,0.8257653986718505,-0.8186693029310553
1700515534917952300,2.9839521484375,-2.14703248744905,1.732985822367668,0.3591480769410729
1700515534927962400,2.99396240234375,3.301990458324551,0.22716581072881817,-0.05720511151701212
1700515534937972200,3.00397216796875,1.887387864050269,-2.35895805894807,-0.11292736406512557
1700515534947982300,3.013982421875,-4.102560990789533,1.4210355499312282,0.09979241741835139
1700515534957992200,3.0239921875,-0.6709171475917101,1.2136810126747934,-0.3855351486071944
1700515534968002300,3.034002197265625,2.5468285088598726,0.37945283301882443,0.0944104777848348
1700515534978013200,3.04401318359375,1.507562617522478,-2.3245078000746666,0.18608349342979488
1700515534988023300,3.054023193359375,-3.03706935582757,1.189899812658131,-0.48479726767428216
1700515534998033400,3.064033447265625,-0.2161965268164873,1.7117432739831506,0.09215640611457637
1700515535008043300,3.074043212890625,2.0224591823190448,-0.03970649890117347,0.1549632922945544
1700515535018053400,3.084053466796875,1.6656483161538838,-2.352795152404159,-0.229941449454613
1700515535028064300,3.094064208984375,-4.434359580773115,1.49787036780864,0.1785994578173384
1700515535038074400,3.104074462890625,0.8437292907118796,1.5990940692722797,-0.5369426481163129
1700515535048084200,3.114084228515625,1.8237059577345847,-0.6197057235315442,0.7368783970162271
1700515535058094300,3.12409423828125,0.4788379939436912,-1.4276950078204274,-0.5582924197349697
1700515535068104200,3.134104248046875,-1.4763123237341642,0.9320641383774578,-0.10391126004718243
1700515535078114300,3.1441142578125,-1.301623280826211,2.292926228505373,-0.025018861185992135
1700515535088125200,3.154125244140625,2.799632472583651,-1.4015731629617512,0.3793287682477385
1700515535098135300,3.16413525390625,0.37186698099970816,-1.0821221595063806,-0.4994417329680174
1700515535108145200,3.174145263671875,-2.5151988603651523,1.1438006901104003,0.17749796284884214
1700515535118155300,3.1841552734375,-0.8293985675424337,1.8007411156021058,-0.28852731127291914
1700515535128165000,3.1941650390625,2.9458406864166258,-1.453312702549249,0.6249206817008555
1700515535138176300,3.20417626953125,0.4528834684759378,-0.7660686895348131,-0.6990818233896047
1700515535148186000,3.21418603515625,-2.602386729952693,1.1757442999251186,0.08605783351114951
1700515535158196200,3.2241962890625,-1.038446391648054,2.1867909357331694,-0.0671525050356984
1700515535168206300,3.234206298828125,4.241678369578719,-2.127535467557609,0.22043748885449022
1700515535178216200,3.24421630859375,-1.2987298974722623,-0.6257162159927189,-0.24333397845849394
1700515535188227000,3.25422705078125,-2.532444594198465,1.8099980426385998,-0.22929537010341883
1700515535198237200,3.2642373046875,0.05811550436019897,1.3005809321664272,0.18323720062058418
1700515535208247300,3.274247314453125,3.168398564958572,-1.903598701877892,0.27706359490714966
1700515535218257200,3.284257080078125,-0.49463645157814023,-0.24092684425152835,-0.6121296987866982
1700515535228267300,3.294267333984375,-2.464271806204319,1.7201427074074744,0.05952247594813816
1700515535238279200,3.304279052734375,0.008099719825387,1.3164148995056748,0.24215276931729166
1700515535248289000,3.3142890625,3.956830331340432,-2.379171994937211,-0.23362561786007136
1700515535258299100,3.324299072265625,-2.0765134285897013,0.06076806469559669,0.01446560159549117
1700515535268309000,3.33430908203125,-2.556357384705543,2.1683906250372527,-0.46755222796071316
1700515535278319000,3.344319091796875,1.4959820698440074,0.32233854159042236,0.46777613637708126
1700515535288330000,3.354330078125,2.4562141719549895,-2.0674273280754685,-0.14866025576074607
1700515535298340000,3.364340087890625,-1.268056526789069,0.6173435244448483,-0.42530981737375256
1700515535308350200,3.37435009765625,-2.6715076124519106,2.194554701602459,-0.021936047074012456
1700515535318360000,3.384360107421875,1.837263942965865,-0.22887824066989124,0.4581511066805571
1700515535328370200,3.3943701171875,2.8902321964412927,-2.0079228535749016,-0.5050100346196442
1700515535338381000,3.404381103515625,-2.9243717819303274,0.7905904787857085,0.19632497452422976
1700515535348391200,3.41439111328125,-2.193790146970749,2.173806950997561,-0.4417940287826583
1700515535358401000,3.424401123046875,2.606933141210675,-0.6777399793490767,0.6630696489617228
1700515535368411100,3.4344111328125,2.1269769568920136,-1.6218097589492797,-0.5545637911332771
1700515535378421000,3.4444208984375,-2.4314801281929013,0.939190775386989,-0.025310930334590375
1700515535388432100,3.45443212890625,-2.468967270544171,2.526459090048075,-0.07514993353039026
1700515535398442000,3.46444189453125,3.801100255924463,-1.48580349791795,0.38223406123518944
1700515535408452000,3.4744521484375,1.167814529839158,-1.318618839290738,-0.42615043291635807
1700515535418462000,3.4844619140625,-3.634465924656391,1.32006962262094,0.14208710618182085
1700515535428472000,3.49447216796875,-0.8929577242612838,1.955303024021536,-0.21903964128792286
1700515535438483000,3.50448291015625,3.2658301806628702,-1.8631730218566953,0.6129999422825873
1700515535448493000,3.5144931640625,0.9308540319353341,-0.49614787905439733,-0.7432956436473875
1700515535458503000,3.5245029296875,-3.0586586718231437,1.2813370102532207,0.07164305792059748
1700515535468513000,3.534512939453125,-1.2173346398115157,2.047717249955237,0.10832242755293846
1700515535478524200,3.544524169921875,4.4182840597629545,-2.3855749938473103,0.0324157573711127
1700515535488534000,3.554533935546875,-0.41958559450805183,-0.17076880072429776,-0.2884510676989332
1700515535498543900,3.5645439453125,-3.7737808718442913,1.7082213834673166,-0.12225582196787
1700515535508554000,3.574553955078125,0.5426712914288043,1.2421768201231955,0.12913122416269032
1700515535518565000,3.584565185546875,3.310448490068316,-2.2868201667152346,0.18334570249635726
1700515535528575200,3.5945751953125,-0.39783085881769653,0.28996837692670524,-0.598636887746118
1700515535538585000,3.604585205078125,-3.1866046682566402,1.7604720874473452,0.007576426603645086
1700515535548595200,3.61459521484375,0.4636854329973459,0.85945541376248,0.4286064477663487
1700515535558605300,3.624605224609375,3.96427480212748,-2.3503397220760585,-0.3791762445671484
1700515535568616200,3.6346162109375,-1.7574749514579773,0.5424983460146934,0.017707433060929176
1700515535578626000,3.6446259765625,-3.2723119438976047,1.940922762621939,-0.37861568807493895
1700515535588636200,3.65463623046875,1.5816022517234085,0.3047661330860108,0.4759806317511946
1700515535598646300,3.664646240234375,3.1173142744094133,-2.041217074280977,-0.3014636940071359
1700515535608657200,3.6746572265625,-1.2698293816804884,0.6450554149739444,-0.28112952917180956
1700515535618667000,3.6846669921875,-3.5746985614359374,2.2071944029450417,0.01592726251273416
1700515535628677000,3.694677001953125,2.3405255995482204,-0.21638949210532007,0.3733722709961235
1700515535638687200,3.704687255859375,3.191069830971956,-2.0823012182109055,-0.5144070642465726
1700515535648698000,3.714697998046875,-3.2490228382468223,0.8915063564091921,0.30721436648834494
1700515535658708000,3.7247080078125,-2.3724673827320335,2.1201582167878747,-0.5108737024886534
1700515535668718000,3.734718017578125,2.807451621901989,-0.8765683880615979,0.6587550006330013
1700515535678728200,3.744728271484375,2.1253560776919125,-1.3733654517397285,-0.5708723171817138
1700515535688739000,3.754739013671875,-2.2692039921343325,0.8202149980030954,-0.03399414913635701
1700515535698749200,3.764749267578125,-2.589633631363511,2.437722675844282,-0.02358092820420861
1700515535708759000,3.774759033203125,3.4836885032117366,-1.4045045402385294,0.3717406512062996
1700515535718769200,3.78476904296875,1.7590087368965148,-1.1772439638983458,-0.5905665036130696
1700515535728780000,3.794780029296875,-3.7473739264339208,1.1036095494974405,0.4060155169801786
1700515535738790100,3.8047900390625,-1.3417623989909886,1.9497098801895976,-0.43164643651675433
1700515535748800000,3.814800048828125,3.4726509763687847,-1.5635095456719397,0.6494303421225398
1700515535758810000,3.82481005859375,1.2447481319159268,-0.7805588410496711,-0.7650779249317944
1700515535768821000,3.834821044921875,-3.188697841143608,1.202050634505227,0.17477350632101296
1700515535778831000,3.8448310546875,-1.6308932291150091,2.192614673450589,-0.09177340727951377
1700515535788841000,3.854841064453125,4.871234163734316,-2.270724333569407,0.0860184970146045
1700515535798851000,3.86485107421875,-0.39168461114764214,-0.44495815536938604,-0.25032573704198
1700515535808862000,3.874862060546875,-4.04318467271328,1.7128689170122147,-0.0754107398910448
1700515535818872000,3.8848720703125,0.3726929104298353,1.2472981086596846,-0.040446905472315844
1700515535828882000,3.8948818359375,3.685208854421973,-2.3217370201870797,0.3350026832545176
1700515535838892000,3.90489208984375,-0.4170604599446058,0.209458377667889,-0.6377288714781403
1700515535848903200,3.914903076171875,-3.363880805048346,1.6867068862736223,0.020351764424098653
1700515535858913300,3.924913330078125,0.352846054187417,1.0920032828558235,0.3121441510407254
1700515535868923100,3.934923095703125,4.641257533368468,-2.6702193262070417,-0.3924594314450398
1700515535878933200,3.944933349609375,-2.0706652870833873,0.6783142721056937,0.13915639562532306
1700515535888944000,3.954944091796875,-3.739866911804676,2.1785279881700874,-0.3508804897354916
1700515535898954200,3.964954345703125,1.6680945402622223,0.09708397131040691,0.4241048985633999
1700515535908964000,3.974964111328125,3.41167423735857,-2.0430977734610436,-0.13871570265311747
1700515535918974200,3.98497412109375,-1.5983558181256055,0.8958655745320021,-0.1481500412162859
1700515535928985000,3.994985107421875,-3.7202825058907267,2.276794739524275,-0.15399167078342288
1700515535938995200,4.0049951171875,2.380609188133478,-0.44563181684724984,0.48150001622717825
1700515535949005000,4.015005126953125,3.8736183796465395,-1.741644929641485,-0.4638860701359808
1700515535959016200,4.02501611328125,-3.4535488010138273,1.0518812619563191,0.3894046104516834
1700515535969026000,4.035026123046875,-2.922731028985977,2.00898478371799,-0.6909356340739876
1700515535979036200,4.0450361328125,2.9632471637696027,-0.8194310080185532,0.7118976850166916
1700515535989046000,4.0550458984375,3.0983763497054575,-1.4400209670387207,-0.678737173692882
1700515535999057200,4.06505712890625,-2.7284575801640747,0.7846011021777987,0.04038805142454803
1700515536009067000,4.07506689453125,-3.4695150164306163,2.3484100691877305,-0.2255775916893035
1700515536019077000,4.0850771484375,3.9055157391667366,-1.5243794584192334,0.3970229765009135
1700515536029087000,4.0950869140625,2.789049119248986,-1.0431677941467612,-0.6178499395970255
1700515536039098000,4.10509814453125,-4.682164128774405,1.077035723087564,0.4822713293932378
1700515536049108000,4.11510791015625,-1.7755688265532255,1.8561925153195857,-0.5281916978405788
1700515536059118000,4.1251181640625,3.844372411417961,-1.6128873245641588,0.6901432415872811
1700515536069129000,4.13512890625,1.9285136551648376,-0.5457479223951697,-0.6697055798448622
1700515536079139000,4.14513916015625,-3.5211996109604833,0.9387045993052422,0.15491368099916725
1700515536089149000,4.15514892578125,-2.378091652354598,2.3966268414765595,-0.22425624342504888
1700515536099159000,4.165158935546875,4.6844209677904844,-2.1875150122240186,0.16277363725192845
1700515536109170200,4.175170166015625,1.400332076859474,-0.21601715166158972,-0.6043076268589124
1700515536119180300,4.18518017578125,-5.018938169082999,1.0294465081125497,0.3180681342622265
1700515536129190100,4.195190185546875,-0.7488812617599964,1.7099164969474077,-0.41351193715017287
1700515536139200000,4.205199951171875,4.190136398389935,-1.926666858254373,0.5941069161662832
1700515536149211100,4.215211181640625,1.131465451607108,-0.2541527479842305,-0.8231139343149959
1700515536159221200,4.22522119140625,-4.326121908894181,1.0169609744183719,0.2828541610073298
1700515536169231000,4.235231201171875,-1.3082219484388828,2.3749754200302062,-0.1414837060617283
1700515536179242200,4.2452421875,5.3377071816235775,-2.6811934324249624,0.09423760543595999
1700515536189252000,4.255252197265625,-0.4874024086713791,-0.18346432390734552,-0.13781564854085446
1700515536199262200,4.26526220703125,-4.469584623411298,1.582654975646734,0.05362791061736643
1700515536209272000,4.27527197265625,0.5556640439927578,1.4727939403496682,0.10946820005457848
1700515536219283200,4.285283203125,3.9519688627839087,-2.384504003614932,0.33221634047161785
1700515536229293000,4.29529296875,-0.22090309707224368,0.28152415451258417,-0.5346736437384039
1700515536239302400,4.305302490234375,-3.6111183668166396,1.5722408413991331,0.05608088412689976
1700515536249313300,4.315313232421875,0.04797404957413673,1.3882954559765754,0.31251853731106966
1700515536259323400,4.325323486328125,4.7018286141872405,-2.6039316213071344,-0.36664219555612654
1700515536269333200,4.335333251953125,-1.4783271706879137,0.5474064301919191,0.0789039066358935
1700515536279343400,4.34534326171875,-4.119599219352007,1.7502108056738972,-0.391233689042367
1700515536289354500,4.3553544921875,1.5552555120676754,0.6844383810091763,0.34213878221213817
1700515536299364600,4.365364501953125,3.6560564096957444,-2.330099482601881,-0.0626124139206484
1700515536309374500,4.37537451171875,-1.2350748791635036,0.6110077455520629,-0.29836064995788036
1700515536319385600,4.385385498046875,-3.8415713825225826,2.2719658580631017,-0.09410137530304491
1700515536329395500,4.3953955078125,1.718821103414893,0.07747260432429612,0.4992964427458122
1700515536339405600,4.405405517578125,3.9734833599776027,-2.326093754091859,-0.40776882692091165
1700515536349416400,4.41541650390625,-2.8625182600855825,0.7041000168778002,0.3573300677336752
1700515536359426600,4.425426513671875,-2.8866929163992405,2.421185382541269,-0.6862165696628392
1700515536369436400,4.4354365234375,2.295236843535304,-0.39602614748328924,0.7147898262616247
1700515536379446500,4.445446533203125,2.8189363079905507,-1.857344315703213,-0.5108660306388512
1700515536389457400,4.45545751953125,-2.075494606935978,0.6733531425669789,-0.020025217617163433
1700515536399467500,4.465467529296875,-3.0558406917929646,2.9600504135549066,-0.2693138575632125
1700515536409477400,4.475477294921875,3.3441274723082777,-0.9831696909103542,0.35438955730237065
1700515536419488500,4.485488525390625,1.3687825078636406,-2.0398367258384824,-0.37938601486030965
1700515536429498400,4.495498291015625,-2.6555326292067765,1.0823908934451638,0.2584258221935481
1700515536439508500,4.505508544921875,-1.4596569570094347,2.7143454681813717,-0.6795327079847454
1700515536449519400,4.515519287109375,2.773827584719658,-1.3187386662781238,0.7583551194828003
1700515536459529500,4.525529541015625,0.45833647318482396,-1.7577632668800651,-0.7085586037218571
1700515536469539300,4.535539306640625,-2.0445517716616393,1.5214401900969445,0.06721881173755972
1700515536479550500,4.545550537109375,-0.09665010993778705,2.2156971506133676,-0.1515033610990271
1700515536489560300,4.555560302734375,2.5580712028861043,-1.8927210417717695,0.1770096678752452
1700515536499570400,4.5655703125,-0.22442425693571566,-0.7779949819110333,-0.3924367812218144
1700515536509580300,4.575580322265625,-3.699228027424216,1.7884255316473543,0.26899759468827394
1700515536519591700,4.585591796875,2.5403707110226152,0.812584064733237,-0.36201161314602937
1700515536529601500,4.5956015625,1.7831740408599375,-1.7412787266775964,0.4072283999012783
1700515536539611600,4.605611572265625,-0.8966659311294555,-0.16233166563808918,-0.42830231372062116
1700515536549622500,4.61562255859375,-3.6717630973935127,1.8639571579717098,0.20603074130676685
1700515536559632600,4.625632568359375,3.456562595877051,0.5730428296212107,-0.1657586078794673
1700515536569642500,4.635642578125,2.6528222012043,-2.473162384146452,-0.05386661474406719
1700515536579653400,4.6456533203125,-4.222795389932394,0.9594069033332169,0.32104956122580913
1700515536589663500,4.65566357421875,-2.0113480057179927,1.7850415882974862,-0.5629832809649408
1700515536599673600,4.665673583984375,4.045821450957655,-0.02907229216210544,0.25282727153413
1700515536609684500,4.6756845703125,1.172012566050887,-2.0853360558621583,0.25392639188244936
1700515536619694600,4.685694580078125,-3.0148616156727073,1.0610963226124643,-0.5704532515194267
1700515536629704400,4.695704345703125,-1.8473902001827953,2.001666715789586,0.28452107130624354
1700515536639715300,4.70571533203125,4.129965130543709,-0.2865623678755015,-0.04901950350645929
1700515536649725400,4.715725341796875,1.032545643171668,-2.136172655260563,-0.10190040428196079
1700515536659735600,4.725735595703125,-4.845202481377124,1.5809741829529405,0.2863280476629734
1700515536669746400,4.735746337890625,0.41323768678605555,1.500393456545472,-0.5596900115732103
1700515536679756300,4.74575634765625,3.156311236801743,-0.38351825582683086,0.4076735133202746
1700515536689766400,4.755766357421875,0.47440907158553597,-1.9565840037427842,-0.1566989935133606
1700515536699776500,4.765776611328125,-3.7542210158497094,1.6448840528056023,-0.3078897084666416
1700515536709787400,4.775787353515625,0.2970359041601419,1.8100252229064702,0.010469663827121257
1700515536719797200,4.78579736328125,3.996570221054554,-1.2711001322686672,-0.03959120195843279
1700515536729807400,4.795807373046875,-1.0758487783253192,-1.308305535069108,-0.09688764502070843
1700515536739818500,4.805818603515625,-4.551762555882334,1.9332075120694934,0.061108767892047756
1700515536749828600,4.81582861328125,2.5942694744706154,1.0415019067611544,-0.4378645803792402
1700515536759838500,4.82583837890625,2.7363679148972033,-1.569706646746397,0.45219837228860704
1700515536769849600,4.835849609375,-1.4197124846339224,-0.6194258836768567,-0.4445973227003589
1700515536779859500,4.845859375,-3.1258371880829334,1.7287983075499533,-0.14329247251674532
1700515536789869600,4.85586962890625,0.9539707036286592,1.5889119902148843,0.32111502767745403
1700515536799880400,4.86588037109375,5.014792155319452,-3.1596213842630383,-0.31304489927273244
1700515536809890600,4.875890625,-2.6097598890691995,0.9053168550968169,-0.17458693424034863
1700515536819900400,4.885900390625,-4.694166701257228,2.1010610098689795,0.19681027382314203
1700515536829911600,4.89591162109375,2.5931904470622538,0.5630735895968974,-0.16370375770889223
1700515536839921400,4.90592138671875,4.546255775159597,-3.0934727955728767,0.2755360565463081
1700515536849931500,4.915931640625,-2.3513503604233263,0.8350706948947161,-0.37748719550166276
1700515536859942400,4.9259423828125,-4.991299051529169,2.417905484087765,0.25033479713127016
1700515536869952500,4.935952392578125,2.8941297884017225,0.775104448101297,-0.0777728019804228
1700515536879962400,4.94596240234375,5.985720423489808,-3.845407015162706,-0.3184359446613118
1700515536889973500,4.955973388671875,-5.533816613700986,1.7709455506667493,0.47041298768669365
1700515536899983400,4.9659833984375,-3.7631507567584515,2.4806080239772794,-0.4717169829573482
1700515536909993500,4.975993408203125,4.279739512425661,-0.5736771089367568,0.18092994659151881
1700515536920004400,4.98600439453125,3.9087621737420557,-3.05727598529309,-0.03443766425331123
1700515536930014500,4.996014404296875,-4.181606470453739,2.006946263627708,-0.22291739603672175
1700515536940024300,5.0060244140625,-4.015926078909636,2.6559055541723966,0.10471534297168254
1700515536950035500,5.016035400390625,4.929485861694812,-0.9619594373602419,0.13918233378417788
1700515536960045600,5.026045654296875,4.125999149522185,-3.2062720762789247,-0.6610400428302585
1700515536970055700,5.0360556640625,-6.689145755976438,2.9464938896283503,0.7777274170160293
1700515536980066600,5.046066650390625,-2.111330474948883,2.1406929091639815,-0.692993735647574
1700515536990076400,5.056076416015625,5.401489625704288,-1.93129744066447,0.48315308066383
1700515537000087600,5.066087646484375,2.2429157046675683,-2.0380445817247033,-0.3437443542452529
1700515537010097400,5.076097412109375,-5.297206828930974,2.4856156230062245,-0.011343935044156386
1700515537020107500,5.086107421875,-2.250553067678213,2.4225147314488886,0.034356370044872166
1700515537030118400,5.096118408203125,6.559637917053699,-2.676513165654242,0.0663418736394029
1700515537040128500,5.10612841796875,0.9567951133996248,-1.3790256694585084,-0.5052251021424308
1700515537050138400,5.116138427734375,-6.7505468578785655,2.787238270434737,0.5277321175048127
1700515537060149500,5.1261494140625,0.05105915610790252,1.5709408647164702,-0.5491881625095382
1700515537070159400,5.136159423828125,5.602632960295677,-2.79716374438256,0.4124408738525584
1700515537080169500,5.14616943359375,0.4084136276304722,-0.6771616680044681,-0.6856639042161404
1700515537090180400,5.156180419921875,-6.258465936002135,2.7446307163298127,0.3763736082365736
1700515537100190500,5.1661904296875,-0.00850713158249855,1.8214254455819725,-0.023357713907584548
1700515537110200300,5.176200439453125,7.58774060934186,-4.064124000367522,-0.4429392167624086
1700515537120211500,5.18621142578125,-2.5200936466693875,0.25641952387243505,-0.07551683061402291
1700515537130221300,5.19622119140625,-5.983596270942687,3.2257787407815455,0.00590442913766019
1700515537140231400,5.2062314453125,2.331166235050559,0.19025982926636933,0.11147321973405777
1700515537150242600,5.21624267578125,5.416270430728793,-3.623928164029121,-0.07209065555762499
1700515537160252700,5.226252685546875,-1.9635376222729681,1.14637222109884,-0.5100933292333036
1700515537170262500,5.236262451171875,-5.305640310755372,2.3836279514327643,0.313661642931588
1700515537180273400,5.2462734375,2.5389807179689408,0.4709455601934343,0.2528173711946234
1700515537190283500,5.256283447265625,6.031439972135424,-3.861198750795424,-0.6631777855113148
1700515537200293600,5.266293701171875,-4.693799621510506,2.279100532248616,0.41587139629051084
1700515537210304500,5.276304443359375,-4.446318898636102,2.57286895904541,-0.27116127552818503
1700515537220314600,5.286314697265625,4.007136623254418,-0.5719383024454117,0.30465912904758
1700515537230325500,5.296325439453125,4.222935090664029,-2.9674048679709433,-0.28659367632921784
1700515537240336000,5.3063359375,-4.1475130621939895,2.154365022294223,-0.024847367943450806
1700515537250346000,5.316345947265625,-4.309858756357431,2.6869933508753774,0.14937139057163148
1700515537260356900,5.32635693359375,5.104386501526832,-0.9722605396874249,0.08414952480494975
1700515537270367000,5.336366943359375,3.7280841195523737,-2.889564087921381,-0.5271223515760153
1700515537280376800,5.346376953125,-6.433366575834155,2.7192989989355203,0.5619237619746477
1700515537290388000,5.356387939453125,-1.9859563748300075,2.184801953873038,-0.606516535080038
1700515537300397800,5.366397705078125,4.999103587800264,-1.7874780216641724,0.5527669343117624
1700515537310408000,5.376407958984375,2.564952194571495,-1.9630852023303507,-0.6450738274134695
1700515537320418800,5.386418701171875,-5.3143309822112315,2.3418518797159193,0.07124087032787502
1700515537330429000,5.396428955078125,-2.5224393330127,2.392037321729213,0.08472272158302366
1700515537340438800,5.406438720703125,6.688558311477303,-2.6456606390118598,-0.14187241311836987
1700515537350450000,5.416449951171875,1.0897685826063155,-1.567884399755299,-0.49092696606833486
1700515537360459800,5.426459716796875,-6.913815512105822,2.85516526697427,0.5230498414400965
1700515537370470700,5.436470703125,0.28627368712723256,1.2747191995486615,-0.479984716293402
1700515537380480800,5.446480712890625,5.421431174492835,-2.891853952424228,0.4389978952581063
1700515537390491000,5.456490966796875,0.433031936058402,-0.4834660921357572,-0.6626891252115369
1700515537400501800,5.466501708984375,-5.473016984823346,2.1105326025694606,0.24021493312250822
1700515537410511600,5.47651171875,-0.42756314925849437,1.950553929798305,0.1373658224141225
1700515537420521700,5.486521728515625,7.01167558235526,-3.5852225857987996,-0.32973394907135517
1700515537430532900,5.496532958984375,-1.692369734340906,0.24822284647859633,-0.1092206550342962
1700515537440543000,5.50654296875,-6.240062264305353,2.6414441903606054,0.2686362870952114
1700515537450552800,5.516552734375,2.2870225574195384,0.7822751434482633,-0.23469635236412284
1700515537460564000,5.52656396484375,5.045915607857704,-3.3670506672561165,0.2715495807260275
1700515537470573800,5.53657373046875,-1.8022791388243435,0.9417037080559879,-0.43827816614881154
1700515537480585000,5.5465849609375,-4.92764403322041,2.090010477413982,0.2001254262531176
1700515537490594800,5.5565947265625,1.702035972830653,1.1982844869047402,0.18771032744664698
1700515537500605000,5.56660498046875,6.0275838812291616,-3.7062750233262776,-0.45598227474149317
1700515537510615800,5.57661572265625,-3.8705712670356034,1.6139159369595348,0.24766557792201638
1700515537520626000,5.5866259765625,-4.617296812066436,2.2467694574862715,-0.22118319265525788
1700515537530635800,5.5966357421875,3.223053115209937,0.22860073890276253,0.21259119580090044
1700515537540647000,5.60664697265625,4.484515650561452,-3.1199206575155256,-0.1791502235678956
1700515537550656800,5.61665673828125,-2.9732495023459196,1.5526058743417261,-0.2521991296984255
1700515537560667000,5.6266669921875,-4.951279760351777,2.292400158804655,0.2891163632072508
1700515537570677800,5.636677734375,4.070678828838467,0.23761954633444546,-0.14658512998712248
1700515537580688000,5.64668798828125,5.008165430656075,-3.624911329847574,-0.4348198058558628
1700515537590699000,5.656698974609375,-6.13333207437992,2.3401405457533895,0.5270207178324461
1700515537600708600,5.66670849609375,-2.7589591014117,2.2105000203616916,-0.6865284851562231
1700515537610718700,5.67671875,4.58414857570231,-0.9874027253702282,0.4456008737197146
1700515537620729900,5.686729736328125,3.000976882705092,-2.548286598713696,-0.33073603878598656
1700515537630740000,5.696739990234375,-4.2336692506462335,2.000932702426612,-0.2021352317055687
1700515537640749800,5.706749755859375,-3.3716052618205548,2.4132848385497927,0.22878742058128118
1700515537650761000,5.716760986328125,5.277504934117197,-1.2890364787146449,0.014079671017825602
1700515537660770800,5.726770751953125,3.071882895055413,-2.6799375871449707,-0.5726934681942686
1700515537670782000,5.736781982421875,-6.79921531945765,2.7843106925502417,0.7349294549055397
1700515537680791800,5.746791748046875,-1.210172493097186,1.8074641402468083,-0.5895164831034839
1700515537690802000,5.756802001953125,5.217523635885119,-2.0192320369660854,0.4821194998323917
1700515537700812800,5.766812744140625,1.8296639893561601,-1.7045152224257587,-0.5410962971970439
1700515537710823000,5.776822998046875,-5.40452621692121,2.33198515021801,0.16485727512557058
1700515537720832800,5.786832763671875,-1.7451263420164584,2.317063183157146,0.05464570935778319
1700515537730844000,5.796843994140625,6.832955676496028,-2.927606233806908,-0.15120094408635049
1700515537740853800,5.806853759765625,0.12270926482379436,-1.0129518118422478,-0.31561902407705783
1700515537750864600,5.81686474609375,-6.78625354655385,2.8862539404600858,0.41179132390264417
1700515537760874800,5.826874755859375,0.9689800567120314,1.3143506604522466,-0.36479455839544533
1700515537770884900,5.836884765625,5.395908026179671,-3.1307541862189767,0.3280416120702401
1700515537780896000,5.84689599609375,-0.419521881622076,0.0027738486275076866,-0.565223607237637
1700515537790905900,5.85690576171875,-5.432746933755278,2.3129008027806877,0.22651089048404247
1700515537800917000,5.8669169921875,0.4146703499376774,1.7296318357646465,0.1604807405417785
1700515537810926800,5.8769267578125,6.770187962415814,-3.6159085237026214,-0.43672352058533576
1700515537820937000,5.88693701171875,-2.433817631229758,0.7923087539456785,0.039472324819117784
1700515537830947800,5.89694775390625,-5.846994089844823,2.3751779568649827,0.17813596849143504
1700515537840958000,5.9069580078125,2.6951988691627977,0.9520084636449814,-0.10727631603349
1700515537850967800,5.9169677734375,5.121608854484558,-3.6678935624837874,0.1464747558146715
1700515537860979000,5.92697900390625,-2.2081313915342093,0.923949951635301,-0.3201575808221474
1700515537870988800,5.93698876953125,-5.3649698670804495,2.7031460287749765,0.22246468383315948
1700515537880999700,5.946999755859375,2.7606366792351005,0.3559202740009874,0.02431573615162633
1700515537891009800,5.957009765625,5.941952008911967,-4.039806428451836,-0.5492763157170265
1700515537901020000,5.96702001953125,-5.2186342274755235,2.122196298486739,0.31779636811614037
1700515537911030800,5.97703076171875,-4.275950057014823,2.420888299290836,-0.4805004472631961
1700515537921041000,5.987041015625,4.203111030775308,-0.5939402908951044,0.2034954506754875
1700515537931051800,5.9970517578125,3.94484237190485,-3.1324463770896194,-0.296397898517549
1700515537941061600,6.0070615234375,-3.94704309681952,2.1382173128306863,-0.28717249913048
1700515537951071700,6.01707177734375,-4.280629739263653,2.841323496365547,0.15372973191160708
1700515537961083000,6.027082763671875,5.1156549145162105,-1.0123983426779508,0.04389419638197869
1700515537971093000,6.037093017578125,4.217707126882672,-3.1593735469818114,-0.6031964872792362
1700515537981103900,6.047103759765625,-6.447092318847775,2.952776915420592,0.6955177011672407
1700515537991114000,6.057114013671875,-2.1699778942286967,2.378886163733154,-0.5395126082021743
1700515538001123800,6.067123779296875,5.200092608612776,-1.9546477749831974,0.5027963406255468
1700515538011135000,6.077135009765625,2.8672207386881112,-2.0956685031756757,-0.44291320553831753
1700515538021144800,6.087144775390625,-5.521885352888703,2.6288258240669964,0.1832872503073886
1700515538031155000,6.097155029296875,-2.6286826162040233,2.5575577004060146,0.11602397837359457
1700515538041165800,6.107165771484375,6.9067170782774685,-2.9189027028694747,-0.06870631034895777
1700515538051176000,6.117176025390625,0.9746797296583652,-1.524663536057621,-0.29084132383633404
1700515538061186800,6.127186767578125,-7.129834928789735,3.065612728744745,0.5166317180261015
1700515538071196700,6.13719677734375,-0.0832154588252306,1.3902262779086827,-0.39484610738586634
1700515538081206800,6.147206787109375,5.790604678624868,-3.3346956270962953,0.35886615472715344
1700515538091217700,6.1572177734375,0.19973580588102338,-0.5180859354224056,-0.5114789749054238
1700515538101227800,6.167227783203125,-6.05345598911047,2.558917006060481,0.1964157215476036
1700515538111239000,6.177239013671875,0.4673591530740261,1.8946669151425362,0.09743413645494729
1700515538121248800,6.187248779296875,7.464092017841339,-4.738431374919414,-0.4321373253062367
1700515538131258600,6.197258544921875,-4.680481874775886,1.0862335403479635,0.042460948708467186
1700515538141270000,6.20727001953125,-4.333557027330994,3.574737432141602,0.0429554085613694
1700515538151279900,6.21727978515625,3.563897181436419,-0.8492400169573724,-0.11609291542395948
1700515538161291000,6.227291015625,4.4038013609021895,-2.9421543991193175,0.043356984232738614
1700515538171300900,6.23730078125,-3.0347447122722864,1.5175699245348573,-0.3783928391044959
1700515538181311000,6.24731103515625,-4.465223505592346,2.3019810570985078,0.23537761262655257
1700515538191321900,6.25732177734375,3.199900787681341,0.5380820639424025,0.14789569199588148
1700515538201332000,6.26733203125,5.487130265849828,-3.7004543543487785,-0.6547818592183291
1700515538211342800,6.2773427734375,-5.078065480834246,2.107868936318159,0.45103203192297364
1700515538221352700,6.287352783203125,-3.983637674245238,2.5007214222013947,-0.2785540891932323
1700515538231362800,6.29736279296875,4.269599226683378,-0.716437885729596,0.18216219180021434
1700515538241373400,6.30737353515625,3.8883459931790827,-2.8434745369195937,-0.3486821394409984
1700515538251383600,6.317383544921875,-4.001119554921984,2.0882475593946874,-0.08936123157124966
1700515538261394400,6.32739453125,-4.398852214062214,2.4491841271877286,0.15611987845115363
1700515538271404500,6.337404541015625,5.105052856481075,-1.018206955891475,0.014737513872049747
1700515538281414400,6.347414306640625,3.904876856741309,-3.062647449198365,-0.6111516475347801
1700515538291425800,6.35742578125,-6.564502892741561,2.8296289669185875,0.6897301307417452
1700515538301435400,6.367435302734375,-2.242412431320548,2.046334855686128,-0.6007823753422126
1700515538311446800,6.37744677734375,5.231856697142124,-1.7032327813997863,0.4190529854686931
1700515538321456600,6.38745654296875,2.3739655123353005,-1.9780097997397184,-0.4426347539231181
1700515538331466800,6.397466796875,-5.172652813023329,2.260097579484433,0.1147704711811617
1700515538341477600,6.4074775390625,-2.516315881696343,2.426713936704397,0.07276497462261468
1700515538351487700,6.41748779296875,6.233717279192805,-2.252183737619966,0.0232770498868078
1700515538361498600,6.42749853515625,1.6049878034859895,-1.5977680813655257,-0.5386798837050796
1700515538371508500,6.437508544921875,-6.649974606060981,2.6938211510688066,0.6514933390669524
1700515538381518600,6.4475185546875,-0.2882370961546898,1.5774574070036411,-0.5632974614806473
1700515538391529500,6.457529541015625,5.260626280030608,-2.5314123285412786,0.49484432217516
1700515538401539600,6.46753955078125,1.1993658524006605,-1.036424822692573,-0.8057409208402038
1700515538411550500,6.477550537109375,-5.360639728921652,2.2178569589957595,0.09134429514724761
1700515538421560600,6.487560546875,-1.2786322813391684,1.9542098219573496,0.09340656143929808
1700515538431570400,6.4975703125,6.882540083876251,-3.293121215431392,-0.14982885201554744
1700515538441581600,6.50758154296875,-0.5469043989539146,-0.40130218819007274,-0.5897114942189305
1700515538451591400,6.51759130859375,-6.508878620675206,2.6219287580296395,0.35141861520018425
1700515538461602600,6.5276025390625,1.0707628533631564,1.0949550453335046,-0.23029899418801067
1700515538471612700,6.53761279296875,5.330525745686888,-3.0724457896351813,0.35658706734664736
1700515538481623600,6.54762353515625,-0.4629302307158708,0.28274010617360473,-0.6196281282506882
1700515538491633700,6.557633544921875,-5.264627916887402,2.218561307872832,0.24661380384676157
1700515538501643800,6.567643798828125,0.3171580702126026,1.6387433580935,0.3057337360091507
1700515538511654700,6.577654541015625,6.874966433751583,-3.683132924930751,-0.3309941782655194
1700515538521664500,6.58766455078125,-2.472515318414569,1.1392350626952945,0.1268774538865313
1700515538531675600,6.597675537109375,-5.808273606306314,2.481120649674535,0.06831647078115492
1700515538541685500,6.607685546875,2.4695173056423663,0.6669251553460955,0.10840806000977754
1700515538551695600,6.617695556640625,5.031423556646704,-3.2083839538663623,0.12696319594122468
1700515538561706500,6.62770654296875,-2.0747697997927665,1.2694485656693577,-0.10726042434461414
1700515538571716600,6.637716552734375,-3.9671243463397023,1.7576906400352716,0.14254187334515153
1700515538581727500,6.6477275390625,14.409299278032778,-4.239770490130782,2.9324542583599684
1700515538591737600,6.657737548828125,-12.072325818008183,1.5206471400231123,-5.516271020138263
1700515538601747500,6.66774755859375,-9.744540457567572,5.904335102701187,2.214659624259174
1700515538611758600,6.677758544921875,5.566061179223657,-2.4826003668382763,1.0427834710042923
1700515538621768400,6.6877685546875,10.190070640671253,2.5909248402178284,-1.6723488367058337
1700515538631779600,6.697779541015625,-4.692708319142461,-5.494221685415506,0.6984267935469746
1700515538641789700,6.707789794921875,-0.6027466976851225,1.548568581649661,-0.05441537120062857
1700515538651800600,6.717800537109375,-2.6977076371133326,2.5753537615984676,-0.5969292070453986
1700515538661810700,6.727810791015625,3.7454888433396816,-0.2575896636303514,0.36473935760948806
1700515538671820500,6.737820556640625,1.6493191126435993,-2.467209028699994,-0.5149929743757471
1700515538681831700,6.747831787109375,-4.561770155155658,1.4765110611766576,0.16137367079351098
1700515538691841500,6.757841552734375,-0.7917126877486705,1.5917621189489959,-0.6095118809711187
1700515538701852700,6.767852783203125,2.9268162524729964,-0.7190322861369699,0.2924176332423463
1700515538711862500,6.777862548828125,1.1586164933830498,-1.4101236952945588,0.023514475371874868
1700515538721873400,6.787873291015625,-1.576067998471856,0.8105687063228338,-0.3721137223023921
1700515538731883500,6.797883544921875,-1.263241235461831,1.6832263506814837,-0.11664934373032301
1700515538741893600,6.8078935546875,0.9245669144898653,-0.7315770026724785,0.44303745297249403
1700515538751904500,6.817904541015625,1.509489201670885,-0.6663514471113682,-0.0034504692474380135
1700515538761914400,6.827914306640625,-1.628256450870633,0.2948931199777871,-0.05256524982191622
1700515538771925800,6.83792578125,-0.2501940734863281,1.4531190796732902,-0.19409326994940637
1700515538781935600,6.847935546875,0.43251814131736754,-0.5584860426109284,0.7231886751640587
1700515538791945700,6.85794580078125,1.0826847618252038,-0.36754838714823124,-0.3831136570813134
1700515538801956600,6.86795654296875,-1.084224977004528,0.48983124325349925,0.030194309328822416
1700515538811966700,6.877966796875,-0.3429039213657379,1.981458771149814,0.030837584801577028
1700515538821977600,6.8879775390625,1.4207599478602408,-1.1223370463211089,0.06428009140454233
1700515538831987700,6.89798779296875,-0.0684837536394596,0.07968699243813752,-0.02399926321413368
1700515538841998600,6.90799853515625,-1.9554630368888377,0.6057255673654377,-0.22600520598422735
1700515538852008700,6.9180087890625,0.6403729562461375,1.4908487986087797,-0.18658844727724788
1700515538862018600,6.9280185546875,0.45629707631170746,-1.2371508086547254,0.24070885411929338
1700515538872029400,6.938029541015625,0.5657523072868585,0.047269408436119556,-0.3858315012052655
1700515538882039600,6.94803955078125,-1.1511153239727019,0.61007375263758,-0.2062200533337891
1700515538892050400,6.958050537109375,-0.29567572172284123,1.5845231076061725,-0.03849730577450245
1700515538902060500,6.968060546875,1.7685662543147802,-1.7831006833627818,-0.03170428463350981
1700515538912071700,6.97807177734375,-1.0030793101906776,0.28159605070501564,-0.07410396814141422
1700515538922081800,6.988081787109375,-0.87701898137331,0.764780111028999,-0.502934324324131
1700515538932092700,6.9980927734375,0.7016665061205625,0.8434002048879862,0.11694376009963452
1700515538942102800,7.008102783203125,0.6752279965281486,-1.504182473564893,0.3463285620521754
1700515538952112600,7.018112548828125,-0.3897065890729427,0.26204291671216484,-0.3372849124401808
1700515538962123500,7.02812353515625,-0.4574538451313972,0.9809675777561963,-0.1522284970358014
1700515538972133600,7.038133544921875,0.558850857335329,0.725937097089365,0.2789533907091245
1700515538982144500,7.04814453125,1.5848013400256633,-1.835913697400689,0.236571352455765
1700515538992154600,7.058154541015625,-2.718748087054491,1.0620207439810037,-0.05486202812273986
1700515539002165500,7.06816552734375,0.8242892617046833,0.44521081495620307,-0.4704340304747224
1700515539012175600,7.078175537109375,0.32495968387424945,0.3547571485057473,0.3878316620465368
1700515539022185500,7.088185546875,0.8518576521098613,-1.1451564886335284,0.19579247508272526
1700515539032196600,7.098196533203125,-0.8857669359743595,0.39883338692374526,-0.44955801384765653
1700515539042206500,7.10820654296875,-0.7790624650120734,1.6680356496818363,-0.21662267980668692
1700515539052217600,7.118217529296875,0.5401297902524471,-0.2699617270126939,0.39888544590454544
1700515539062227500,7.1282275390625,1.1405325551599264,-0.8962873801406472,-0.19353300571814178
1700515539072238600,7.138238525390625,-1.7348849339872598,0.7188022767733782,-0.10211765462867915
1700515539082248700,7.148248779296875,-0.11434592562615871,1.3427613469004631,-0.40443372768145053
1700515539092259600,7.158259521484375,0.8451315587252378,-0.3200380095630884,0.5123595571322366
1700515539102269700,7.168269775390625,0.6860510038375854,-0.6435999554686248,-0.32916418635938316
1700515539112279600,7.178279541015625,-0.7483417480558157,0.45285964920893307,-0.44168125259056684
1700515539122290700,7.188290771484375,-0.550553569111228,1.8407172982901334,-0.06796911864820868
1700515539132300500,7.198300537109375,1.0639210246443749,-0.8197176429402082,0.09103372222757898
1700515539142311700,7.208311767578125,0.13520692734718323,-0.38538039643689986,-0.30117508632410317
1700515539152321500,7.218321533203125,-1.3645067302405833,0.4558208371020853,-0.1950338387351483
1700515539162332400,7.22833251953125,0.4761129528939724,1.1228132855307311,-0.37913247849065806
1700515539172342500,7.238342529296875,0.8897130432516336,-0.8025896172024309,0.4724450049709528
1700515539182353400,7.248353515625,0.008972995528578758,-0.44094563179239626,-0.3661552522893995
1700515539192363500,7.258363525390625,-0.9643670099586248,0.4598538189452141,-0.08919761110791005
1700515539202373600,7.26837353515625,-0.17623568782806395,1.889532767124474,-0.22215700612347572
1700515539212384800,7.278384765625,1.530972134682536,-1.7874693999662994,0.3405010980077088
1700515539222394600,7.28839453125,-1.1359364595413208,-0.1287858813237399,0.11102575909434817
1700515539232405800,7.29840576171875,-1.2878507760614155,0.5969193067058921,-0.16274682231023907
1700515539242415600,7.30841552734375,1.6580916171640157,1.424333130171895,-0.08265461007207632
1700515539252426800,7.3184267578125,0.31046237196624277,-1.6208210401728749,0.831617777961865
1700515539262436600,7.3284365234375,-0.27323358829021455,0.01028795058466494,-0.3804741388905793
1700515539272447500,7.338447509765625,-1.6024802045792341,1.5779371533446014,-0.024355017849244175
1700515539282457600,7.34845751953125,1.415190623295307,0.9930141355112194,0.331651473130472
1700515539292468500,7.358468505859375,2.1406489238917827,-2.12188255636245,-0.05815254843495786
1700515539302478600,7.368478515625,-2.2927631468981504,1.2113256817203015,0.2715687603505328
1700515539312488400,7.378488525390625,-2.105854673886299,0.9710716221638023,-0.5177129008589312
1700515539322499600,7.38849951171875,2.9133471145689485,0.8718086993791162,-0.05350589167289436
1700515539332509400,7.398509521484375,0.5789987423509358,-1.4767966001197694,0.4918652332991361
1700515539342520800,7.408520751953125,-1.205607377138734,0.2802764925390482,-0.6189634537968784
1700515539352530700,7.41853076171875,-1.3117507070869208,1.5791937292769551,-0.3357589815145358
1700515539362541600,7.42854150390625,1.3869821814209222,0.6081154581766576,0.04364712628573179
1700515539372551700,7.4385517578125,1.4129723627239466,-1.655748268908262,0.0930589535780251
1700515539382562600,7.4485625,-3.3863954191952943,0.7533264046005904,-0.4199191373113543
1700515539392572700,7.45857275390625,1.1465928781121968,0.8194919444255531,-0.5807004682349041
1700515539402583600,7.46858349609375,0.4783160158962011,0.3266602041818201,0.3464422515597194
1700515539412593700,7.47859375,1.0530296282738447,-1.2864490925699472,-0.12392623939812182
1700515539422603500,7.488603515625,-1.7253437831819056,0.4456155232995748,-0.5075093040894717
1700515539432614700,7.49861474609375,0.11155191099345683,1.5199091811373828,-0.12933394366055725
1700515539442624500,7.50862451171875,1.50819273211956,-0.5956495790310203,0.1766364141160622
1700515539452635600,7.5186357421875,0.7400017897337675,-1.1206660443689673,-0.031746333676949144
1700515539462645500,7.5286455078125,-3.5160347755432126,1.0253659608006476,-0.057040751268155866
1700515539472656600,7.53865673828125,2.1912077292621133,0.47823126022219653,-0.48811574457250534
1700515539482666800,7.548666748046875,0.5243213957458734,-0.3130310534104705,0.5848100224455818
1700515539492677600,7.558677734375,0.4280184918105602,-0.7980333421375602,-0.11105580717273987
1700515539502687700,7.568687744140625,-1.6475141090482472,0.5267389782816171,-0.283933444144018
1700515539512698600,7.57869873046875,0.08145721698105335,1.7091893517166374,0.062123644023016095
1700515539522708700,7.588708740234375,1.5900877559959887,-1.1704890828106551,0.4078191688686609
1700515539532719600,7.5987197265625,-0.6473223369926214,0.04050605178102851,-0.07910210522226989
1700515539542729700,7.608729736328125,-1.1389485008388758,0.3820834737833589,-0.13104568861504085
1700515539552740600,7.61874072265625,0.08175883027613162,1.7235493009805678,0.14781148431114852
1700515539562750500,7.62875048828125,0.8894003240406513,-1.1804926634959876,0.49156230482980606
1700515539572760600,7.638760498046875,0.32282442541122436,0.15637874858304857,-0.43241592305190857
1700515539582771500,7.648771484375,-1.4551725050717592,1.0850720953531563,0.05636676099672913
1700515539592781600,7.658781494140625,-0.3029144408047199,1.5857677008397877,0.22994312995504587
1700515539602792700,7.668792724609375,2.6561422855377197,-1.8217253053113818,-0.25985125188678504
1700515539612802800,7.678802734375,-2.086450885236263,0.33314452469982203,0.1405792589021381
1700515539622813700,7.688813720703125,-0.875500978025794,1.296823333198577,-0.5635783242486417
1700515539632823800,7.69882373046875,0.24121581726074218,0.8847886655267327,0.21511443066820501
1700515539642834700,7.708834716796875,2.3355571634858845,-1.5262772548645733,-0.16116225653253494
1700515539652844500,7.718844482421875,-1.279776190677285,-0.08013948544599116,-0.38607411432210353
1700515539662855700,7.728855712890625,-0.740429659757018,1.5452343226604164,-0.3507346880566329
1700515539672865500,7.738865478515625,0.17306348753273487,0.5608044025558978,0.3186918556511402
1700515539682876700,7.748876708984375,3.075064447700977,-1.9001327793329954,-0.43397575624715534
1700515539692886500,7.758886474609375,-2.494747608488798,0.2249232924990356,0.05040452812407165
1700515539702897700,7.768897705078125,-1.6171826836705208,1.6105242486946283,-0.5149994771817699
1700515539712907500,7.778907470703125,1.2792162187069653,0.0701161040816456,0.564139538327977
1700515539722918700,7.788918701171875,2.3504379217535254,-1.6316266579560934,-0.44224498742055146
1700515539732928500,7.798928466796875,-1.3575953434169292,0.5754666227020323,-0.11765968981664628
1700515539742939600,7.808939697265625,-3.012933862480521,1.994105486755073,0.050210795650258655
1700515539752949800,7.81894970703125,2.603307351928949,-0.5168013024393469,0.2735009339895099
1700515539762960600,7.828960693359375,2.659738848724961,-1.485934869212657,-0.3031811289168894
1700515539772970800,7.838970703125,-3.778199272808432,1.001894849646464,0.20399364598859102
1700515539782980600,7.848980712890625,-1.789557019895315,1.9034303595736621,-0.2858942593555897
1700515539792991700,7.85899169921875,2.9757343048989773,-1.193062587537989,0.6887265066571533
1700515539803001600,7.869001708984375,1.9112685058534145,-0.7404372585415839,-0.5998345730980857
1700515539813012500,7.879012451171875,-2.6615672331959006,0.8263455366473644,-0.03659435823000967
1700515539823022600,7.889022705078125,-2.296308856680989,2.429678923989832,0.15297343365158886
1700515539833033500,7.899033447265625,3.7760727821737525,-1.718800645148754,0.20594682588297872
1700515539843043600,7.909043701171875,1.593028485623002,-0.6282876739159226,-0.45545488986652344
1700515539853054500,7.919054443359375,-4.2909670088827605,1.1146236954648048,0.12727049919157288
1700515539863064600,7.929064697265625,-0.9381628936439752,1.8934676223553717,-0.09961042104810476
1700515539873075700,7.93907568359375,3.5868045942932367,-1.948710932280123,0.3782658151913434
1700515539883085800,7.9490859375,1.30979372780025,-0.22551497478187083,-0.7492384046345949
1700515539893096700,7.9590966796875,-3.598426058503985,1.2497747279062867,0.07903448334615677
1700515539903106800,7.96910693359375,-1.3886393009781837,1.9008096556812524,0.08229676394457928
1700515539913117700,7.97911767578125,4.932905899271368,-2.246367598687112,-0.03942169061042368
1700515539923127600,7.98912744140625,-0.2732125455021858,0.20467238550037145,-0.3351377443436533
1700515539933138700,7.999138671875,-4.465593507948517,1.3647840858772395,-0.17873499383050948
1700515539943148500,8.0091484375,0.41552901259362696,1.2489730561345815,0.1918459294140339
1700515539953159700,8.01915966796875,3.8928035571098327,-2.227687009745091,0.10821640989519656
1700515539963169500,8.02916943359375,0.043535190343856806,0.40855990423336624,-0.6824884890504181
1700515539973180400,8.039180419921875,-4.18982952439785,1.5607358431749045,0.15534297579452394
1700515539983190500,8.0491904296875,0.3093780838608742,0.971221917354688,0.24318762879036365
1700515539993201700,8.05920166015625,4.820361470109224,-2.3498788265660404,-0.35433607354946434
1700515540003211800,8.069211669921875,-1.9397750538915395,0.6139315971095115,0.04172649695407599
1700515540013222700,8.07922265625,-4.065981026411056,1.6995976397678254,-0.2702923106739297
1700515540023232800,8.089232666015626,1.8129191907823086,0.32623774098604913,0.4829465617736801
1700515540033243600,8.09924365234375,3.331775355735421,-2.0007120454132554,-0.18136033736541865
1700515540043253800,8.109253662109374,-1.1867799270719288,0.5332968024272471,-0.28716555793303994
1700515540053264600,8.1192646484375,-3.434294649967551,2.1765996504560112,0.057701407133974134
1700515540063274500,8.1292744140625,1.782225946354866,-0.12784399736374616,0.42584228028263893
1700515540073285600,8.13928564453125,3.412249991419911,-1.8519798660606144,-0.5355295664479955
1700515540083295500,8.14929541015625,-2.768068290540576,0.5867899807490408,0.2775549220880493
1700515540093306600,8.159306640625,-2.485193013679981,2.142968306750059,-0.49628041939288375
1700515540103316500,8.16931640625,2.1968775915920733,-0.3342602308567613,0.6584394318778067
1700515540113327600,8.17932763671875,2.3057956469506022,-1.6270070353314279,-0.6007166166296228
1700515540123337700,8.189337646484375,-1.801812105834484,0.7917880910724401,-0.0920024667950347
1700515540133348600,8.1993486328125,-2.461933134123683,2.4944389809310437,-0.05659172885902226
1700515540143358700,8.209358642578126,2.991447422337532,-0.9996926634270697,0.37224768741298464
1700515540153369600,8.21936962890625,1.1659136646538972,-1.3575913978941738,-0.543212850959599
1700515540163379700,8.229379638671874,-2.7408383383095263,0.9930307213198393,0.10467054484873078
1700515540173390600,8.239390625,-1.1563216604441404,1.8301514806121586,-0.2994032178133726
1700515540183400700,8.249400634765625,2.7813293386518954,-1.414846047641337,0.5503552335275337
1700515540193411600,8.25941162109375,0.7256131988972425,-0.5962568972744048,-0.82918170992136
1700515540203421700,8.269421630859375,-2.215643666860461,0.9299687735334038,-0.0005055383693426847
1700515540213432600,8.2794326171875,-1.4021937790781258,2.1606085928589103,0.004133629206009209
1700515540223442400,8.2894423828125,3.545473635995388,-2.0077517347916958,0.1821329291731119
1700515540233453800,8.299453857421875,-0.07827391076982021,-0.2948655743837356,-0.5029283695073798
1700515540243462700,8.309462646484375,-3.1624621606469154,1.2315887906134129,0.11516893244683742
1700515540253473500,8.3194736328125,-0.2956301290154457,1.5773716284163295,-0.022698236218700183
1700515540263483600,8.329483642578126,3.4524107368946075,-1.9465024624504148,0.2706444851124659
1700515540273494500,8.33949462890625,-0.1229383974045515,-0.29519794814325867,-0.7478767608925699
1700515540283504400,8.34950439453125,-2.4900562358021734,1.4569441909193992,0.30060042824130506
1700515540293515800,8.359515869140624,-0.524044332370162,1.8678256699681282,0.1374421664528083
1700515540303525600,8.369525634765624,4.203851035487651,-2.1376627476878465,-0.045201306058326736
1700515540313536800,8.379536865234375,-2.0997440820515156,-0.5652140356916934,-0.01952833747831173
1700515540323546600,8.389546630859375,-1.9428788651257751,1.8717633016780018,-0.18709855222385374
1700515540333557500,8.3995576171875,0.5594593446224928,0.7390951232176274,0.3967986296931281
1700515540343567600,8.409567626953125,2.5960592804968354,-1.8340128322154283,-0.2414920769188553
1700515540353578500,8.41957861328125,-0.7742115178495645,0.43159087040461597,-0.28678492458499966
1700515540363588600,8.429588623046875,-2.7648504975378514,1.8382212436906993,0.17438384941630064
1700515540373599500,8.439599609375,1.037799325916171,0.3416699956566095,0.23786460713669658
1700515540383609600,8.449609619140626,3.5277380728185173,-1.9967780669651924,-0.5767958985444158
1700515540393620500,8.459620361328126,-2.548103935623169,0.6174870976340026,0.2601542168887332
1700515540403630600,8.469630615234376,-2.78454713165462,2.0344255144447088,-0.26735782812461256
1700515540413641700,8.479641845703124,2.00180451682508,-0.4493341784965247,0.32510427997671065
1700515540423651600,8.489651611328124,3.0747464677929877,-1.4336625379227101,-0.5968629003435373
1700515540433662700,8.499662841796875,-2.008952050492167,0.7318320734120904,-0.0402825452234596
1700515540443672600,8.509672607421875,-3.377082231926918,2.506109252719581,-0.061793608351051806
1700515540453683700,8.51968359375,2.946849571198225,-1.2022538289271294,0.29017204627264287
1700515540463694600,8.529694580078125,3.1322558229535815,-1.1637261645469814,-0.814217803414911
1700515540473704700,8.53970458984375,-3.912681977534294,0.9000145839702337,0.3010148542610928
1700515540483715600,8.549715576171875,-2.1218255654782054,2.0379012277312576,-0.18918765172390267
1700515540493725400,8.559725341796875,3.0511750380694864,-1.7381132483839987,0.3703619101990014
1700515540503736600,8.569736572265626,2.647944950556755,-0.7670327122613787,-0.9490139580041169
1700515540513746400,8.579746337890626,-2.736819750317931,0.8825592259742319,0.314477818152681
1700515540523757800,8.5897578125,-3.014472324094176,2.5062311255335805,0.10410601543430238
1700515540533767700,8.599767578125,4.017368094411492,-2.4104523916028437,0.08288834576271474
1700515540543778600,8.609778564453125,1.806301233947277,-0.16568755193725226,-0.7696086271639913
1700515540553788700,8.61978857421875,-3.947876040512323,1.4806158661469817,0.6686890962786972
1700515540563799600,8.629799560546875,-1.8049562490791082,1.601099417745322,-0.06427596321869641
1700515540573809700,8.6398095703125,3.55580213778615,-2.0102168097309767,0.22191746174655855
1700515540583820500,8.649820556640625,1.6070359681874513,0.10464293532259762,-0.5237824300309643
1700515540593830700,8.65983056640625,-3.4240199241906404,1.4400804421409963,0.39190954247731713
1700515540603841500,8.669841552734376,-2.0203449666440485,1.606731286152452,0.2741765316961333
1700515540613851600,8.6798515625,4.688741169077158,-2.6583883108988404,-0.29518161806296556
1700515540623862500,8.689862548828126,0.4671148229241371,0.07133885080963373,-0.21703246618397531
1700515540633872400,8.699872314453126,-3.788547063821554,1.939667794124782,0.26215728207314387
1700515540643883800,8.7098837890625,-1.1072954714685679,0.6987722459837794,0.1833000367237255
1700515540653894700,8.719894775390625,4.2980689498424525,-2.0720245927378533,-0.210585080142878
1700515540663904800,8.72990478515625,0.5316419478923082,0.37847887342013414,-0.536990177052468
1700515540673915600,8.73991552734375,-3.819713186457753,2.0626821793749928,0.3795471237061545
1700515540683925500,8.749925537109375,-0.4589660032600164,0.5048146581780165,0.07051193499881774
1700515540693936600,8.7599365234375,4.744493451437354,-2.199192590536177,-0.7227239802617579
1700515540703946500,8.769946533203125,-1.436435071375966,0.5193240989152341,-0.006120839234162121
1700515540713957600,8.77995751953125,-3.0071026721090077,2.561019239036739,-0.129066999820061
1700515540723967500,8.789967529296876,0.5541425335139036,-0.38097324751913547,0.12078885468784718
1700515540733978600,8.799978515625,2.9540993961960074,-1.6417628520451486,-0.6230205471679567
1700515540743988500,8.809988525390626,-0.4636638056874275,0.6200199040472507,0.05209752271231263
1700515540753999400,8.819999267578124,-2.860947649767995,2.2739713526666163,0.046885487152449785
1700515540764009500,8.830009521484374,0.7643868739277124,-0.42207054319158194,-0.09040544339455664
1700515540774020600,8.8400205078125,3.1128099487274885,-1.9247249304063616,-0.6725201988741755
1700515540784030700,8.85003076171875,-1.6491209597229957,0.9524024313986301,0.6258485371354967
1700515540794041600,8.86004150390625,-2.5355145031630992,1.9291414316743611,0.026714111663401124
1700515540804052500,8.870052490234375,1.0733517008125781,-0.35863603576570746,-0.07029197210520506
1700515540814062600,8.8800625,2.822774278718233,-1.4753525387912987,-0.5745275152210146
1700515540824073500,8.890073486328125,-1.584380484265089,0.6663270433224737,0.5608857241638004
1700515540834083600,8.90008349609375,17.50381076900363,0.377620356894657,1.5911276204377411
1700515540844094500,8.910094482421876,-23.87962941123247,-0.36984775013178584,-2.7735516903877255
1700515540854104600,8.9201044921875,-1.5777099204599856,2.2628641215883194,1.9063645133294165
1700515540864115500,8.930115478515624,6.709333388480544,-0.33381212176308034,-0.08395820348393171
1700515540874125600,8.94012548828125,3.73974708481729,1.0057629963167012,-0.5066164469029754
1700515540884136700,8.95013671875,-0.09608078561723232,-1.3254866792336106,-0.3449824446728453
1700515540894146600,8.960146484375,-0.9943003759294747,-0.17794234561547637,-0.05424702889639884
1700515540904157700,8.97015771484375,-1.4823054266691207,1.5455821131847798,0.04485869403257966
1700515540914167600,8.98016748046875,-1.0384288559913635,1.936517075008899,0.09925072089023887
1700515540924178700,8.9901787109375,4.011308940503001,-2.420395255076885,-0.13922237353362144
1700515540934189600,9.000189453125,-0.474575075802207,0.026169921784102917,-0.5029914248062297
1700515540944199700,9.01019970703125,-2.4568939709126947,1.3221116498425602,0.748449300083518
1700515540954210600,9.02021044921875,0.036841245663166045,0.18923940017744897,0.02856748444512486
1700515540964220400,9.030220458984376,0.7086439439177513,-1.9308159407578407,-0.6996950599171221
1700515540974231600,9.0402314453125,-1.1292641421705483,0.6864515474624932,-0.4932022905891761
1700515540984241400,9.050241455078124,-0.4419137461721897,1.8642554102659223,0.3687492873705923
1700515540994252800,9.060252685546875,0.7388736624866724,0.23343612316995857,0.1376703217860311
1700515541004262700,9.0702626953125,1.786580634433031,-2.0000548966787752,-0.7965154118552803
1700515541014273500,9.0802734375,-1.6938164260178803,1.2707758687503634,-0.09157160109709948
1700515541024284700,9.09028466796875,-0.5069125803053379,1.6703768059805035,-0.0829435100160539
1700515541034294500,9.10029443359375,-0.2924836476832628,-0.4444479408249259,-0.2216701359219849
1700515541044305700,9.1103056640625,1.1443570818841458,-1.1650701995670796,-0.1652535079015419
1700515541054315500,9.1203154296875,-0.4691185639619827,0.6942191127240658,-0.3917926746319979
1700515541064326400,9.130326416015626,-0.6211538765132427,2.1187015882387756,-0.01577156962752342
1700515541074336500,9.14033642578125,0.8156038509458303,-0.7888369861818849,0.25132914193086325
1700515541084347400,9.150347412109374,0.46920390415787694,-0.8749269775301217,-0.5232557027431205
1700515541094357500,9.160357421875,-1.2193319511085747,0.6086584059469401,0.08886296319290996
1700515541104368600,9.17036865234375,0.6228408066868781,1.6834646894820033,0.07590235933288932
1700515541114378800,9.180378662109375,-0.27601065178811546,-0.9911270065903663,0.36445188243761656
1700515541124389600,9.1903896484375,0.4610153370052576,-0.6145747903838753,-0.04214600100778043
1700515541134400500,9.200400390625,-0.5327344193041325,0.17243834137171507,-0.0028728520225733516
1700515541144410600,9.21041064453125,-0.2067062294155359,1.9244447982907293,0.38653132003769275
1700515541154421500,9.22042138671875,0.7717986114889382,-1.2584148382186888,0.1736106730867177
1700515541164431600,9.230431640625,-0.018092706051468847,-0.5133166021287441,-0.13491017289031296
1700515541174442500,9.2404423828125,-0.6156500183999538,0.8463166768565773,0.2472540014464408
1700515541184452600,9.25045263671875,-0.1142506485581398,1.5946272991217671,0.043356874634884295
1700515541194463500,9.26046337890625,-0.26150691013932226,-1.1424446723915636,0.13001637296676635
1700515541204473600,9.2704736328125,0.6684060415536165,-0.18306348802149294,-0.25601167372390626
1700515541214484700,9.280484619140625,-0.2893640543580055,0.6957020447582006,-0.11450615768916904
1700515541224495600,9.29049560546875,-0.47967736737728117,1.984704036681354,0.25383385476078835
1700515541234505700,9.300505615234375,0.7700052983313799,-1.757849922250211,-0.2981924172515049
1700515541244517000,9.31051708984375,-0.44568800401389597,-0.11505115128606558,-0.25292572693992404
1700515541254527000,9.32052685546875,0.16544424470067023,0.9974699458763002,-0.38554559693597257
1700515541264538000,9.3305380859375,-0.7952168964773416,1.4172330889083444,0.2036742413084954
1700515541274548000,9.3405478515625,0.7945750914424657,-1.225618484032154,0.07715557426437736
1700515541284559000,9.35055908203125,-0.07465221314132213,-0.4901457160301506,-0.5790041126457974
1700515541294570200,9.3605703125,-0.7867384064674376,1.5671667530052362,-0.1377108729921281
1700515541304580000,9.370580078125,0.9380342988282442,1.042733421317488,0.6352372007928788
1700515541314591200,9.38059130859375,0.17830957149267196,-1.995112325710058,-0.6760892895326018
1700515541324601000,9.39060107421875,-1.3709206889361143,0.10701119882389902,-0.22219109105616808
1700515541334612200,9.4006123046875,0.8319792316854,1.3835238576605915,-0.04829184681903571
1700515541344622000,9.4106220703125,-0.7285036596417427,1.1188212202198802,0.49985363823715595
1700515541354633200,9.42063330078125,1.2579676789730787,-2.4470627511195837,-0.8208478890791535
1700515541364644000,9.43064404296875,-1.6771651509463785,1.0146848461799323,-0.17747392438612877
1700515541374654000,9.440654052734375,1.3752251081317661,3.0622955670207737,0.49976102805025874
1700515541384665000,9.4506650390625,1.6187760903418063,-2.5883590813830493,-0.5217524220407009
1700515541394675000,9.460675048828126,-2.971310643237829,-0.7795031945168972,-0.34693010814189906
1700515541404686000,9.47068603515625,-0.18007073594629763,1.729560962485522,0.00472542108669877
1700515541414696000,9.480696044921874,2.2932670047670602,2.336042901176214,0.8230329780332744
1700515541424707000,9.49070703125,-0.4000555491298437,-4.723714867302775,-1.2656273999460042
1700515541434718200,9.50071826171875,-4.329306968671083,2.8318928201973437,-0.03966748206503689
1700515541444728000,9.51072802734375,5.659143952068686,2.0985387979149817,1.2568000964984296
1700515541454739200,9.5207392578125,0.7555693612217903,-2.975737812030315,-1.6120745468765496
1700515541464749000,9.5307490234375,-6.3495771165132515,0.19096490879580377,0.6965100001402199
1700515541474760000,9.540760009765625,3.566885257336497,3.099610275414586,-0.5185212580997497
1700515541484770000,9.55077001953125,3.985465474194288,-2.364383006606251,0.3391687534254044
1700515541494781000,9.560781005859376,-7.975607708027958,0.03887275149077177,-0.5826105761725455
1700515541504792000,9.5707919921875,2.9967917059749363,2.731819750073552,0.6568631955370307
1700515541514802000,9.580802001953124,4.944408705538511,-2.5025474685847757,-0.4045328041417524
1700515541524813000,9.59081298828125,-6.825792945259809,0.22675036179572342,0.2465903133733198
1700515541534823200,9.6008232421875,1.0280793114125728,2.8560335742414,-0.08337309707235545
1700515541544834000,9.610833984375,5.696787746286392,-2.8669845918446777,-0.06206752992160618
1700515541554844200,9.62084423828125,-6.970678970578312,1.102858073543012,-0.048894050495885306
1700515541564855000,9.63085498046875,2.139915933442116,2.0686840501382946,0.28346805512197315
1700515541574866200,9.6408662109375,5.1423535363495345,-2.6838047839671373,-0.7099967467661946
1700515541584876000,9.6508759765625,-7.180256371515989,0.3342199719116091,0.7401092686962336
1700515541594887000,9.660886962890626,2.5139877310097214,2.763798358136415,-0.3466359475009143
1700515541604897000,9.67089697265625,3.744454239594936,-3.561715161222219,-0.36879502620846033
1700515541614908000,9.680907958984376,-8.475578506371379,2.816917369383573,0.5332623521683737
1700515541624919300,9.690919189453124,6.101340022313594,-0.10460121507272124,-0.036361718517914414
1700515541634929200,9.70092919921875,3.004455372470617,-2.109422303240001,-0.906511179447919
1700515541644940000,9.71093994140625,-8.571652862247824,3.3638878193110227,0.9947193319939076
1700515541654950100,9.7209501953125,6.76281071164608,-1.48965944269374,-0.9526095713432877
1700515541664961000,9.7309609375,-2.5987738001525402,0.42439825548678634,0.8761888141594827
1700515541674971100,9.74097119140625,-3.395498763105273,0.5274081097148359,-0.06210797152984887
1700515541684982000,9.75098193359375,4.892659813600778,-7.033605090090632,-1.6189498394735156
1700515541694993000,9.760992919921875,-8.810874875342845,-8.951872076529265,-0.6583855827987194
1700515541705003000,9.7710029296875,-0.8704618148148059,-3.220033475127816,-0.7269368487164378
1700515541715014000,9.781013916015626,3.821702898970246,-3.6649072401493785,-0.4158851325549185
1700515541725025300,9.791025390625,5.962679155120253,-3.5280849865600463,0.336539172106795
1700515541735035100,9.80103515625,8.628827870887518,-2.9566376825019716,-1.27848995025903
1700515541745046000,9.8110458984375,-0.3104015816897154,-0.40170258568450806,0.3578801393644884
1700515541755056000,9.82105615234375,1.4129448901951311,-2.5641212967053053,0.7856986881561577
1700515541765067000,9.83106689453125,-4.5589936761796475,-2.0799111082039774,-2.283565987224877
1700515541775077000,9.8410771484375,-3.693694943216443,-5.643418559670448,0.11731774451117961
1700515541785088000,9.851087890625,5.192560459542274,-3.582819908571243,-0.9473928596083074
1700515541795099100,9.86109912109375,-3.05952376421988,1.382937289944291,0.1730677618490532
1700515541805109000,9.87110888671875,-3.7365982653975482,-3.738790807005763,1.337540543512255
1700515541815120000,9.881119873046876,6.4980304789245125,-2.291781150123477,-1.4484984341353178
1700515541825130000,9.8911298828125,-4.010976932069659,-0.8491597913280129,0.9565628390137105
1700515541835141000,9.90114111328125,-0.3659071958124637,-6.797057849162816,-0.8455733842086046
1700515541845152300,9.91115234375,0.24811843625605104,-0.4457325738079846,-0.9895309695705771
1700515541855162000,9.921162109375,-0.0436795672506094,-1.0278224140420555,1.1468350893702357
1700515541865173000,9.931173095703125,2.3765333169966936,-5.686692468729615,-2.3684315513446927
1700515541875183000,9.94118310546875,-2.038342980149388,2.7318226726830006,1.2569625935837625
1700515541885194000,9.951194091796875,2.239569901371002,-7.491538827693462,-0.5132597573749721
1700515541895205000,9.961205078125,-2.9459646050572394,-7.565590152332186,-2.825782520623505
1700515541905215000,9.971215087890625,-3.2973861793994903,0.6274067994281649,1.0430410259619354
1700515541915225900,9.981225830078126,6.5439119401335715,-4.394368931168318,-0.5061747310174629
1700515541925236000,9.991236083984376,2.007818078026175,0.5930347203575075,-1.1690480171568691
1700515541935247000,10.0012470703125,1.312937871044874,-2.1268439781621096,2.279493184828013
1700515541945258200,10.01125830078125,4.201032470935583,-4.7521647167176,-2.825375401127338
1700515541955268000,10.02126806640625,-3.3290023838907477,-2.7404741811722517,-0.09420213226377963
1700515541965279000,10.031279052734375,-0.9744406602054834,-5.806739820867777,0.15593999183960258
1700515541975290000,10.0412900390625,-1.0245406158924102,-4.558469360044598,-2.399205167531967
1700515541985300000,10.051300048828125,0.29322891309261323,2.905181051509082,2.693919350746274
1700515541995311000,10.06131103515625,8.63031664814055,-4.011308355981111,-1.5016281129069626
1700515542005321000,10.071321044921875,0.25563363419175145,-0.711967096991092,-0.2766211118366569
1700515542015332000,10.08133203125,-1.4147808734506369,-0.552140546041727,1.6753614625252782
1700515542025343200,10.09134326171875,-0.9686533089756965,-9.440494966906309,-3.386678912311792
1700515542035353000,10.10135302734375,-7.210494857913255,-0.5931342352092266,0.8738542337320745
1700515542045364200,10.1113642578125,1.796132891154289,-5.78386747932434,-0.1029254273476079
1700515542055374000,10.1213740234375,1.2672457949280738,-3.170714148424566,-2.4383096819519996
1700515542065385200,10.13138525390625,5.223101143756509,2.7639783908784388,2.4576374827563763
1700515542075396000,10.14139599609375,5.912763908350468,-6.270155789273977,-1.4994509149983524
1700515542085406000,10.151406005859375,-5.225189640468359,0.07212839375212789,-1.3607906323269008
1700515542095417000,10.1614169921875,-2.0229764841914175,-4.77713841445446,1.8632666914895175
1700515542105428000,10.171427978515625,-1.2251993818372486,-9.105673814231157,-2.250014138495922
1700515542115438000,10.18143798828125,-3.8438656309396024,-0.8860144809946418,0.2810834250077605
1700515542125449200,10.19144921875,10.069249966073036,-3.037827480718493,0.06610434768963605
1700515542135459000,10.201458984375,2.0633079100579024,-0.19435016731992363,-1.2989078843876718
1700515542145470200,10.21147021484375,-0.8046703689992427,0.1576218805119395,2.444489247369766
1700515542155481000,10.221481201171875,3.797660929125547,-3.837023802220821,-3.0145903975158928
1700515542165491200,10.2314912109375,-3.9695162099123,-2.3323718114480374,0.2252001732116565
1700515542175502000,10.241502197265625,-1.9808108286350965,-4.516351343022286,0.8080757204633205
1700515542185512200,10.25151220703125,-0.32169045294523235,-6.146232472485304,-3.424212231892347
1700515542195523000,10.261523193359375,-3.701335228836536,1.4486189917750656,2.9026901114761827
1700515542205534000,10.271533935546875,7.351673260885477,-6.7602171880215405,-1.5985380428247153
1700515542215544000,10.2815439453125,-1.3807991088718174,-0.09089476128146051,-0.892153056814894
1700515542225555200,10.29155517578125,2.8540976377427576,3.128776748666167,3.0194536196380852
1700515542235566000,10.301566162109374,3.0311370431691405,-9.444139460888504,-2.5250831255197523
1700515542245576400,10.311576416015624,-7.854595894771814,-0.6157642924293876,0.008949614652991295
1700515542255587300,10.32158740234375,2.045887404179573,-5.5319069806873795,1.6949483526572584
1700515542265597400,10.331597412109375,-1.5004834729164838,-6.0279176432281725,-2.8717054828867314
1700515542275608300,10.3416083984375,-0.28733400983512397,0.7802480215348303,1.6275163000278174
1700515542285619200,10.351619140625,8.720989437234401,-7.26992378295958,-0.7462473330598324
1700515542295629300,10.36162939453125,-3.2410961369007825,0.9147333566091954,-1.449969675731659
1700515542305640200,10.37164013671875,0.461154453215003,-3.159347828018665,2.6839398085236548
1700515542315651300,10.3816513671875,2.718400881052017,-4.113259494936466,-2.4614938659235834
1700515542325661400,10.391661376953126,-1.245688043114543,3.21698577799499,0.9716304250903427
1700515542335672300,10.40167236328125,5.795182654064893,-6.4135413469016544,0.38814065493047234
1700515542345682400,10.411682373046874,-4.482209711706638,-3.4349358704805373,-3.4464614731013774
1700515542355693300,10.421693359375,-3.9036283179849383,-2.5224668055415154,3.1175057053282855
1700515542365704200,10.4317041015625,3.7526352079629897,-4.75768727953136,-1.6023723602905868
1700515542375714300,10.44171435546875,-3.0577134999275204,0.47408422354534263,0.3631391558712348
1700515542385725200,10.45172509765625,7.211631168466806,-5.4772822410523885,1.734563446947932
1700515542395736600,10.461736572265625,-1.608243005889654,-3.261277924185991,-2.1701345460951327
1700515542405746200,10.47174609375,-3.219800835415721,-3.0440339341431852,3.1973464270234104
1700515542415757300,10.48175732421875,4.758775074768066,-6.5784981003463265,-2.177876976915449
1700515542425768400,10.4917685546875,-1.545498672685027,0.2662738322801888,0.26460805449243635
1700515542435778300,10.5017783203125,6.941602513697743,-5.188319753232598,1.315192956495285
1700515542445789400,10.51178955078125,-0.10159107347130775,-2.5954537158191204,-2.7019974432617424
1700515542455800300,10.52180029296875,-1.186872866052389,-1.955845021943748,2.763938351128995
1700515542465810200,10.53181005859375,1.0872504623055457,-4.928616093122959,-1.4215088665314017
1700515542475821300,10.5418212890625,-2.7047178081363437,-0.5435583033964038,-0.06924315717201679
1700515542485831200,10.5518310546875,2.097126008507609,-6.110066934126615,1.7470662240378558
1700515542495842600,10.561842529296875,-4.369080176132917,0.2364668691679835,-1.9725566489003596
1700515542505853400,10.571853515625,1.4737269834160804,-5.412035569638014,1.452314631422609
1700515542515863300,10.58186328125,-0.24432664275765417,-3.0971769107878204,-1.8987848718553781
1700515542525874400,10.59187451171875,-0.24262042336165904,0.6627332566142082,-0.19162921792343257
1700515542535885300,10.60188525390625,4.4746267092317344,-7.661397966226935,-0.7301734925501048
1700515542545895400,10.6118955078125,-6.765462102937698,-1.8859813582532108,-1.8801717951916157
1700515542555906300,10.62190625,3.897330679145455,-3.5782007243379947,0.27789734231755137
1700515542565917200,10.631917236328125,0.3491904542893171,-0.9834050340361893,-0.48821200802121306
1700515542575927300,10.64192724609375,4.185993307235837,-4.093559353688359,0.26249526358954606
1700515542585938400,10.6519384765625,-0.7799328181058168,-2.4000790277570485,-1.4575798584744333
1700515542595948500,10.661948486328125,-2.1152409263908862,-3.463896007505059,1.8966878995761274
1700515542605959400,10.67195947265625,1.969401545870304,-2.478037296706438,-0.6380667251303792
1700515542615970300,10.68197021484375,-1.4357441665023565,-0.21527400514408945,0.3528578907556832
1700515542625980400,10.69198046875,5.115335181042552,-6.755991094759106,-0.7150913664914668
1700515542635991300,10.7019912109375,-4.066893465080857,-1.0499389687821268,-0.4688443501304835
1700515542646002200,10.712002197265624,2.816446244740486,-4.492038739542663,0.3740820267006755
1700515542656012300,10.72201220703125,-1.0900228496283293,0.15780512812435626,-0.2090533039983362
1700515542666023200,10.732023193359375,1.9126117371559141,-4.6134141254141925,0.2888720695899799
1700515542676034600,10.74203466796875,-1.0800152503550051,-0.2866438356138766,-2.1433812714651226
1700515542686044400,10.75204443359375,-1.1857137591451405,-4.015970794834196,1.248053749332577
1700515542696055300,10.76205517578125,1.6068430759638548,-2.3652742563575506,-1.8355132999062538
1700515542706066400,10.77206640625,-0.005189385336637497,-0.7514099034547805,0.5034620379926636
1700515542716076300,10.782076171875,2.3872756602853533,-5.221182158392668,-1.8324632646858692
1700515542726087400,10.79208740234375,-4.418110456761718,-1.306414314495027,0.2816775915086269
1700515542736098300,10.802098388671874,0.7746177605628967,-3.771997203297913,0.2934360530372709
1700515542746108400,10.8121083984375,-2.739919469898939,0.5046395208068192,0.24989209486506878
1700515542756119300,10.822119384765625,3.20691505035758,-5.110773572215438,0.21379965827520936
1700515542766130400,10.83213037109375,-3.927077582633495,0.08572013512253761,-0.36518111002761866
1700515542776140500,10.842140625,2.6676585358083247,-4.116895221090316,-0.06175064599215984
1700515542786151400,10.8521513671875,0.14629530759453774,0.5784472459480167,-0.13842577979583293
1700515542796161500,10.86216162109375,2.435938276645541,-3.699170744279027,-0.0801397411743179
1700515542806172400,10.87217236328125,1.1639748055458068,0.48109717104732985,-1.1768123675480484
1700515542816183300,10.882183349609376,1.562317121016979,-3.441846088260412,1.021795628033206
1700515542826193400,10.892193359375,2.3127637323975563,-0.3938751069292426,-0.727168757776171
1700515542836204300,10.902204345703124,1.7208236754089592,-0.7247311553657054,0.7625223952300846
1700515542846215200,10.912215087890624,1.0822960547685623,-3.0329256801515814,-0.8259747305735945
1700515542856225300,10.922225341796874,-1.883601915770769,-0.39663668059706686,0.9657165248714387
1700515542866236400,10.932236328125,1.9639923803031443,-2.9101000954717398,-0.22936248052287844
1700515542876247300,10.942247314453125,0.44269642098248,0.3688694066189229,0.29283848900292064
1700515542886257400,10.95225732421875,1.90280930506587,-3.9038065971612927,-0.7573354941114783
1700515542896268300,10.962268310546875,-2.215257882413268,-0.1513711495541036,0.8033262609139085
1700515542906279400,10.972279541015626,0.7582710213959216,-4.140082327671349,-0.42021640322487797
1700515542916289300,10.982289306640626,-1.110357197126746,1.4942651829235254,-0.1889276308145374
1700515542926300200,10.992300048828126,2.653585002270341,-4.185160363543034,0.7583728743351995
1700515542936311300,11.002311279296874,-2.94094648463428,0.2771481313854456,-0.09822441004980355
1700515542946321200,11.012321044921874,2.8682424829512834,-3.003312339915335,0.5936146756699309
1700515542956332500,11.02233251953125,0.8675327756255865,2.159881301497668,0.5961514276059344
1700515542966343400,11.032343505859375,1.944132664579153,-3.550191312167048,-0.17741817561089993
1700515542976353300,11.042353271484375,-2.43237795381546,1.380340405318886,-0.4943082425370812
1700515542986364400,11.052364501953125,0.7855582567721605,-2.8125048136383293,0.6630016252268105
1700515542996375300,11.062375244140625,-1.9945973619252442,1.7813843809641896,-1.377131526274979
1700515543006385400,11.072385498046875,1.6492197439223526,-3.925805663001537,0.7456754514560103
1700515543016396300,11.082396240234376,-4.21853130274713,0.38161943646818397,-1.7428073975495992
1700515543026407200,11.0924072265625,0.14701426951885221,-3.347618529294431,1.831268209682405
1700515543036417300,11.102417236328124,-1.406122935220599,1.5283219124346972,-0.6558372865553945
1700515543046428400,11.112428466796874,1.094810668426752,-5.263351905602216,1.5790787245951592
1700515543056439300,11.122439208984375,-2.0347043313860893,1.5585989772766828,-0.897510346064344
1700515543066449400,11.132449462890625,1.1767337493538856,-4.236102030751109,1.353114106349647
1700515543076460300,11.142460205078125,-1.034381041905284,0.9059956311412155,-0.5944701234554871
1700515543086471400,11.152471435546875,2.346833759781718,-3.3545050739377733,0.40262353645432736
1700515543096481300,11.162481201171875,0.8713573023498058,0.6772158093445002,-1.3252104926407335
1700515543106492200,11.1724921875,-0.6379723248451947,-2.004008164349198,1.1550276751108466
1700515543116503300,11.18250341796875,2.6642607100635765,0.14151917923390864,-0.4365159787818789
1700515543126513200,11.19251318359375,-0.8102847017496824,-0.9462949083037674,0.752023139982298
1700515543136524500,11.202524658203124,-0.12895663478076458,0.44324075699225063,-1.9112886718586086
1700515543146535400,11.212535400390625,0.04695639696419239,-1.9262061088748275,1.096183783410862
1700515543156545300,11.222545166015625,1.22930038741529,-0.5064075533926486,-1.779303336906433
1700515543166556400,11.232556396484375,0.6608464199542999,-1.190190904559195,0.6442744937293231
1700515543176567300,11.2425673828125,2.3507857122778892,-1.1619742793783545,-1.2587844021834433
1700515543186577400,11.252577392578125,-4.695275539281964,-2.0827714660711587,1.2797406809724867
1700515543196588300,11.26258837890625,0.8865408429563045,-1.9642937013372779,-0.2921330076146871
1700515543206599200,11.27259912109375,-3.0209710384637116,0.3185629685744643,1.039804966650158
1700515543216609300,11.282609375,2.481794603413343,-2.84987797422111,0.3879491509463638
1700515543226620400,11.292620361328124,-3.0780870103925464,-1.3779415274836122,0.4858477996405214
1700515543236631300,11.30263134765625,1.5199053817451,-2.1228736132264134,-0.27848252179436384
1700515543246641700,11.3126416015625,0.0639788434356451,1.5762307878181336,0.045199470294266936
1700515543256652500,11.322652587890625,4.158741727694869,-2.571998605951667,-1.531537367349863
1700515543266663400,11.332663330078125,-2.5712960106402636,0.13703604247048495,0.2634292199714109
1700515543276673500,11.342673583984375,4.143565785872936,-1.9577222139924764,-0.3079544077333063
1700515543286684400,11.352684326171875,-2.350010636252165,2.5901839587226507,0.6534966417133807
1700515543296695800,11.36269580078125,3.168001674595475,-2.738540582761168,0.1696936457734555
1700515543306705700,11.37270556640625,-3.1462785030871627,0.7630860204622149,-0.2782912370059639
1700515543316716500,11.382716552734376,0.9507347904473542,-3.1471441800057884,0.5513698539301752
1700515543326727700,11.392727783203124,0.7467138545930385,1.5042534929744897,-0.045804012058675285
1700515543336737500,11.402737548828124,3.539778054702282,-3.323890155443549,-0.4743298688694834
1700515543346748700,11.412748779296875,-3.0150884101659057,-1.5054491324998438,0.16722049712557344
1700515543356759600,11.422759521484375,1.6548305695414542,-3.182132491278648,-0.9365255017004906
1700515543366770700,11.432770751953125,-0.902498875066638,2.646240192465484,0.3746218691984191
1700515543376780800,11.44278076171875,5.038566998660564,-4.824401685410738,-0.022156594489514826
1700515543386791700,11.452791748046875,-5.1888768025934695,-1.4104638870343564,-0.19349088360946623
1700515543396802600,11.462802490234376,-0.05354980387985706,-1.2058346100233495,0.0901351750858128
1700515543406812700,11.472812744140626,-2.890257915404439,0.6336613297782838,0.4204566417215392
1700515543416823600,11.482823486328124,1.690663514944911,-2.9954131110981104,-1.6943438108928501
1700515543426834700,11.492834716796875,-4.098634757256508,-1.6700015429273247,-0.3128546008650213
1700515543436844500,11.502844482421875,1.36936176905632,-1.4200737191617487,0.05068999400194734
1700515543446855400,11.51285546875,-0.21297639572620392,0.6366456062860787,0.2064528391763568
1700515543456866800,11.52286669921875,3.066320000231266,-2.999239099127054,-1.5877784561403094
1700515543466876700,11.532876708984375,-2.259895481041074,-1.3698233952187,1.1590516699299216
1700515543476887800,11.5428876953125,3.4022587587594986,-0.37231180215775966,-0.8249262444339692
1700515543486898700,11.552898681640626,-0.475828290733695,-0.13122414132133126,2.251609737124294
1700515543496908500,11.562908447265626,1.5570464871376752,-1.5906532809242606,-1.2322159826010466
1700515543506919700,11.572919677734374,-3.8903310295164584,-1.8635140903793275,0.7954530433207749
1700515543516930600,11.5829306640625,1.4749883816540241,0.3805067990511656,0.3803698017332703
1700515543526940700,11.592940673828124,0.5570283180832862,-1.6474173706755042,-0.4950319171691313
1700515543536951600,11.60295166015625,1.7255869442880152,-1.3484434841901063,-1.9607250490702688
1700515543546962700,11.612962646484375,-0.21686171272695062,-2.3550198427163065,1.0809466129209846
1700515543556972800,11.622972900390625,2.4072739076972005,0.6703146516539156,-1.4104150794565677
1700515543566983700,11.632983642578125,0.7252180620998143,-2.1265967254027722,0.30960305172316727
1700515543576994600,11.64299462890625,0.5644511615604162,-0.4734991171337664,-1.8110792620040475
1700515543587005700,11.653005615234376,-2.4100328510165214,-3.0648844144701957,1.115190097175911
1700515543597015600,11.663015625,-1.510664090669155,0.9652624974936246,-1.0205144291162491
1700515543607026700,11.673026611328124,-1.278242989760637,-2.8795921444833277,-0.07900697428472339
1700515543617037600,11.68303759765625,-1.5119821875303983,0.021264321824908256,-0.5777718674371018
1700515543627047400,11.69304736328125,0.022489479705691335,-3.2893437427192924,0.7234197805061936
1700515543637058800,11.703058837890625,-0.8411462884813546,1.679639139844477,-0.19106456977799532
1700515543647069700,11.713069580078125,3.200831931051612,-3.3046725370153784,-0.712387149034068
1700515543657079800,11.723079833984375,-0.4383873256117105,1.580198376274854,-0.5779703491512685
1700515543667090700,11.733090576171875,2.240751804631948,-3.053466071616113,-1.904502957241237
1700515543677101600,11.7431015625,0.7610597753316164,1.6338086781702934,0.7269440821748226
1700515543687111700,11.753111572265626,5.1648868551969525,-2.687138604564965,-0.4903782096117735
1700515543697122600,11.76312255859375,-1.0394102682441473,1.594649072562158,-0.05934380404613912
1700515543707133400,11.773133544921874,3.2514614635705947,-2.6538261175498365,1.0312609371233732
1700515543717143600,11.7831435546875,-1.5737947928428648,2.0836885809160766,1.2007321723178028
1700515543727154700,11.79315478515625,2.0681980201870203,-3.3223356194779274,-0.21015571228228508
1700515543737165600,11.80316552734375,-4.194886223265528,0.754723265786469,-0.24088771781753748
1700515543747175700,11.81317578125,-1.1772107192158698,-2.9602216784685846,-1.1616218126788735
1700515543757186600,11.8231865234375,-2.4185955121785403,1.8535570522494613,-1.25079895638749
1700515543767197700,11.83319775390625,1.6572271092891693,-4.150862372621893,-2.6558137842357157
1700515543777208600,11.84320849609375,-5.171988211634755,-0.950184316957742,-1.1155683559037743
1700515543787218700,11.85321875,1.3550930052071808,-2.267330599477887,-0.26031214739680286
1700515543797229600,11.8632294921875,-0.5390624532818794,0.5861809089399874,0.6383909886486828
1700515543807240700,11.87324072265625,3.805906779423356,-2.6361083822906015,-0.29781379319746043
1700515543817250800,11.883250732421875,-2.902941455888748,-1.4800728453114629,0.814385561197251
1700515543827261700,11.89326171875,4.292895346596837,-0.5144138958461583,0.55996093746908
1700515543837272600,11.9032724609375,0.47241526741981504,0.441850763938576,0.8791095239117741
1700515543847282700,11.91328271484375,1.316895668759942,-1.1409333910457788,-1.9453385332375763
1700515543857293600,11.92329345703125,-1.2730185331106185,-1.7017890123322605,1.6030530360311268
1700515543867304400,11.933304443359376,0.2918617163926363,0.09419701769724488,-1.0549232600007206
1700515543877315600,11.943315673828126,0.21812837166190147,-0.42155499488487835,0.34676235035955905
1700515543887325400,11.953325439453126,0.33762919583320616,-1.1040309167146682,-1.2021069678023457
1700515543897336800,11.9633369140625,-0.0030389293044805524,-2.75332664848268,1.0817954117700457
1700515543907347700,11.97334765625,2.0731606110304592,0.43272886145859957,-1.3230658818274736
1700515543917357600,11.983357666015625,3.0460026038676498,-0.9127901135869324,-0.8113217166472226
1700515543927368700,11.99336865234375,1.0241127458691597,-0.30890462113022804,-2.159531757407635
1700515543937379600,12.003379638671875,1.395725459846854,-4.213448884916305,0.21958653458096086
1700515543947389700,12.0133896484375,0.011532616883516311,1.4722336761184036,-1.4853423101469874
1700515543957400600,12.023400634765625,2.3467940122932194,-2.3906328617587684,1.4393160336397588
1700515543967411500,12.033411376953126,-2.674393981543183,-0.1322803723759949,-1.6367689892806112
1700515543977422600,12.043422607421874,-1.9667963318079709,-3.8085561248883604,1.1348523175664245
1700515543987432700,12.0534326171875,-1.2091139239549635,1.8701447605654595,0.09836078631319105
1700515543997443600,12.063443603515625,2.7924171343773603,-3.6396553099930284,0.21272906990163026
1700515544007454700,12.073454833984375,-3.763785547530651,-0.36818712344318627,-0.44382732470855113
1700515544017464600,12.083464599609375,0.09485913486778735,-3.2807594542473555,0.8171146939001976
1700515544027475700,12.093475830078125,-0.7307827104896306,2.8567563355579972,0.43162762221843004
1700515544037486600,12.103486572265625,2.891946014621854,-4.651284714125096,-1.099554501952976
1700515544047496400,12.113496337890625,-3.762081081700325,0.5933008239477873,-1.310681324289739
1700515544057507600,12.123507568359376,1.2033581369072197,-1.7314160888329146,-0.09321911257579922
1700515544067518700,12.133518798828124,-0.44124505313038825,1.016749962016195,0.0912955971673131
1700515544077528800,12.14352880859375,2.983296849107742,-2.972992897236347,-2.1495859713241456
1700515544087539700,12.153539794921874,-2.6426439215391873,-0.2643827578365803,0.6314470147296786
1700515544097550600,12.163550537109375,1.858454030510783,-1.329841513442248,-0.8545113084238022
1700515544107561500,12.1735615234375,-1.0931225692093371,-0.2360873683311045,1.6166529607079922
1700515544117571600,12.183571533203125,1.5406868884891272,-1.9369407072484492,-1.826181261806935
1700515544127582500,12.19358251953125,-3.2298277239114044,-2.720786607144773,1.566918477332592
1700515544137593900,12.20359375,1.1360615472257136,-0.5733312181085348,0.094173490691185
1700515544147603700,12.213603759765626,-0.2515554249674082,-0.5941888588286935,1.368203538931906
1700515544157614600,12.223614501953126,0.32414310679435726,-1.7864105385631321,-1.5643848672017455
1700515544167625700,12.233625732421874,-2.9740011974960563,-4.087246809540689,0.23621866656057536
1700515544177635600,12.243635498046874,0.7053495785474777,1.8253627850309013,0.3738962218049913
1700515544187646700,12.253646728515625,2.1868559637933966,-3.027074031513929,-0.4515303733665496
1700515544197657600,12.26365771484375,-0.28052140721082686,-0.9790328103013336,-1.6625100181281565
1700515544207668500,12.27366845703125,1.2453788310348988,-3.8485453131884335,0.2941128563202917
1700515544217678600,12.2836787109375,2.256990407249331,2.4887469067692756,-0.6795820270191878
1700515544227689700,12.293689697265625,3.683075349524617,-2.9733479942843317,-0.26900245352648194
1700515544237700600,12.30370068359375,-0.37739948068559165,1.074455424270779,-1.6591422952607273
1700515544247710700,12.313710693359376,2.5823475660085675,-3.433632971188426,-0.6971249171681702
1700515544257721600,12.3237216796875,-1.5775889244288206,3.0491359334573147,0.11839081710278987
1700515544267732700,12.333732666015624,2.480415131753683,-2.6885949408531187,0.00029339345600456
1700515544277743900,12.343743896484375,-3.61236690557301,-0.2912751486763358,0.739218384271115
1700515544287753700,12.353753662109375,-0.8157488123744726,-2.3280871198661623,-0.27992048217561094
1700515544297764900,12.363764892578125,-2.285174883726239,2.118666516925394,0.662177668558061
1700515544307775700,12.373775634765625,1.3873206195950507,-2.5732085662633177,-0.8878127625882625
1700515544317785900,12.383785888671875,-3.994613826289773,-2.9056425315409897,-1.4277072827801107
1700515544327796700,12.393796630859375,0.294357624861598,-0.5551243841581046,0.1014138902734965
1700515544337807600,12.4038076171875,2.3147581210851667,-1.081979243904352,0.31297830030992624
1700515544347818500,12.413818603515624,0.9081021019011736,-0.5458348700262606,-1.3784212738245725
1700515544357828600,12.42382861328125,-1.591784623041749,-2.863308533680439,0.5843256729947403
1700515544367839700,12.43383984375,-0.1852963616400957,1.6509567968480288,-0.06750398535449058
1700515544377851000,12.443850830078125,1.5102882430940865,-3.724700322332978,0.9488932542338967
1700515544387860700,12.45386083984375,-1.5573773265272377,1.1507710405796765,-0.8368217032805084
1700515544397871600,12.46387158203125,1.9716274052262306,-3.3553219432786103,1.4580742178626358
1700515544407882800,12.4738828125,-2.2719009761333466,2.3596964562252163,-0.6336803267396987
1700515544417892600,12.483892578125,2.3023136500537396,-3.4502456678152083,1.151507976552099
1700515544427903700,12.49390380859375,-1.7230781763374805,0.6485350737832486,-0.8841359737716614
1700515544437914600,12.50391455078125,0.48967152264714237,-3.660674132624268,-0.778830117560923
1700515544447925800,12.51392578125,-1.185741231673956,2.8961241770893333,-0.06959058237019926
1700515544457936000,12.523935791015624,3.2987247345268726,-4.245097238111495,-0.16829535981547086
1700515544467946800,12.53394677734375,-3.7318537012189625,-0.8219029510900377,-0.18892529272697864
1700515544477957600,12.54395751953125,1.1926964576393364,-1.4713076473146676,0.5628934472570195
1700515544487967700,12.5539677734375,0.20458207686841487,0.36078517662361265,0.6390874464802444
1700515544497978600,12.563978515625,3.050126405799389,-3.010746289308369,-2.2968914788745343
1700515544507989800,12.57398974609375,-0.1697065783202648,-1.1544605427473782,0.5567981625892222
1700515544518000600,12.584000732421876,3.6978269284546372,-0.5884704811818897,-0.7300627256520092
1700515544528010500,12.594010498046876,-2.1032950525313616,-1.1516649206794798,0.8574609520096331
1700515544538022000,12.60402197265625,-1.9159639701932667,0.5494187198624014,-1.2870830065593122
1700515544548032800,12.61403271484375,-2.3368051177203655,-3.0100623986974355,-0.2832310314957052
1700515544558043600,12.624043701171875,-1.4400748891830444,1.8254025325194,-1.1113288186378776
1700515544568053800,12.6340537109375,1.6103034455507992,-2.6855951745152473,0.642102483452484
