time,seconds_elapsed,z,y,x
1700515531949964800,0.01596484375,-0.06691431999206543,0.03377367556095123,-0.011900069192051888
1700515531959974700,0.025974609375,0.03501071408390999,0.04140975698828697,-0.04668334871530533
1700515531969984800,0.03598486328125,0.044915277510881424,-0.10292398184537888,0.03910159692168236
1700515531979995000,0.045994873046875,-0.04186196252703667,0.03250095248222351,-0.003029345767572522
1700515531990004700,0.056004638671875,-0.038363635540008545,0.008128234185278416,-0.1725826859474182
1700515532000014800,0.066014892578125,0.050750527530908585,0.04881893843412399,-0.021997444331645966
1700515532010024700,0.076024658203125,0.02568991668522358,-0.09903576970100403,0.15803277492523193
1700515532020034800,0.086034912109375,-0.04104197397828102,0.04941175878047943,0.06638648360967636
1700515532030044700,0.096044677734375,-0.02557779848575592,0.0670141875743866,-0.14066576957702637
1700515532040054800,0.1060546875,0.06337098032236099,0.011856392957270145,-0.019954798743128777
1700515532050065000,0.11606494140625,0.0013904364313930273,-0.08533753454685211,0.11786511540412903
1700515532060074800,0.12607470703125,-0.03279682993888855,0.06679314374923706,-0.029626069590449333
1700515532070084900,0.1360849609375,-0.020982246845960617,0.022166289389133453,-0.11593539267778397
1700515532080094700,0.1460947265625,0.061892129480838776,0.03261866420507431,-0.0032626385800540447
1700515532090104800,0.156104736328125,-0.006232063286006451,-0.11951307952404022,0.15219245851039886
1700515532100115000,0.166114990234375,-0.06239813193678856,0.036131370812654495,-0.05222352221608162
1700515532110124800,0.176124755859375,0.009367935359477997,0.062182679772377014,-0.0691622942686081
1700515532120135700,0.1861357421875,0.059788499027490616,-0.08381127566099167,0.07181959599256516
1700515532130145800,0.196145751953125,-0.04152746871113777,-0.010549313388764858,0.10867401957511902
1700515532140156000,0.206156005859375,-0.03898095339536667,0.021526863798499107,-0.15826687216758728
1700515532150165800,0.216165771484375,0.025537583976984024,0.04391712322831154,-0.0775776132941246
1700515532160175900,0.22617578125,0.044562939554452896,-0.06976602971553802,0.0926404520869255
1700515532170185700,0.236185791015625,-0.03285408765077591,0.015795208513736725,0.12990979850292206
1700515532180195800,0.24619580078125,-0.04111308231949806,0.03767653927206993,-0.10305368155241013
1700515532190205700,0.256205810546875,0.04351392015814781,0.04097353294491768,-0.02220943197607994
1700515532200215800,0.2662158203125,0.02377297356724739,-0.09657634049654007,0.09547938406467438
1700515532210226000,0.276225830078125,-0.02912459522485733,0.040586840361356735,-0.0020993698853999376
1700515532220235800,0.28623583984375,-0.031871113926172256,0.012569054961204529,-0.1626669466495514
1700515532230246000,0.296245849609375,0.04857978597283363,0.06360188126564026,-0.025731729343533516
1700515532240255000,0.3062548828125,0.017615212127566338,-0.12903521955013275,0.1440301388502121
1700515532250264800,0.316264892578125,-0.03851783275604248,0.04729161411523819,0.029763488098978996
1700515532260275000,0.32627490234375,-0.021335115656256676,0.08103173226118088,-0.10277485102415085
1700515532270284800,0.336284912109375,0.062421832233667374,-0.023061111569404602,0.019297797232866287
1700515532280295000,0.346294921875,-0.01835344173014164,-0.0700797513127327,0.10170585662126541
1700515532290305000,0.356304931640625,-0.020173178985714912,0.0568678081035614,-0.09678273648023605
1700515532300315000,0.36631494140625,-0.013769874349236488,0.01593875326216221,-0.1263238489627838
1700515532310325000,0.376324951171875,0.05565367639064789,0.011553592048585415,0.017785921692848206
1700515532320334800,0.3863349609375,-0.017298828810453415,-0.08532874286174774,0.15766578912734985
1700515532330345000,0.396344970703125,-0.04631849750876427,0.013991449028253555,-0.045278530567884445
1700515532340355800,0.40635595703125,0.004297276493161917,0.07493575662374496,-0.06060768663883209
1700515532350366000,0.416365966796875,0.05253298208117485,-0.08017180114984512,0.05399053171277046
1700515532360375800,0.426375732421875,-0.03363173082470894,-0.02985323593020439,0.06750261038541794
1700515532370386000,0.436385986328125,-0.02461719512939453,0.03434918448328972,-0.149492546916008
1700515532380395800,0.446395751953125,0.005440571811050177,0.058093663305044174,-0.06537101417779922
1700515532390406000,0.456406005859375,0.05452156439423561,-0.07774699479341507,0.07536666095256805
1700515532400416000,0.466416015625,-0.029637254774570465,-0.021997710689902306,0.12147156894207001
1700515532410425900,0.47642578125,-0.04313788190484047,0.06095017120242119,-0.08186104148626328
1700515532420436000,0.48643603515625,0.043771181255578995,0.038237400352954865,-0.006168679799884558
1700515532430445800,0.49644580078125,0.022816898301243782,-0.11041412502527237,0.09454967826604843
1700515532440456000,0.5064560546875,-0.02449042908847332,0.052986517548561096,-0.01002413872629404
1700515532450465800,0.5164658203125,-0.028533905744552612,0.009270730428397655,-0.16848647594451904
1700515532460476000,0.526475830078125,0.03416569158434868,0.0655590370297432,-0.02425873465836048
1700515532470486000,0.536486083984375,0.02004428207874298,-0.11507545411586761,0.1319740116596222
1700515532480495900,0.546495849609375,-0.03019598498940468,0.03518861532211304,0.037822481244802475
1700515532490506000,0.556506103515625,-0.02484862506389618,0.0967254787683487,-0.09986454248428345
1700515532500515800,0.566515869140625,0.059190619736909866,0.0022714100778102875,0.01565113104879856
1700515532510526000,0.57652587890625,-0.0060262009501457214,-0.09623279422521591,0.09909196197986603
1700515532520536000,0.5865361328125,-0.015723036602139473,0.06802352517843246,-0.07533682882785797
1700515532530546000,0.5965458984375,-0.022704513743519783,0.015865249559283257,-0.12268330901861191
1700515532540556000,0.60655615234375,0.055330634117126465,0.04482446238398552,0.010605506598949432
1700515532550566000,0.61656591796875,-0.004846953321248293,-0.12206252664327621,0.1464160680770874
1700515532560576000,0.626575927734375,-0.04910256341099739,0.033361151814460754,-0.0378914549946785
1700515532570587000,0.6365869140625,-0.003225088119506836,0.08514099568128586,-0.0653824657201767
1700515532580597000,0.646596923828125,0.05784625560045242,-0.07488542795181274,0.0558914951980114
1700515532590606800,0.65660693359375,-0.032891370356082916,-0.03502190113067627,0.07940054684877396
1700515532600617000,0.666616943359375,-0.020067717880010605,0.048649828881025314,-0.14932690560817719
1700515532610626800,0.676626708984375,-0.0007643272401764989,0.04019375890493393,-0.08035396039485931
1700515532620637000,0.686636962890625,0.050213903188705444,-0.04294586926698685,0.06500190496444702
1700515532630647000,0.69664697265625,-0.02515009418129921,-0.042036399245262146,0.12393845617771149
1700515532640657000,0.706656982421875,-0.04059349745512009,0.04478264972567558,-0.07992039620876312
1700515532650667000,0.7166669921875,0.026487000286579132,0.046851396560668945,-0.025715483352541924
1700515532660676900,0.7266767578125,0.032817866653203964,-0.09963418543338776,0.08021547645330429
1700515532670687000,0.73668701171875,-0.033061813563108444,0.027171965688467026,0.01582050882279873
1700515532680697000,0.746697021484375,-0.031253259629011154,0.00407463638111949,-0.1631803959608078
1700515532690707000,0.75670703125,0.0286452267318964,0.07795312255620956,-0.039204660803079605
1700515532700717000,0.766717041015625,0.038120754063129425,-0.12135785073041916,0.12226652354001999
1700515532710727000,0.776726806640625,-0.035098597407341,0.03167270869016647,0.062369633466005325
1700515532720737000,0.786737060546875,-0.027364246547222137,0.08618707954883575,-0.09947092831134796
1700515532730747000,0.796746826171875,0.05811283737421036,0.009269931353628635,0.005342034623026848
1700515532740757000,0.806757080078125,0.003561711637303233,-0.09608498960733414,0.0996972993016243
1700515532750767000,0.81676708984375,-0.019773704931139946,0.07295303791761398,-0.05963323637843132
1700515532760777000,0.82677685546875,-0.024937307462096214,0.0034029872622340918,-0.13284006714820862
1700515532770787000,0.836787109375,0.05054120346903801,0.05506192147731781,0.002915362361818552
1700515532780797000,0.846796875,0.0036879454273730516,-0.1143028736114502,0.1577739119529724
1700515532790808000,0.85680810546875,-0.04698988050222397,0.031264979392290115,-0.02611975185573101
1700515532800818000,0.86681787109375,-0.004023769870400429,0.07315676659345627,-0.0735732838511467
1700515532810828000,0.876828125,0.06296112388372421,-0.06228042021393776,0.04731691628694534
1700515532820838000,0.886837890625,-0.034873828291893005,-0.04011759161949158,0.08927261829376221
1700515532830848000,0.896847900390625,-0.023204654455184937,0.04387903958559036,-0.14532098174095154
1700515532840857900,0.90685791015625,0.0027899276465177536,0.03269216790795326,-0.08782066404819489
1700515532850868000,0.916867919921875,0.054116763174533844,-0.03379924222826958,0.06650125980377197
1700515532860878000,0.926878173828125,-0.02562759816646576,-0.033185917884111404,0.13834401965141296
1700515532870888000,0.936887939453125,-0.04360872879624367,0.025139974430203438,-0.08936423063278198
1700515532880898000,0.94689794921875,0.030399983748793602,0.048657551407814026,-0.03340855613350868
1700515532890908000,0.956907958984375,0.03755350038409233,-0.09130381047725677,0.07594270259141922
1700515532900918000,0.96691796875,-0.03301920369267464,0.0187063105404377,0.024895496666431427
1700515532910928100,0.97692822265625,-0.037516217678785324,-0.000004261057711119065,-0.16757647693157196
1700515532920938000,0.98693798828125,0.0347563810646534,0.08356306701898575,-0.04039136320352554
1700515532930948000,0.996947998046875,0.041378866881132126,-0.1282045692205429,0.13172447681427002
1700515532940958000,1.0069580078125,-0.04440820962190628,0.03711754083633423,0.06692683696746826
1700515532950968000,1.016968017578125,-0.0309832151979208,0.0856187641620636,-0.10318976640701294
1700515532960978000,1.02697802734375,0.07029972970485687,-0.018974756821990013,0.0057316552847623825
1700515532970988000,1.036988037109375,-0.005823001731187105,-0.07480765879154205,0.11373694986104965
1700515532980998100,1.046998046875,-0.02364780567586422,0.07385744899511337,-0.07529395818710327
1700515532991008000,1.057008056640625,-0.016502544283866882,0.0005352954030968249,-0.1406458020210266
1700515533001019000,1.067018798828125,0.05239822715520859,0.02466539852321148,0.01732679270207882
1700515533011029000,1.077029052734375,-0.006028597708791494,-0.06984911859035492,0.16614210605621338
1700515533021039000,1.0870390625,-0.044135235249996185,-0.0015398397808894515,-0.04526947811245918
1700515533031049000,1.097049072265625,0.00007909588020993397,0.07342441380023956,-0.08421608060598373
1700515533041059000,1.10705908203125,0.05500093474984169,-0.04851160943508148,0.04146888107061386
1700515533051069000,1.11706884765625,-0.02942073903977871,-0.03255421295762062,0.0911932960152626
1700515533061079000,1.1270791015625,-0.028613269329071045,0.027811923995614052,-0.14589622616767883
1700515533071089200,1.137089111328125,0.006654973141849041,0.05072389915585518,-0.08044930547475815
1700515533081099000,1.14709912109375,0.059180233627557755,-0.051237355917692184,0.0686352550983429
1700515533091109000,1.157109130859375,-0.03110785223543644,-0.023962058126926422,0.1354377120733261
1700515533101119000,1.167118896484375,-0.045529402792453766,0.04644393175840378,-0.08996450901031494
1700515533111129000,1.177129150390625,0.04050295054912567,0.04006459563970566,-0.024564998224377632
1700515533121139000,1.187138916015625,0.027703266590833664,-0.10608622431755066,0.09564929455518723
1700515533131149000,1.197149169921875,-0.03255554661154747,0.052195824682712555,0.012908874079585075
1700515533141159200,1.2071591796875,-0.03057974763214588,0.0021342572290450335,-0.17211344838142395
1700515533151169000,1.2171689453125,0.04156395420432091,0.05511278659105301,-0.03567144647240639
1700515533161179100,1.22717919921875,0.026256371289491653,-0.10014257580041885,0.13988973200321198
1700515533171189000,1.23718896484375,-0.03877296298742294,0.034685008227825165,0.04585910215973854
1700515533181199000,1.24719921875,-0.021853899583220482,0.0837247222661972,-0.10396900773048401
1700515533191209000,1.257208984375,0.060319531708955765,-0.00945049338042736,0.011505122296512127
1700515533201219000,1.267218994140625,-0.01107368990778923,-0.07744738459587097,0.10869505256414413
1700515533211230000,1.27722998046875,-0.020074907690286636,0.06649406999349594,-0.08784809708595276
1700515533221240000,1.287239990234375,-0.01674063131213188,0.010104033164680004,-0.13172607123851776
1700515533231250000,1.29725,0.055097341537475586,0.02581535093486309,0.01417387556284666
1700515533241260300,1.30726025390625,-0.01092481892555952,-0.08762519061565399,0.16388081014156342
1700515533251270400,1.3172705078125,-0.05241820216178894,0.013701963238418102,-0.050103913992643356
1700515533261280300,1.3272802734375,0.006180131807923317,0.06544744968414307,-0.06823445111513138
1700515533271290400,1.337290283203125,0.05162031576037407,-0.08687125146389008,0.06332118064165115
1700515533281300200,1.34730029296875,-0.03587304428219795,-0.002825613832101226,0.0830133929848671
1700515533291310300,1.357310302734375,-0.03202158212661743,0.02528298646211624,-0.16049566864967346
1700515533301320200,1.3673203125,0.015300925821065903,0.03526025265455246,-0.07246940582990646
1700515533311330300,1.377330322265625,0.04822105914354324,-0.060397032648324966,0.09552891552448273
1700515533321340400,1.38734033203125,-0.027769844979047775,0.01284415926784277,0.11119789630174637
1700515533331350300,1.397350341796875,-0.03737453743815422,0.038905587047338486,-0.11190709471702576
1700515533341360400,1.4073603515625,0.04238287732005119,0.03443200886249542,-0.025182584300637245
1700515533351370200,1.417370361328125,0.02262941189110279,-0.09301942586898804,0.10266219824552536
1700515533361380400,1.42738037109375,-0.027908330783247948,0.05741775408387184,0.0019520970527082682
1700515533371390500,1.437390380859375,-0.032334502786397934,0.000871652620844543,-0.16084028780460358
1700515533381400300,1.447400390625,0.044022850692272186,0.05004851892590523,-0.025469673797488213
1700515533391411200,1.4574111328125,0.019113773480057716,-0.0958772599697113,0.1412934809923172
1700515533401421300,1.46742138671875,-0.03369591012597084,0.04139910638332367,0.021860823035240173
1700515533411431400,1.477431396484375,-0.017919078469276428,0.0769464448094368,-0.10214128345251083
1700515533421441300,1.487441162109375,0.059844691306352615,-0.006535930093377829,0.020058663561940193
1700515533431451400,1.497451416015625,-0.011204717680811882,-0.06556489318609238,0.10275913774967194
1700515533441461200,1.507461181640625,-0.016869261860847473,0.05625687912106514,-0.1002935841679573
1700515533451471400,1.517471435546875,-0.01901816576719284,0.007360977120697498,-0.1174299567937851
1700515533461481200,1.527481201171875,0.05847929045557976,0.03002794086933136,0.023963123559951782
1700515533471491300,1.5374912109375,-0.0067697553895413876,-0.08945903927087784,0.1641409993171692
1700515533481501400,1.54750146484375,-0.04897499829530716,0.02461719512939453,-0.04647162929177284
1700515533491511300,1.55751123046875,0.010033193044364452,0.060382917523384094,-0.06880276650190353
1700515533501521400,1.567521484375,0.05474500358104706,-0.10194820165634155,0.07265342772006989
1700515533511531300,1.57753125,-0.04271816834807396,0.017008012160658836,0.06920170783996582
1700515533521541400,1.587541259765625,-0.027290210127830505,0.021088773384690285,-0.1676579713821411
1700515533531551500,1.597551513671875,0.014486530795693398,0.022010494023561478,-0.06774202734231949
1700515533541561300,1.607561279296875,0.04024595767259598,-0.04397384822368622,0.10339003801345825
1700515533551571500,1.617571533203125,-0.025653431192040443,0.013004215434193611,0.10374902933835983
1700515533561582300,1.627582275390625,-0.03491697087883949,0.016634637489914894,-0.11179816722869873
1700515533571592400,1.637592529296875,0.03550766035914421,0.046853259205818176,-0.025371402502059937
1700515533581602300,1.647602294921875,0.02352103777229786,-0.09341410547494888,0.09642373770475388
1700515533591612400,1.6576123046875,-0.023873109370470047,0.049972884356975555,0.004711398389190435
1700515533601622300,1.667622314453125,-0.03157790005207062,-0.003721501212567091,-0.15702024102210999
1700515533611632400,1.67763232421875,0.03536864370107651,0.06286178529262543,-0.020615795627236366
1700515533621642200,1.687642333984375,0.02624651789665222,-0.10472241789102554,0.13044056296348572
1700515533631652400,1.69765234375,-0.03406156226992607,0.029530994594097137,0.028383171185851097
1700515533641662500,1.707662353515625,-0.018811238929629326,0.08754129707813263,-0.10015003383159637
1700515533651672300,1.71767236328125,0.05832642316818237,-0.019041601568460464,0.02219451777637005
1700515533661682400,1.727682373046875,-0.009208944626152515,-0.06718915700912476,0.09832337498664856
1700515533671692300,1.7376923828125,-0.009633452631533146,0.06925071030855179,-0.0849204808473587
1700515533681702400,1.747702392578125,-0.023572171106934547,-0.0107668936252594,-0.13236096501350403
1700515533691712300,1.757712158203125,0.045336056500673294,0.03129054605960846,0.02226056531071663
1700515533701722000,1.76772216796875,0.000029294771593413316,-0.06963899731636047,0.15468065440654755
1700515533711733200,1.777733154296875,-0.03816070035099983,-0.0007006776868365705,-0.03326501324772835
1700515533721743400,1.787743408203125,-0.0062341936863958836,0.08365335315465927,-0.07462230324745178
1700515533731753500,1.79775341796875,0.059235092252492905,-0.07557012140750885,0.05120353400707245
1700515533741763300,1.807763427734375,-0.030957384034991264,-0.01582876406610012,0.07381030917167664
1700515533751773400,1.8177734375,-0.011483284644782543,0.0354517325758934,-0.13214552402496338
1700515533761783300,1.827783203125,-0.007450725883245468,0.015489211305975914,-0.08592023700475693
1700515533771793400,1.83779345703125,0.047986168414354324,-0.02684386447072029,0.07001317292451859
1700515533781803300,1.84780322265625,-0.020861605182290077,-0.023312779143452644,0.1214611828327179
1700515533791813400,1.8578134765625,-0.03666213899850845,0.004502340219914913,-0.07803621143102646
1700515533801823200,1.8678232421875,0.019156916067004204,0.05667473003268242,-0.03599608317017555
1700515533811833000,1.8778330078125,0.03430098295211792,-0.10303477197885513,0.0824701115489006
1700515533821843200,1.88784326171875,-0.027704598382115364,0.045769885182380676,0.021929800510406494
1700515533831853000,1.89785302734375,-0.025663284584879875,-0.0011004181578755379,-0.15962162613868713
1700515533841863200,1.90786328125,0.013587447814643383,0.044082771986722946,-0.040762078016996384
1700515533851874300,1.917874267578125,0.036486104130744934,-0.07452403753995895,0.1105257123708725
1700515533861884400,1.927884521484375,-0.024951422587037086,0.024565264582633972,0.06763896346092224
1700515533871894300,1.937894287109375,-0.02923405170440674,0.04302816092967987,-0.09730365127325058
1700515533881904400,1.947904296875,0.044145356863737106,0.02965696156024933,-0.004780107643455267
1700515533891914200,1.957914306640625,0.009196694009006023,-0.10219880938529968,0.09054055064916611
1700515533901924400,1.96792431640625,-0.014768026769161224,0.07246328145265579,-0.042807918041944504
1700515533911934200,1.977934326171875,-0.03351827710866928,-0.0202216487377882,-0.14803101122379303
1700515533921944000,1.987944091796875,0.034808047115802765,0.06083272397518158,-0.007748466916382313
1700515533931954200,1.9979541015625,0.01841362752020359,-0.10675707459449768,0.13705505430698395
1700515533941964000,2.007964111328125,-0.03325995057821274,0.03606026619672775,0.012722186744213104
1700515533951974100,2.01797412109375,-0.019101256504654884,0.08901296555995941,-0.09000099450349808
1700515533961984300,2.027984375,0.062066301703453064,-0.03286633640527725,0.032893236726522446
1700515533971995400,2.037995361328125,-0.016647152602672577,-0.055862732231616974,0.08216623961925507
1700515533982005200,2.048005126953125,-0.007801463827490807,0.0612415187060833,-0.107807956635952
1700515533992015400,2.058015380859375,-0.022548984736204147,-0.005586512852460146,-0.11871200054883957
1700515534002025500,2.068025390625,0.048474326729774475,0.032103873789310455,0.028976257890462875
1700515534012035300,2.078035400390625,-0.0035049861762672663,-0.07874594628810883,0.14594575762748718
1700515534022045400,2.08804541015625,-0.04628680646419525,0.01125292107462883,-0.03983955830335617
1700515534032055000,2.098054931640625,0.004309260752052069,0.07056551426649094,-0.06275525689125061
1700515534042065200,2.108065185546875,0.05679377540946007,-0.09633079916238785,0.06974392384290695
1700515534052075300,2.1180751953125,-0.03579661250114441,0.0065196845680475235,0.06472600251436234
1700515534062085000,2.128085205078125,-0.021503161638975143,0.023437416180968285,-0.14835591614246368
1700515534072095200,2.13809521484375,0.006170544307678938,0.03249163180589676,-0.0702134445309639
1700515534082106400,2.1481064453125,0.04752543941140175,-0.05614529550075531,0.0904710441827774
1700515534092116500,2.158116455078125,-0.02262648195028305,0.011364241130650043,0.1012246236205101
1700515534102126300,2.168126220703125,-0.034333471208810806,0.025713618844747543,-0.09695397317409515
1700515534112136400,2.178136474609375,0.033006951212882996,0.0385708287358284,-0.0322418250143528
1700515534122146300,2.188146240234375,0.026105636730790138,-0.10346860438585281,0.09145162254571915
1700515534132156400,2.198156494140625,-0.0248480923473835,0.062309712171554565,0.008800149895250797
1700515534142166000,2.208166015625,-0.03134141117334366,-0.007394533138722181,-0.15117886662483215
1700515534152176000,2.218176025390625,0.029504895210266113,0.06052672863006592,-0.029652966186404228
1700515534162186200,2.228186279296875,0.02955123409628868,-0.10702019184827805,0.1271773874759674
1700515534172196000,2.238196044921875,-0.03283730894327164,0.046670299023389816,0.03779584914445877
1700515534182207200,2.248207275390625,-0.025070998817682266,0.08336972445249557,-0.10184992849826813
1700515534192217300,2.25821728515625,0.06150969862937927,-0.01762666366994381,0.019089538604021072
1700515534202227500,2.2682275390625,-0.010832141153514385,-0.07416503876447678,0.10252717137336731
1700515534212237300,2.2782373046875,-0.011464109644293785,0.074287548661232,-0.07388194650411606
1700515534222247400,2.288247314453125,-0.026267023757100105,-0.007472297176718712,-0.1384231299161911
1700515534232257300,2.29825732421875,0.05004478991031647,0.03226153180003166,0.010943194851279259
1700515534242267100,2.30826708984375,0.0017869811272248626,-0.08333244174718857,0.15127713978290558
1700515534252277200,2.31827734375,-0.04369980841875076,0.01017034612596035,-0.02786731719970703
1700515534262287000,2.328287109375,-0.004047738388180733,0.07793128490447998,-0.07348273694515228
1700515534272298000,2.338298095703125,0.06247163191437721,-0.0810900554060936,0.05283977836370468
1700515534282308000,2.34830810546875,-0.030712638050317764,-0.011562646366655827,0.07565134763717651
1700515534292318200,2.358318115234375,-0.01708311215043068,0.03151211887598038,-0.14327646791934967
1700515534302328000,2.368328125,0.0017859158106148243,0.029864687472581863,-0.08562515676021576
1700515534312338200,2.378338134765625,0.05128156393766403,-0.04003210365772247,0.0715937614440918
1700515534322348000,2.38834814453125,-0.024207601323723793,-0.01158768031746149,0.1256237030029297
1700515534332358100,2.398358154296875,-0.039681900292634964,0.02209092117846012,-0.08651731163263321
1700515534342368000,2.408367919921875,0.030398918315768242,0.04346784949302673,-0.03819665312767029
1700515534352378000,2.418378173828125,0.03418726474046707,-0.10681965947151184,0.08718736469745636
1700515534362389200,2.42838916015625,-0.029033781960606575,0.05796103924512863,0.02027145028114319
1700515534372399400,2.4383994140625,-0.03147909790277481,-0.006366552785038948,-0.16180647909641266
1700515534382409200,2.4484091796875,0.030431142076849937,0.05548935756087303,-0.04248780384659767
1700515534392419000,2.458419189453125,0.029168805107474327,-0.09746716916561127,0.12075278162956238
1700515534402429200,2.46842919921875,-0.0321267768740654,0.03852741792798042,0.05361795425415039
1700515534412439000,2.47843896484375,-0.024987908080220222,0.08127674460411072,-0.10616078972816467
1700515534422449200,2.48844921875,0.0595855675637722,-0.013631124049425125,0.006667756475508213
1700515534432459000,2.498458984375,-0.003950532991439104,-0.07152904570102692,0.10977842658758163
1700515534442470400,2.508470458984375,-0.01607297547161579,0.075389564037323,-0.0524245910346508
1700515534452480300,2.518480224609375,-0.024202806875109673,-0.005114334635436535,-0.14404451847076416
1700515534462490400,2.528490478515625,0.05289969965815544,0.023871777579188347,0.06541468948125839
1700515534472500200,2.538500244140625,-0.012324310839176178,-0.09307215362787247,0.1232641413807869
1700515534482510300,2.54851025390625,-0.028373317793011665,0.0276848915964365,-0.09191660583019257
1700515534492520400,2.5585205078125,-0.008537295274436474,0.06774522364139557,-0.1176035925745964
1700515534502530000,2.568530029296875,0.05578203871846199,-0.08116383105516434,0.10261213034391403
1700515534512540200,2.5785400390625,-0.032036229968070984,-0.021342040970921516,0.10934673249721527
1700515534522551300,2.58855126953125,-0.009590309113264084,0.04400847107172012,-0.15269820392131805
1700515534532561400,2.5985615234375,0.016643159091472626,0.1158728078007698,-0.03903741389513016
1700515534542571300,2.6085712890625,0.03753805533051491,-0.11568532139062881,0.11767496913671494
1700515534552581400,2.618581298828125,-0.02646969072520733,-0.002975283656269312,0.05134015157818794
1700515534562591200,2.62859130859375,-0.03544214740395546,0.014160826802253723,-0.1558324694633484
1700515534572601300,2.638601318359375,0.04464416578412056,0.13969291746616364,0.03224289044737816
1700515534582611200,2.648611083984375,0.012221778742969036,-0.1904120147228241,0.1638086438179016
1700515534592622300,2.658622314453125,-0.02202514186501503,0.08743584156036377,-0.009350624866783619
1700515534602632200,2.668632080078125,-0.020743360742926598,-0.0041638524271547794,-0.23503541946411133
1700515534612642300,2.678642333984375,0.05293725058436394,0.13455115258693695,0.07968577742576599
1700515534622652400,2.68865234375,-0.006330600008368492,-0.1887536644935608,0.1601521223783493
1700515534632662300,2.698662353515625,-0.004804608877748251,0.08366719633340836,-0.05252552404999733
1700515534642672400,2.70867236328125,-0.03586265817284584,0.008834770880639553,-0.1869962513446808
1700515534652682200,2.71868212890625,0.06509218364953995,0.06309081614017487,0.1516675502061844
1700515534662693400,2.728693359375,-0.03140532597899437,-0.16709232330322266,0.14048680663108826
1700515534672703200,2.738703125,0.008411860093474388,0.1109430268406868,-0.1601816862821579
1700515534682713300,2.74871337890625,-0.028307804837822914,0.005254150368273258,-0.1969442218542099
1700515534692723200,2.75872314453125,0.045393578708171844,-0.03477662429213524,0.20540694892406464
1700515534702733300,2.7687333984375,-0.04542926698923111,-0.14602777361869812,0.08083972334861755
1700515534712743200,2.7787431640625,0.010869425721466541,0.09056771546602249,-0.21870464086532593
1700515534722753300,2.788753173828125,0.008790828287601471,0.23819606006145477,0.0060240705497562885
1700515534732764200,2.79876416015625,0.020480507984757423,-0.2367936372756958,0.23393526673316956
1700515534742774300,2.808774169921875,-0.0314873531460762,0.03592338040471077,0.028147481381893158
1700515534752784100,2.8187841796875,0.002816559048369527,0.03846350312232971,-0.25948774814605713
1700515534762794200,2.828794189453125,0.052018724381923676,0.22329993546009064,0.057194046676158905
1700515534772804400,2.838804443359375,-0.005826996639370918,-0.2048325091600418,0.22958366572856903
1700515534782814200,2.848814208984375,-0.020793961361050606,0.049961432814598083,-0.0517907589673996
1700515534792825300,2.858825439453125,-0.012154134921729565,-0.03536651283502579,-0.2524751126766205
1700515534802835200,2.868835205078125,0.044677723199129105,0.23821362853050232,0.12381648272275925
1700515534812845300,2.87884521484375,-0.0011113371001556516,-0.20161780714988708,0.22934557497501373
1700515534822855200,2.888855224609375,-0.011420167051255703,0.07719837874174118,-0.06645199656486511
1700515534832865300,2.898865234375,-0.009039834141731262,-0.025676067918539047,-0.2749572694301605
1700515534842875100,2.908875244140625,0.05674663558602333,0.21445263922214508,0.19339129328727722
1700515534852885200,2.91888525390625,-0.014752314426004887,-0.21314050257205963,0.19059312343597412
1700515534862896000,2.928896240234375,0.0055151404812932014,0.07112210988998413,-0.1790563017129898
1700515534872906200,2.93890625,-0.042867839336395264,-0.04451233893632889,-0.24841514229774475
1700515534882916000,2.948916015625,0.02207707241177559,-0.005693572107702494,0.20747889578342438
1700515534892926200,2.95892626953125,-0.005631786771118641,-0.12958276271820068,0.16997039318084717
1700515534902936300,2.968936279296875,-0.004942560568451881,0.08525338023900986,-0.174519881606102
1700515534912946200,2.9789462890625,-0.016625847667455673,-0.042452383786439896,-0.2605045437812805
1700515534922957000,2.98895703125,0.031379226595163345,-0.0012389025650918484,0.23046010732650757
1700515534932967200,2.99896728515625,-0.029937924817204475,-0.103482186794281,0.12908102571964264
1700515534942977300,3.008977294921875,0.016030099242925644,0.06148812919855118,-0.24056680500507355
1700515534952987100,3.018987060546875,-0.0034938009921461344,0.1573006808757782,-0.007819040678441525
1700515534962997200,3.028997314453125,-0.006226470693945885,-0.1933383047580719,0.22594018280506134
1700515534973007000,3.039007080078125,-0.004420847166329622,0.01744530349969864,0.027530428022146225
1700515534983018200,3.049018310546875,-0.001064998097717762,0.02310691773891449,-0.2772529125213623
1700515534993028000,3.059028076171875,0.052859753370285034,0.2861369550228119,0.19645580649375916
1700515535003038200,3.0690380859375,-0.037579067051410675,-0.24959412217140198,0.20667141675949097
1700515535013048000,3.079048095703125,0.00818043202161789,0.0711844339966774,-0.16073082387447357
1700515535023058200,3.08905810546875,0.009065399877727032,0.01846183091402054,-0.2791599929332733
1700515535033069000,3.099069091796875,-0.010687798261642456,-0.06696758419275284,0.25581100583076477
1700515535043079200,3.1090791015625,0.005535114090889692,-0.014752847142517567,0.07435546070337296
1700515535053089000,3.119089111328125,-0.018071411177515984,-0.04555416852235794,-0.21755336225032806
1700515535063099100,3.12909912109375,0.022540463134646416,0.17023484408855438,-0.0028549085836857557
1700515535073109200,3.139109130859375,0.03641872853040695,-0.03328391909599304,0.2539052367210388
1700515535083119000,3.149119140625,-0.03773565962910652,-0.06819609552621841,-0.00045380264054983854
1700515535093130000,3.1591298828125,-0.0191957987844944,-0.056718140840530396,-0.3670128881931305
1700515535103140000,3.16914013671875,0.02653493732213974,0.15243162214756012,0.1213701069355011
1700515535113150200,3.179150146484375,0.038787875324487686,-0.0418289378285408,0.24603933095932007
1700515535123160000,3.18916015625,-0.012742160819470882,-0.015028750523924828,-0.03918788209557533
1700515535133170200,3.199170166015625,-0.03021516092121601,-0.023255787789821625,-0.26416534185409546
1700515535143181300,3.209181396484375,0.02430214360356331,0.12471343576908112,0.06123778969049454
1700515535153191400,3.21919140625,0.04446280747652054,-0.06992129236459732,0.29915687441825867
1700515535163201300,3.229201171875,-0.08737485110759735,-0.07787668704986572,-0.11039122194051743
1700515535173211100,3.239211181640625,0.03600087761878967,0.03858228027820587,-0.4061826765537262
1700515535183221000,3.249220947265625,-0.015957128256559372,0.05440305545926094,0.22268740832805634
1700515535193232400,3.259232421875,0.05488242208957672,-0.018382202833890915,0.21947723627090454
1700515535203242200,3.2692421875,-0.05043387785553932,-0.07646201550960541,-0.11505495011806488
1700515535213252400,3.27925244140625,0.007369765546172857,0.06532041728496552,-0.21919839084148407
1700515535223262200,3.28926220703125,0.013143498450517654,0.13759514689445496,0.16800205409526825
1700515535233272300,3.299272216796875,0.057322945445775986,-0.0975784882903099,0.25228390097618103
1700515535243284000,3.309283935546875,-0.09733827412128448,-0.09314539283514023,-0.21962183713912964
1700515535253294000,3.319294189453125,0.0769890546798706,0.19567176699638367,-0.1992284208536148
1700515535263304000,3.329303955078125,-0.022171081975102425,-0.059489425271749496,0.30651038885116577
1700515535273314000,3.33931396484375,0.055269911885261536,0.03658650815486908,0.12401621788740158
1700515535283324000,3.349323974609375,-0.06159891560673714,-0.13337670266628265,-0.23084013164043427
1700515535293335300,3.359335205078125,0.020305272191762924,0.1151881068944931,-0.09302261471748352
1700515535303345200,3.36934521484375,0.01653902977705002,0.09374566376209259,0.2878597378730774
1700515535313355300,3.379355224609375,0.03182584047317505,-0.07951267063617706,0.11466319859027863
1700515535323364900,3.38936474609375,-0.08130151033401489,-0.0968080386519432,-0.3779102861881256
1700515535333375000,3.399375,0.05397854745388031,0.11808829009532928,-0.04165876284241676
1700515535343386000,3.40938623046875,0.002144377212971449,-0.02708088606595993,0.30619508028030396
1700515535353396200,3.419396240234375,0.03555586189031601,0.014189322479069233,0.052202485501766205
1700515535363406000,3.429406005859375,-0.07447263598442078,-0.12358745187520981,-0.30747953057289124
1700515535373416200,3.439416259765625,0.03178269788622856,0.12160472571849823,-0.036317795515060425
1700515535383427000,3.449427001953125,0.032886043190956116,0.004640824627131224,0.35326460003852844
1700515535393437200,3.459437255859375,-0.035047467797994614,-0.06939718127250671,-0.016627712175250053
1700515535403447000,3.469447021484375,-0.020786771550774574,-0.008478173054754734,-0.37846502661705017
1700515535413457200,3.47945703125,0.023914121091365814,0.08951417356729507,0.13051912188529968
1700515535423467300,3.48946728515625,0.04259539768099785,0.015331019647419453,0.27099794149398804
1700515535433478100,3.49947802734375,-0.002444781828671694,-0.06803683936595917,-0.09916093945503235
1700515535443488000,3.509488037109375,-0.03868614137172699,-0.0034818167332559824,-0.2462766170501709
1700515535453498000,3.519498046875,0.016577377915382385,0.12189474701881409,0.10615706443786621
1700515535463508200,3.52950830078125,0.06861793994903564,-0.036922331899404526,0.3044288754463196
1700515535473519000,3.53951904296875,-0.08405069261789322,-0.12449159473180771,-0.20008808374404907
1700515535483529200,3.549529296875,0.027754133567214012,0.1067701205611229,-0.2898757755756378
1700515535493539000,3.5595390625,-0.0031430625822395086,0.028267590329051018,0.268644243478775
1700515535503549200,3.569549072265625,0.06070728972554207,0.03837002441287041,0.20571161806583405
1700515535513559000,3.57955908203125,-0.05126238986849785,-0.14758439362049103,-0.21280254423618317
1700515535523570200,3.589570068359375,0.004072505980730057,0.07805325835943222,-0.17668502032756805
1700515535533580000,3.599580078125,0.0017624800093472004,0.11361764371395111,0.22439555823802948
1700515535543590100,3.609590087890625,0.06799156963825226,-0.0460902638733387,0.20683200657367706
1700515535553600000,3.61960009765625,-0.09781577438116074,-0.15319514274597168,-0.3263176679611206
1700515535563611100,3.629611083984375,0.053219012916088104,0.13395008444786072,-0.16635408997535706
1700515535573621000,3.63962109375,-0.0226144976913929,-0.03361255303025246,0.3027217984199524
1700515535583631000,3.649631103515625,0.06262902915477753,0.0599466897547245,0.145268514752388
1700515535593641000,3.659640869140625,-0.0794207900762558,-0.1839519888162613,-0.2698251008987427
1700515535603652000,3.669652099609375,0.02767983078956604,0.13896746933460236,-0.1364225596189499
1700515535613662000,3.679661865234375,0.01630493812263012,0.06696518510580063,0.3412574529647827
1700515535623672000,3.689672119140625,0.023620108142495155,-0.031266842037439346,0.12893640995025635
1700515535633682000,3.699681884765625,-0.07850572466850281,-0.1265968233346939,-0.4104442596435547
1700515535643692000,3.709692138671875,0.05194602161645889,0.11446958780288696,-0.0213612150400877
1700515535653703000,3.719702880859375,-0.0009531453251838684,-0.017002152279019356,0.30695194005966187
1700515535663713000,3.729713134765625,0.042145323008298874,0.018854381516575813,0.011265438050031662
1700515535673723000,3.739722900390625,-0.06895004212856293,-0.12341567873954773,-0.29058337211608887
1700515535683733000,3.74973291015625,0.02105148881673813,0.1161780059337616,-0.05462036654353142
1700515535693744000,3.759744140625,0.031381092965602875,0.01962110586464405,0.32609128952026367
1700515535703754200,3.769754150390625,-0.023805996403098106,-0.07574429363012314,0.002104163635522127
1700515535713764000,3.77976416015625,-0.04013889655470848,-0.029155489057302475,-0.3889394998550415
1700515535723774200,3.789774169921875,0.03015497326850891,0.07960508018732071,0.10005469620227814
1700515535733785000,3.79978515625,0.03153875097632408,0.012506471015512943,0.2751796543598175
1700515535743795200,3.809795166015625,0.006637129932641983,-0.031077491119503975,-0.0683782547712326
1700515535753805000,3.81980517578125,-0.062434613704681396,-0.05879194289445877,-0.28732526302337646
1700515535763815200,3.829815185546875,0.01926264353096485,0.12746074795722961,0.07822129875421524
1700515535773826000,3.839825927734375,0.04267662391066551,-0.042753055691719055,0.32799118757247925
1700515535783836200,3.849836181640625,-0.0606636144220829,-0.0766654834151268,-0.17638862133026123
1700515535793846000,3.859845947265625,0.01101563312113285,0.0669204443693161,-0.29061025381088257
1700515535803856100,3.869856201171875,-0.013056146912276745,0.03624802082777023,0.25575053691864014
1700515535813867000,3.879866943359375,0.03882808983325958,0.04008696600794792,0.19899912178516388
1700515535823877000,3.889877197265625,-0.03339044749736786,-0.11550715565681458,-0.22385945916175842
1700515535833887000,3.899886962890625,-0.019145198166370392,0.04117166996002197,-0.1965537965297699
1700515535843898000,3.909898193359375,-0.018193118274211884,0.11022770404815674,0.19114385545253754
1700515535853908000,3.919907958984375,0.061465226113796234,-0.03880651667714119,0.1990254819393158
1700515535863918000,3.92991796875,-0.05745290592312813,-0.08731625974178314,-0.3027856945991516
1700515535873928200,3.93992822265625,0.03280641511082649,0.13273514807224274,-0.14700622856616974
1700515535883939000,3.94993896484375,-0.025539981201291084,-0.018898855894804,0.2900688350200653
1700515535893949000,3.959948974609375,0.05850725248456001,0.05168023705482483,0.10887428373098373
1700515535903959000,3.969958984375,-0.08341659605503082,-0.1549573540687561,-0.3143763244152069
1700515535913969200,3.97996923828125,0.010633469559252262,0.08413191884756088,-0.1357479840517044
1700515535923980000,3.98997998046875,-0.0008620652370154858,0.07057429850101471,0.32511523365974426
1700515535933990000,3.999989990234375,0.056475792080163956,-0.0184080358594656,0.10195352882146835
1700515535944000000,4.01,-0.09629377722740173,-0.15530037879943848,-0.41037899255752563
1700515535954010000,4.020010009765625,0.03164474666118622,0.08242217451334,0.0022266688756644726
1700515535964021200,4.030021240234375,-0.007987353019416332,0.010612164624035358,0.3432801365852356
1700515535974030800,4.04003076171875,0.05805238336324692,0.015097193419933319,0.03744750842452049
1700515535984041000,4.050041015625,-0.08169033378362656,-0.15563033521175385,-0.35405394434928894
1700515535994051000,4.060051025390625,0.03682485967874527,0.1391451060771942,-0.02755812369287014
1700515536004062200,4.070062255859375,0.039690155535936356,0.03268737345933914,0.40272533893585205
1700515536014072000,4.080072021484375,0.033000826835632324,-0.02335112914443016,-0.05790165066719055
1700515536024082200,4.090082275390625,-0.0676078051328659,-0.07577438652515411,-0.41048020124435425
1700515536034093000,4.100093017578125,0.027514182031154633,0.0782569870352745,0.1588335931301117
1700515536044103200,4.110103271484375,0.033298835158348083,0.0902811586856842,0.3367585837841034
1700515536054113000,4.120113037109375,0.031918782740831375,-0.0322471521794796,-0.09479468315839767
1700515536064123100,4.130123046875,-0.06751699000597,-0.13367417454719543,-0.33531835675239563
1700515536074134000,4.140134033203125,0.005366269499063492,0.11135608702898026,0.059231098741292953
1700515536084144000,4.15014404296875,0.04369102045893669,0.015546735376119614,0.36558037996292114
1700515536094154200,4.160154296875,-0.027763720601797104,-0.086167111992836,-0.18473629653453827
1700515536104165000,4.1701650390625,-0.04935290291905403,-0.04454642906785011,-0.3557165563106537
1700515536114175000,4.180175048828125,0.009424660354852676,0.06671112030744553,0.2374168187379837
1700515536124185000,4.19018505859375,0.04652409255504608,0.0945853590965271,0.28773003816604614
1700515536134195200,4.2001953125,0.011935489252209663,-0.07643165439367294,-0.1758543848991394
1700515536144206000,4.2102060546875,-0.06163406744599342,-0.0627741664648056,-0.33360540866851807
1700515536154216000,4.2202158203125,0.011635883711278439,0.115410216152668,0.13712510466575623
1700515536164226000,4.23022607421875,0.05741801857948303,-0.02202673815190792,0.3427533507347107
1700515536174236200,4.240236083984375,-0.052083708345890045,-0.10670460760593414,-0.29755258560180664
1700515536184247000,4.2502470703125,0.016883375123143196,0.06753270328044891,-0.34053146839141846
1700515536194257000,4.2602568359375,0.0012825783342123032,0.038609977811574936,0.289453387260437
1700515536204267000,4.27026708984375,0.07191227376461029,0.056345563381910324,0.23880751430988312
1700515536214278000,4.28027783203125,-0.024586036801338196,-0.10521909594535828,-0.23143935203552246
1700515536224288000,4.2902880859375,0.00410526292398572,0.03556278720498085,-0.20667807757854462
1700515536234298000,4.300298095703125,-0.01028805784881115,0.1151641383767128,0.23417681455612183
1700515536244308500,4.31030859375,0.08139392733573914,-0.020739100873470306,0.274660587310791
1700515536254318600,4.320318603515625,-0.10610006749629974,-0.1745489090681076,-0.34568071365356445
1700515536264328400,4.330328369140625,0.04562500864267349,0.1451430767774582,-0.16510719060897827
1700515536274338600,4.340338623046875,-0.021255221217870712,-0.028365861624479294,0.3514304757118225
1700515536284349400,4.350349365234375,0.07653126120567322,0.08656524866819382,0.15608973801136017
1700515536294359600,4.360359619140625,-0.070748470723629,-0.17965205013751984,-0.3132428824901581
1700515536304369400,4.370369384765625,0.022311696782708168,0.09351903200149536,-0.16901086270809174
1700515536314380300,4.38038037109375,0.0037350833881646395,0.08648163080215454,0.31700006127357483
1700515536324390400,4.390390380859375,0.06346099823713303,-0.026868898421525955,0.11274705082178116
1700515536334400500,4.400400390625,-0.10537675768136978,-0.20983046293258667,-0.4699837565422058
1700515536344410400,4.410410400390625,0.06079703941941261,0.1207549124956131,-0.14127962291240692
1700515536354421500,4.42042138671875,-0.024109862744808197,-0.015911322087049484,0.33876872062683105
1700515536364431400,4.430431396484375,0.04330406337976456,0.04045794531702995,0.10438153147697449
1700515536374441500,4.44044140625,-0.09031897783279419,-0.22037604451179504,-0.35659539699554443
1700515536384452600,4.45045263671875,0.041073136031627655,0.14522989094257355,-0.15444256365299225
1700515536394462500,4.46046240234375,0.015976835042238235,0.03935752436518669,0.35345926880836487
1700515536404472300,4.470472412109375,-0.03951704874634743,-0.05233510956168175,0.08925583958625793
1700515536414483500,4.4804833984375,-0.03762593865394592,-0.2100570946931839,-0.4968872666358948
1700515536424493600,4.49049365234375,0.060442037880420685,0.27092310786247253,-0.16463688015937805
1700515536434503700,4.500503662109375,-0.013167999684810638,-0.13888171315193176,0.31333526968955994
1700515536444513500,4.510513427734375,-0.031327828764915466,0.010290187783539295,0.1750463843345642
1700515536454524400,4.5205244140625,0.0051841093227267265,-0.06641470640897751,-0.262859582901001
1700515536464534500,4.530534423828125,-0.009342368692159653,0.025058748200535774,-0.386588454246521
1700515536474544600,4.540544677734375,0.05632186308503151,0.10348325222730637,0.26501595973968506
1700515536484555500,4.550555419921875,-0.0366288498044014,-0.13972701132297516,0.3026149868965149
1700515536494565400,4.5605654296875,0.004279966000467539,0.05585714057087898,-0.18146246671676636
1700515536504575500,4.570575439453125,-0.017300693318247795,-0.08424430340528488,-0.40376532077789307
1700515536514586400,4.58058642578125,0.057615891098976135,0.24145309627056122,0.1828230768442154
1700515536524596500,4.590596435546875,0.0014879080699756742,-0.19470423460006714,0.32500845193862915
1700515536534606300,4.6006064453125,-0.010841729119420052,0.071337029337883,-0.06462879478931427
1700515536544617500,4.610617431640625,-0.010834272019565105,-0.044387705624103546,-0.3651326894760132
1700515536554627300,4.62062744140625,0.07930680364370346,0.23176318407058716,0.19965878129005432
1700515536564637400,4.630637451171875,-0.008476574905216694,-0.2468356192111969,0.20768289268016815
1700515536574648300,4.6406484375,-0.009132778272032738,0.07928523421287537,-0.19633063673973083
1700515536584658400,4.650658447265625,-0.047442082315683365,-0.038242194801568985,-0.2741695046424866
1700515536594668300,4.660668212890625,0.03297872096300125,-0.004461593925952911,0.22327649593353271
1700515536604678400,4.670678466796875,-0.01798246242105961,-0.13560177385807037,0.1952216923236847
1700515536614689300,4.680689208984375,-0.0033329459838569164,0.08598335087299347,-0.2023078352212906
1700515536624699400,4.690699462890625,-0.028508873656392097,-0.019449330866336823,-0.2531305253505707
1700515536634709200,4.700709228515625,0.033012811094522476,-0.03725629299879074,0.24626676738262177
1700515536644720600,4.710720703125,-0.03874686360359192,-0.13059422373771667,0.09943737089633942
1700515536654730500,4.72073046875,0.014769891276955605,0.06202768534421921,-0.26879629492759705
1700515536664740600,4.73074072265625,-0.013198093511164188,0.17544957995414734,-0.03790876641869545
1700515536674751500,4.74075146484375,0.008536496199667454,-0.19038698077201843,0.2661283612251282
1700515536684761600,4.75076171875,-0.016102803871035576,-0.0017984326696023345,0.08552661538124084
1700515536694771500,4.760771484375,0.000630902883131057,0.03194328397512436,-0.2759189307689667
1700515536704782600,4.770782470703125,0.03032488189637661,0.22785499691963196,0.02533118985593319
1700515536714792400,4.78079248046875,0.005310076754540205,-0.1844843626022339,0.25657984614372253
1700515536724802600,4.790802490234375,-0.023571638390421867,-0.03604907914996147,-0.03099227137863636
1700515536734813400,4.8008134765625,0.0007592672482132912,0.025294704362750053,-0.2885550856590271
1700515536744823600,4.810823486328125,0.03747573494911194,0.25874555110931396,0.08672583848237991
1700515536754833400,4.82083349609375,0.016144614666700363,-0.2177504301071167,0.2727457880973816
1700515536764844500,4.830844482421875,-0.02267654985189438,0.06546343117952347,0.029648706316947937
1700515536774854400,4.8408544921875,-0.004746818449348211,0.016859939321875572,-0.2742762863636017
1700515536784864500,4.850864501953125,-0.019170232117176056,-0.023133814334869385,-0.19254840910434723
1700515536794875400,4.86087548828125,0.03683577850461006,0.02454475685954094,0.09953457862138748
1700515536804885500,4.870885498046875,-0.004435760900378227,-0.010659302584826946,0.21211518347263336
1700515536814895400,4.880895263671875,-0.0355052649974823,-0.023545272648334503,-0.019035743549466133
1700515536824906200,4.89090625,-0.007137804292142391,0.08606910705566406,-0.10261532664299011
1700515536834916400,4.900916259765625,0.06487993150949478,-0.0588446743786335,0.027728034183382988
1700515536844926500,4.910926513671875,-0.028723789379000664,-0.002668753731995821,-0.00392736354842782
1700515536854937600,4.9209375,-0.007960987277328968,0.020388629287481308,-0.14109347760677338
1700515536864947500,4.930947509765625,-0.01044411864131689,0.04385161027312279,-0.051350004971027374
1700515536874957600,4.94095751953125,0.07595415413379669,-0.02016598917543888,0.09081725776195526
1700515536884968400,4.950968505859375,-0.02804628200829029,-0.04196209833025932,0.05409625917673111
1700515536894978600,4.960978515625,-0.055566322058439255,0.023094933480024338,-0.12128674983978271
1700515536904988400,4.970988525390625,0.03451989218592644,0.05218037962913513,-0.027709659188985825
1700515536914999600,4.98099951171875,0.050765976309776306,-0.07926153391599655,0.11635084450244904
1700515536925009400,4.991009521484375,-0.03458673879504204,0.025103488937020302,-0.009704559110105038
1700515536935019500,5.00101953125,-0.029401032254099846,-0.0034732946660369635,-0.18890893459320068
1700515536945030400,5.011030517578125,0.007512244861572981,0.05915599688887596,-0.044796764850616455
1700515536955040500,5.02104052734375,0.06401067227125168,-0.0738140344619751,0.11870002001523972
1700515536965050400,5.03105029296875,-0.04302869364619255,-0.013857492245733738,0.058872904628515244
1700515536975061500,5.0410615234375,-0.04584258794784546,0.07459327578544617,-0.08727551996707916
1700515536985071400,5.0510712890625,0.05534953996539116,0.010722685605287552,0.014424479566514492
1700515536995081500,5.06108154296875,0.02239292301237583,-0.09512997418642044,0.10485824197530746
1700515537005092400,5.07109228515625,-0.025135179981589317,0.054376956075429916,-0.07370777428150177
1700515537015102500,5.0811025390625,-0.03852555528283119,-0.006133792456239462,-0.15029096603393555
1700515537025112300,5.0911123046875,0.03692525997757912,0.051476508378982544,0.012587697245180607
1700515537035123500,5.10112353515625,0.025673937052488327,-0.09093230217695236,0.14966405928134918
1700515537045133300,5.11113330078125,-0.0314607210457325,0.02623693086206913,-0.016625314950942993
1700515537055143400,5.121143310546875,-0.022290391847491264,0.08671651780605316,-0.10399670898914337
1700515537065154600,5.131154541015625,0.07116205990314484,-0.018851451575756073,0.048104945570230484
1700515537075164700,5.14116455078125,-0.00809228140860796,-0.04554351791739464,0.09964430332183838
1700515537085174500,5.151174560546875,-0.01919100433588028,0.04030081629753113,-0.10944899916648865
1700515537095185400,5.161185302734375,-0.03347247093915939,-0.018634138628840446,-0.09106359630823135
1700515537105195500,5.171195556640625,0.0555250458419323,0.05105040222406387,0.0647028312087059
1700515537115205600,5.18120556640625,0.01332778949290514,-0.09111286699771881,0.15179432928562164
1700515537125216500,5.191216552734375,-0.057484064251184464,0.029137112200260162,-0.077732615172863
1700515537135226400,5.201226318359375,0.01062361616641283,0.04895875230431557,-0.04614752158522606
1700515537145237500,5.211237548828125,0.06348816305398941,-0.07565481215715408,0.10219081491231918
1700515537155247400,5.221247314453125,-0.033355291932821274,0.02810247428715229,0.05372288450598717
1700515537165257500,5.231257568359375,-0.013558952137827873,-0.00029081720276735723,-0.1912248134613037
1700515537175268400,5.241268310546875,-0.0070579093880951405,0.019696738570928574,-0.09914735704660416
1700515537185278500,5.251278564453125,0.053286924958229065,-0.01227237842977047,0.07247339934110641
1700515537195288300,5.261288330078125,-0.019242936745285988,-0.017246365547180176,0.10614693909883499
1700515537205299500,5.271299560546875,-0.04640824347734451,0.004375840071588755,-0.0875045508146286
1700515537215309300,5.281309326171875,0.016835173591971397,0.04529797285795212,-0.02238653227686882
1700515537225319400,5.2913193359375,0.033721476793289185,-0.08839244395494461,0.09247028082609177
1700515537235330600,5.30133056640625,-0.025193769484758377,0.036444295197725296,-0.016049539670348167
1700515537245341000,5.3113408203125,-0.029895847663283348,-0.006127400789409876,-0.16889101266860962
1700515537255350800,5.321350830078125,0.008565524592995644,0.05470825359225273,-0.032472189515829086
1700515537265361700,5.331361572265625,0.04656164348125458,-0.06773696839809418,0.13581189513206482
1700515537275371800,5.341371826171875,-0.030056169256567955,0.015470036305487156,0.0645076185464859
1700515537285382000,5.3513818359375,-0.04095995053648949,0.058707255870103836,-0.09531906247138977
1700515537295392800,5.361392822265625,0.05074680224061012,0.0054514906369149685,0.019474364817142487
1700515537305403000,5.37140283203125,0.013803696259856224,-0.06455369293689728,0.09624797105789185
1700515537315414000,5.3814140625,-0.016523849219083786,0.05895226448774338,-0.06386499851942062
1700515537325423900,5.391423828125,-0.027427097782492638,-0.026572488248348236,-0.140019953250885
1700515537335433700,5.401433837890625,0.03292173147201538,0.06398191303014755,0.017466608434915543
1700515537345444900,5.41144482421875,0.026826821267604828,-0.07190215587615967,0.14476624131202698
1700515537355455000,5.421455078125,-0.030615700408816338,0.010991930961608887,-0.021401695907115936
1700515537365464800,5.43146484375,-0.023432089015841484,0.08314069360494614,-0.08290793001651764
1700515537375476000,5.44147607421875,0.06018397957086563,-0.03220081329345703,0.06415288895368576
1700515537385485800,5.45148583984375,-0.011458250693976879,-0.03032408282160759,0.08735541254281998
1700515537395496000,5.461495849609375,-0.0037649108562618494,0.0362221859395504,-0.1300240457057953
1700515537405506800,5.4715068359375,-0.027724571526050568,-0.02738901413977146,-0.13547420501708984
1700515537415517000,5.481516845703125,0.038349784910678864,0.04641437157988548,0.03894313797354698
1700515537425527800,5.49152783203125,0.006019276566803455,-0.0491022989153862,0.13851499557495117
1700515537435538000,5.501537841796875,-0.04025954008102417,-0.012513927184045315,-0.0433322936296463
1700515537445547800,5.5115478515625,-0.011263573542237282,0.08068206161260605,-0.06540483981370926
1700515537455558700,5.52155859375,0.06156988814473152,-0.07294531166553497,0.07142624258995056
1700515537465568800,5.53156884765625,-0.029829800128936768,0.013468137942254543,0.04057139530777931
1700515537475579000,5.541578857421875,-0.008980179205536842,0.013343501836061478,-0.14211054146289825
1700515537485589800,5.55158984375,-0.017039170488715172,0.0026226809713989496,-0.08580758422613144
1700515537495599900,5.561599853515625,0.03820837289094925,-0.0004183826094958931,0.08235666155815125
1700515537505609700,5.571609619140625,-0.002983805723488331,-0.013562147505581379,0.0961742028594017
1700515537515620900,5.581620849609375,-0.04417891427874565,-0.017607755959033966,-0.07902877032756805
1700515537525631000,5.591630859375,0.01224601361900568,0.057523213326931,-0.03863447904586792
1700515537535641900,5.601641845703125,0.0448196679353714,-0.08018245548009872,0.08960951119661331
1700515537545652000,5.61165185546875,-0.018393121659755707,0.05235907807946205,0.011950668878853321
1700515537555661800,5.621661865234375,-0.01565219648182392,-0.024223048239946365,-0.14921557903289795
1700515537565673000,5.6316728515625,-0.007791876792907715,0.05179715156555176,-0.05638204887509346
1700515537575682800,5.641682861328125,0.059652410447597504,-0.03798040375113487,0.10282278805971146
1700515537585693000,5.65169287109375,-0.023553529754281044,-0.015241537243127823,0.0756678655743599
1700515537595703800,5.661703857421875,-0.047028496861457825,0.029446305707097054,-0.07518210262060165
1700515537605714000,5.6717138671875,0.036012861877679825,0.02088690549135208,0.0018572885310277343
1700515537615724800,5.681724853515625,0.025014806538820267,-0.08161656558513641,0.09810899198055267
1700515537625735000,5.69173486328125,-0.0182301364839077,0.07033754885196686,-0.045456964522600174
1700515537635744800,5.701744873046875,-0.0276862233877182,-0.0326831117272377,-0.16357481479644775
1700515537645755600,5.711755615234375,0.009860619902610779,0.04677016660571098,-0.01025503408163786
1700515537655765800,5.721765869140625,0.04355626553297043,-0.03569727763533592,0.13927853107452393
1700515537665775900,5.73177587890625,-0.027524301782250404,-0.016927052289247513,0.02371465042233467
1700515537675786800,5.741786865234375,-0.0325467586517334,0.07055193185806274,-0.09728607535362244
1700515537685796900,5.751796875,0.05403260886669159,-0.0012636699248105288,0.030980287119746208
1700515537695808000,5.76180810546875,0.009219597093760967,-0.0494421161711216,0.10344862937927246
1700515537705817900,5.77181787109375,-0.011607653461396694,0.04515442997217178,-0.08385521918535233
1700515537715828000,5.781827880859375,-0.03388020396232605,-0.026883013546466827,-0.14415638148784637
1700515537725838800,5.7918388671875,0.032647423446178436,0.05782974511384964,0.010089118964970112
1700515537735849000,5.801848876953125,0.028253475204110146,-0.06834496557712555,0.13936029374599457
1700515537745858800,5.81185888671875,-0.03789092227816582,0.006888798903673887,-0.026730148121714592
1700515537755870000,5.821869873046875,-0.021794244647026062,0.07721782475709915,-0.08325280994176865
1700515537765879800,5.8318798828125,0.06392651796340942,-0.04928978532552719,0.06473319232463837
1700515537775891000,5.841890869140625,-0.016463128849864006,-0.003998203668743372,0.08200298994779587
1700515537785900800,5.85190087890625,-0.01119193434715271,0.02046239748597145,-0.12183722108602524
1700515537795911000,5.861910888671875,-0.0273866169154644,-0.019990751519799232,-0.10619248449802399
1700515537805921800,5.871921875,0.03682832047343254,0.01842108555138111,0.059370383620262146
1700515537815932000,5.881931884765625,0.0036645096261054277,-0.02461506426334381,0.1542995572090149
1700515537825941800,5.891941650390625,-0.05330529808998108,-0.042147185653448105,-0.03660674765706062
1700515537835952600,5.90195263671875,-0.00007004113285802305,0.06327591091394424,-0.06590285152196884
1700515537845962800,5.911962646484375,0.06769569218158722,-0.05962204933166504,0.08359582722187042
1700515537855973600,5.9219736328125,-0.03527117148041725,0.016021044924855232,0.04548386111855507
1700515537865983700,5.931983642578125,-0.009014800190925598,-0.007003581151366234,-0.17358696460723877
1700515537875993900,5.941993896484375,-0.009379919618368149,0.026499517261981964,-0.08089005202054977
1700515537886005000,5.9520048828125,0.05673838034272194,-0.013854829594492912,0.07974462956190109
1700515537896014800,5.962014892578125,-0.016653012484312057,-0.00936021190136671,0.07499062269926071
1700515537906026000,5.97202587890625,-0.04285585507750511,0.0025505092926323414,-0.1149875745177269
1700515537916035800,5.982035888671875,0.02346537820994854,0.047200269997119904,-0.039691485464572906
1700515537926046000,5.9920458984375,0.03876151144504547,-0.07376690208911896,0.09598911553621292
1700515537936056800,6.002056884765625,-0.0226746853441,0.06829649955034256,-0.020852284505963326
1700515537946067000,6.01206689453125,-0.030176011845469475,-0.030281206592917442,-0.17855750024318695
1700515537956077800,6.022077880859375,0.0020999026019126177,0.06320959329605103,-0.030840735882520676
1700515537966088000,6.032087890625,0.045399174094200134,-0.052858155220746994,0.1359999179840088
1700515537976097800,6.042097900390625,-0.03436489775776863,-0.004005128052085638,0.07991719990968704
1700515537986108700,6.052108642578125,-0.04262416064739227,0.06079384312033653,-0.07778933644294739
1700515537996118800,6.062118896484375,0.04971322789788246,-0.004474376793950796,0.035523105412721634
1700515538006129000,6.07212890625,0.015429556369781494,-0.052975066006183624,0.11418915539979935
1700515538016139800,6.082139892578125,-0.018632007762789726,0.03194355219602585,-0.06177974492311478
1700515538026149600,6.092149658203125,-0.03431456536054611,-0.023199595510959625,-0.14013341069221497
1700515538036161000,6.1021611328125,0.03554201498627663,0.06354355812072754,0.016406936571002007
1700515538046171000,6.1121708984375,0.036129508167505264,-0.06306152045726776,0.1617707908153534
1700515538056181000,6.122180908203125,-0.03850052133202553,-0.003290601773187518,-0.014536865055561066
1700515538066192000,6.13219189453125,-0.014729144982993603,0.08023198693990707,-0.08944732695817947
1700515538076202000,6.142201904296875,0.06512254476547241,-0.020549217239022255,0.056655291467905045
1700515538086212900,6.152212890625,-0.007793740835040808,-0.029993850737810135,0.09445859491825104
1700515538096223000,6.162222900390625,-0.008218781091272831,0.026400448754429817,-0.13380201160907745
1700515538106232800,6.17223291015625,-0.02359134517610073,-0.03562643751502037,-0.19568294286727905
1700515538116243700,6.18224365234375,0.07527318596839905,0.02726437710225582,-0.04139324650168419
1700515538126253800,6.19225390625,-0.005874933209270239,-0.0038005972746759653,0.22558997571468353
1700515538136264700,6.2022646484375,-0.061041515320539474,-0.03199468553066254,0.05986626446247101
1700515538146274800,6.21227490234375,-0.0027142937760800123,0.036201149225234985,-0.04814116284251213
1700515538156285000,6.222284912109375,0.03900891914963722,-0.05320543050765991,-0.003329750383272767
1700515538166295800,6.2322958984375,-0.022214757278561592,0.03483734279870987,-0.07857363671064377
1700515538176305700,6.2423056640625,-0.02010446973145008,-0.021407021209597588,-0.1292402744293213
1700515538186316800,6.25231689453125,-0.010595385916531086,0.022519690915942192,0.004805407952517271
1700515538196326700,6.26232666015625,0.047511059790849686,-0.0035902075469493866,0.1492438167333603
1700515538206336800,6.272336669921875,-0.015734754502773285,0.004107926040887833,0.03645041957497597
1700515538216348000,6.282347900390625,-0.04141614958643913,-0.03647332265973091,-0.1624152809381485
1700515538226358000,6.29235791015625,0.027898741886019707,0.040049415081739426,-0.03772128000855446
1700515538236369000,6.302368896484375,0.03882169723510742,-0.060922738164663315,0.13896134495735168
1700515538246378800,6.312378662109375,-0.02088743820786476,0.059599414467811584,0.04439782351255417
1700515538256388600,6.322388671875,-0.023509319871664047,-0.027889154851436615,-0.16915786266326904
1700515538266399700,6.332399658203125,0.016169382259249687,0.045044973492622375,-0.06891168653964996
1700515538276409600,6.34240966796875,0.05528003349900246,-0.03864193335175514,0.09920568019151688
1700515538286420500,6.35242041015625,-0.03190014138817787,-0.013072658330202103,0.06583733856678009
1700515538296430600,6.3624306640625,-0.032944101840257645,0.054305315017700195,-0.06799422949552536
1700515538306440700,6.372440673828125,0.046853259205818176,0.01799151673913002,0.02732190117239952
1700515538316451600,6.38245166015625,0.014592790976166725,-0.06959772109985352,0.09346523880958557
1700515538326461400,6.39246142578125,-0.019412580877542496,0.038419295102357864,-0.08085782825946808
1700515538336472600,6.40247265625,-0.03455451503396034,-0.020258134230971336,-0.1573542058467865
1700515538346482400,6.412482421875,0.02165362983942032,0.035776905715465546,0.011663846671581268
1700515538356492500,6.422492431640625,0.02515355683863163,-0.04001878947019577,0.17740167677402496
1700515538366503400,6.43250341796875,-0.02912246435880661,-0.010385262779891491,0.03136218339204788
1700515538376513500,6.442513427734375,-0.02809395268559456,0.07409872859716415,-0.09617846459150314
1700515538386524700,6.452524658203125,0.05197105556726456,-0.01122415903955698,0.052553754299879074
1700515538396534800,6.46253466796875,-0.007364972028881311,-0.04692915827035904,0.08906569331884384
1700515538406544600,6.472544677734375,-0.0020096213556826115,0.05768513306975365,-0.1097286269068718
1700515538416555500,6.482555419921875,-0.0284071397036314,-0.028714202344417572,-0.12939606606960297
1700515538426565600,6.492565673828125,0.029351497069001198,0.047748614102602005,0.048164598643779755
1700515538436576500,6.502576416015625,0.01281699538230896,-0.034501250833272934,0.13857944309711456
1700515538446586600,6.512586669921875,-0.026336265727877617,0.00971627701073885,-0.05410824343562126
1700515538456597500,6.522597412109375,-0.011214837431907654,0.06659207493066788,-0.07343240827322006
1700515538466607600,6.532607666015625,0.05491411313414574,-0.024206003174185753,0.10084432363510132
1700515538476617500,6.542617431640625,-0.022900521755218506,-0.013630058616399765,0.0847279354929924
1700515538486628600,6.552628662109375,-0.0002311623829882592,0.031061513349413872,-0.15179911255836487
1700515538496638500,6.562638427734375,-0.01834678277373314,-0.026576749980449677,-0.11762996017932892
1700515538506649600,6.572649658203125,0.03075098805129528,0.02256709337234497,0.0662035197019577
1700515538516659500,6.582659423828125,-0.0029878003988415003,-0.013172526843845844,0.13326510787010193
1700515538526669600,6.592669677734375,-0.032162997871637344,-0.050999533385038376,-0.06150277704000473
1700515538536680700,6.6026806640625,-0.0028429245576262474,0.07151705771684647,-0.04960190877318382
1700515538546690800,6.61269091796875,0.04266730323433876,-0.08723237365484238,0.1412724405527115
1700515538556701700,6.62270166015625,-0.026226278394460678,-0.007485613226890564,-0.013489976525306702
1700515538566711600,6.632711669921875,0.029062544927001,0.06312384456396103,-0.26960137486457825
1700515538576721700,6.6427216796875,0.6805223226547241,-1.0570323467254639,-2.5879099369049072
1700515538586732500,6.652732666015625,-0.45543569326400757,1.3573514223098755,0.4716854989528656
1700515538596742700,6.66274267578125,0.20236241817474365,-0.09957079589366913,1.3869476318359375
1700515538606753500,6.67275341796875,0.0821654424071312,-0.577048659324646,1.1887516975402832
1700515538616763600,6.682763671875,-0.38164857029914856,0.3083660900592804,0.4100775420665741
1700515538626774500,6.6927744140625,0.08648136258125305,-0.26666736602783203,-0.6208097338676453
1700515538636784600,6.70278466796875,0.06884830445051193,0.3857399821281433,-0.08857434242963791
1700515538646794500,6.71279443359375,0.020715132355690002,-0.2476329654455185,0.30019232630729675
1700515538656805600,6.7228056640625,0.03783712536096573,0.10633416473865509,-0.16760310530662537
1700515538666815500,6.7328154296875,-0.09697368741035461,-0.10842181742191315,-0.41476497054100037
1700515538676826400,6.742826416015625,0.05729604512453079,0.0951552763581276,0.18361537158489227
1700515538686836500,6.75283642578125,0.007468036375939846,-0.0041404166258871555,0.24841433763504028
1700515538696846600,6.7628466796875,0.005387042183429003,0.003430417738854885,-0.0882912427186966
1700515538706857700,6.772857666015625,-0.05940180644392967,-0.09020072966814041,-0.2414805293083191
1700515538716867600,6.78286767578125,0.03310282528400421,0.1477588266134262,-0.04659200459718704
1700515538726878700,6.792878662109375,0.026247583329677582,0.07204916328191757,0.15896888077259064
1700515538736888600,6.802888671875,-0.018256235867738724,-0.21709902584552765,0.012343484908342361
1700515538746899700,6.812899658203125,-0.09754333645105362,0.01605965942144394,-0.25966939330101013
1700515538756909600,6.82290966796875,0.06698568910360336,0.1591624915599823,-0.015617042779922485
1700515538766919700,6.832919677734375,0.025726668536663055,-0.03445810824632645,0.08963587880134583
1700515538776930600,6.8429306640625,-0.002275671111419797,-0.06746692210435867,-0.001294029993005097
1700515538786940700,6.852940673828125,-0.03298937529325485,0.032032500952482224,-0.08443685621023178
1700515538796951600,6.86295166015625,0.029887059703469276,0.04592514783143997,0.04102892428636551
1700515538806961700,6.872961669921875,0.03202744200825691,0.04378636181354523,0.14368925988674164
1700515538816972500,6.88297265625,-0.06195764243602753,-0.1983298659324646,-0.06384395807981491
1700515538826982400,6.892982421875,0.01429212000221014,0.21924713253974915,-0.045994121581315994
1700515538836992500,6.902992431640625,0.024058997631072998,-0.04794302582740784,0.15847699344158173
1700515538847003600,6.913003662109375,0.021311946213245392,0.07626175135374069,0.06324874609708786
1700515538857013800,6.923013671875,-0.02497405931353569,-0.12711641192436218,-0.05711654946208
1700515538867024600,6.933024658203125,0.0012783173006027937,0.07061318308115005,-0.07581619918346405
1700515538877034800,6.94303466796875,0.0188975241035223,0.08182749152183533,0.04162920266389847
1700515538887045600,6.953045654296875,0.043480630964040756,-0.0673753097653389,0.07113782316446304
1700515538897055700,6.9630556640625,-0.10540764778852463,-0.12579680979251862,-0.1701965034008026
1700515538907065600,6.973065673828125,0.05533808842301369,0.1405927985906601,-0.11267488449811935
1700515538917076500,6.983076416015625,0.006491188891232014,-0.06131156161427498,0.10349709540605545
1700515538927086600,6.993086669921875,0.012831908650696278,0.038114894181489944,0.024946628138422966
1700515538937097500,7.003097412109375,-0.05354152247309685,-0.13460122048854828,-0.06367485225200653
1700515538947107600,7.013107666015625,0.02839835174381733,0.026072613894939423,-0.11003116518259048
1700515538957118500,7.023118408203125,0.014937404543161392,0.1733241081237793,-0.06009982153773308
1700515538967128600,7.033128662109375,0.00452790642157197,-0.18694405257701874,0.05687393620610237
1700515538977138400,7.043138427734375,-0.04176449030637741,0.007291468791663647,0.015544870868325233
1700515538987149600,7.053149658203125,0.029321670532226562,0.005270662251859903,-0.07517038285732269
1700515538997159400,7.063159423828125,0.006779609248042107,0.1748916506767273,0.12563063204288483
1700515539007170600,7.073170654296875,0.02623213641345501,-0.09961394220590591,0.05396443232893944
1700515539017180700,7.0831806640625,-0.04363908991217613,-0.05988410487771034,-0.06187188997864723
1700515539027191600,7.093191650390625,0.026375681161880493,0.09115307778120041,-0.030117955058813095
1700515539037201700,7.10320166015625,-0.0014466290595009923,0.1096029281616211,0.0959978997707367
1700515539047212500,7.113212646484375,0.009700298309326172,-0.18759119510650635,0.0016588830621913075
1700515539057222700,7.12322265625,-0.04975983127951622,-0.0029965888243168592,-0.16727741062641144
1700515539067232500,7.133232421875,0.04220044985413551,0.12095385044813156,0.025540513917803764
1700515539077243600,7.14324365234375,0.000553404854144901,-0.004897020757198334,0.08393191546201706
1700515539087253500,7.15325341796875,0.0011795139871537685,-0.047814659774303436,-0.006085589528083801
1700515539097264600,7.1632646484375,-0.03671140968799591,-0.08729469031095505,-0.1313423067331314
1700515539107274500,7.1732744140625,0.029801571741700172,0.13905268907546997,-0.07083475589752197
1700515539117285400,7.183285400390625,0.023858727887272835,0.10794297605752945,0.1255137175321579
1700515539127295500,7.19329541015625,-0.041242778301239014,-0.21560685336589813,0.03953302651643753
1700515539137306600,7.203306640625,-0.00011611382069531828,0.07371550053358078,-0.05928675830364227
1700515539147316700,7.213316650390625,0.046129945665597916,0.14986193180084229,0.11737163364887238
1700515539157326600,7.22332666015625,0.005787315312772989,-0.02094309777021408,0.058229751884937286
1700515539167337700,7.233337646484375,0.0038895467296242714,-0.0241993460804224,-0.08483313024044037
1700515539177347600,7.24334765625,-0.010701646097004414,-0.03271826356649399,-0.10361214727163315
1700515539187358700,7.253358642578125,0.012350409291684628,0.0680975615978241,-0.06556116789579391
1700515539197368600,7.26336865234375,0.022370286285877228,0.010401507839560509,0.09076212346553802
1700515539207379500,7.27337939453125,-0.0707378163933754,-0.13974617421627045,-0.027097929269075394
1700515539217389600,7.2833896484375,0.03220480680465698,0.04071600362658501,-0.06882007420063019
1700515539227400400,7.293400390625,-0.01787194050848484,-0.05770830437541008,-0.2098166048526764
1700515539237410600,7.30341064453125,-0.01582876406610012,0.06090196594595909,0.00036378781078383327
1700515539247420700,7.313420654296875,-0.010403105989098549,-0.10362918674945831,0.09048782289028168
1700515539257431800,7.323431884765625,0.018453042954206467,0.016707340255379677,0.08775168657302856
1700515539267441700,7.333441650390625,-0.033896978944540024,0.030298251658678055,-0.1695283055305481
1700515539277452800,7.343452880859375,0.04216929152607918,0.15821920335292816,-0.08224160969257355
1700515539287462700,7.353462646484375,-0.011923238635063171,-0.18196606636047363,0.14561179280281067
1700515539297473800,7.363473876953125,0.0063002402894198895,0.0759352445602417,0.12481969594955444
1700515539307483600,7.373483642578125,-0.02774188295006752,-0.0906851589679718,-0.24843484163284302
1700515539317494500,7.38349462890625,0.022531939670443535,0.13373249769210815,0.15400713682174683
1700515539327504600,7.393504638671875,-0.03753618896007538,-0.2308334857225418,0.13799434900283813
1700515539337515500,7.403515625,0.025170866400003433,0.09130434691905975,-0.0752129927277565
1700515539347525600,7.413525634765625,0.015047126449644566,0.25051477551460266,-0.14716069400310516
1700515539357535500,7.423535400390625,-0.017315074801445007,-0.32407981157302856,0.13173459470272064
1700515539367546600,7.433546630859375,-0.025438513606786728,0.05950859934091568,0.05962817743420601
1700515539377556500,7.443556396484375,0.027169302105903625,-0.03973542898893356,-0.15604233741760254
1700515539387567600,7.453567626953125,0.010699249804019928,0.24835307896137238,0.06367059051990509
1700515539397577500,7.463577392578125,0.011534417048096657,-0.1799071878194809,0.07339005917310715
1700515539407588600,7.473588623046875,-0.017197363078594208,0.010517622344195843,0.026344256475567818
1700515539417598700,7.4835986328125,0.017345700412988663,0.02774454653263092,-0.13936135172843933
1700515539427609600,7.493609619140625,0.02593545988202095,0.2946247160434723,0.021078120917081833
1700515539437619700,7.50361962890625,-0.03258910030126572,-0.30767685174942017,0.11799854040145874
1700515539447630600,7.513630615234375,0.01281672902405262,0.13369041681289673,0.06289800256490707
1700515539457640700,7.523640625,0.007814513519406319,-0.05928223207592964,-0.2144891321659088
1700515539467651600,7.533651611328125,0.037459757179021835,0.3179393410682678,0.12287825345993042
1700515539477661700,7.54366162109375,-0.016397349536418915,-0.22555242478847504,0.12099087238311768
1700515539487671600,7.553671630859375,0.007879228331148624,0.061410896480083466,-0.001930791768245399
1700515539497682700,7.5636826171875,0.011051319539546967,0.1256095916032791,-0.1640682965517044
1700515539507692500,7.573692626953125,0.023627031594514847,-0.05209116265177727,0.15003131330013275
1700515539517703400,7.583703369140625,-0.06404529511928558,-0.16983936727046967,-0.002313754288479686
1700515539527713500,7.593713623046875,0.013256150297820568,0.08602330088615417,-0.1483418047428131
1700515539537724700,7.603724609375,0.02959783934056759,0.1057024598121643,0.023499999195337296
1700515539547734800,7.61373486328125,0.026630278676748276,-0.041857969015836716,0.09678486734628677
1700515539557745700,7.62374560546875,-0.030527548864483833,-0.11397423595190048,-0.031202394515275955
1700515539567755800,7.633755859375,0.00207673292607069,0.10358338057994843,-0.09422636777162552
1700515539577766700,7.6437666015625,0.0098038949072361,0.05414392799139023,0.06436274200677872
1700515539587776800,7.65377685546875,0.06073871627449989,-0.0778798833489418,0.15488359332084656
1700515539597787600,7.66378759765625,-0.11170203238725662,-0.06384342908859253,-0.055813197046518326
1700515539607797500,7.673797607421875,0.05138462781906128,0.025257419794797897,-0.22355400025844574
1700515539617808600,7.68380859375,-0.01846715807914734,0.06852126866579056,0.21710196137428284
1700515539627818500,7.693818603515625,0.03982917219400406,-0.07610195875167847,0.21399058401584625
1700515539637829600,7.70382958984375,-0.06703629344701767,-0.03850078582763672,0.031924109905958176
1700515539647839500,7.713839599609375,0.028374383226037025,-0.0031470574904233217,-0.20145802199840546
1700515539657849600,7.723849609375,0.0010727213229984045,0.1758008599281311,0.16761110723018646
1700515539667860700,7.73386083984375,0.03779877722263336,-0.17647996544837952,0.19820868968963623
1700515539677870800,7.743870849609375,-0.07382122427225113,0.01817234605550766,-0.13719168305397034
1700515539687881700,7.7538818359375,0.06840409338474274,0.19343923032283783,-0.11866193264722824
1700515539697891800,7.763891845703125,-0.009679525159299374,-0.11234971135854721,0.2649610936641693
1700515539707902700,7.77390283203125,0.04927780106663704,0.04045474901795387,0.11067298799753189
1700515539717912600,7.78391259765625,-0.08980125933885574,-0.139236718416214,-0.23311421275138855
1700515539727923700,7.793923828125,0.04243187978863716,0.18018841743469238,-0.07200761139392853
1700515539737933600,7.80393359375,0.03648637235164642,-0.004691690672188997,0.3131701648235321
1700515539747944700,7.81394482421875,-0.0010599381057545543,-0.09767436236143112,0.029766950756311417
1700515539757954600,7.82395458984375,-0.059853747487068176,-0.0005816344055347145,-0.398508757352829
1700515539767965400,7.83396533203125,0.045999184250831604,0.09771537780761719,0.08375242352485657
1700515539777975600,7.8439755859375,0.02942686527967453,-0.04622501879930496,0.2769056260585785
1700515539787986400,7.853986328125,0.015231949277222157,-0.03304636850953102,-0.07240495830774307
1700515539797996500,7.86399658203125,-0.06389030069112778,-0.02057398483157158,-0.27811524271965027
1700515539808007700,7.874007568359375,0.031388282775878906,0.11010333150625229,0.03728611767292023
1700515539818017800,7.884017822265625,0.06012778356671333,-0.01128035131841898,0.324237197637558
1700515539828028700,7.894028564453125,-0.05626007542014122,-0.12222870439291,-0.08193881064653397
1700515539838038800,7.904038818359375,-0.025235315784811974,0.11383149027824402,-0.3385722041130066
1700515539848049700,7.914049560546875,0.022295186296105385,0.026442792266607285,0.2018209993839264
1700515539858059500,7.9240595703125,0.05368693172931671,0.01242364663630724,0.26857447624206543
1700515539868070700,7.934070556640625,-0.03163355961441994,-0.09123244136571884,-0.13444489240646362
1700515539878080500,7.94408056640625,-0.03852875158190727,0.04500768706202507,-0.26211869716644287
1700515539888091600,7.954091552734375,0.03632365167140961,0.11457984149456024,0.1614578664302826
1700515539898101500,7.9641015625,0.06751991808414459,-0.07013621181249619,0.3018264174461365
1700515539908112600,7.974112548828125,-0.09664744883775711,-0.10210319608449936,-0.21403932571411133
1700515539918122500,7.98412255859375,0.016771789640188217,0.16601639986038208,-0.24758662283420563
1700515539928133600,7.994133544921875,0.011469169519841671,-0.035841621458530426,0.29972198605537415
1700515539938143700,8.004143798828125,0.05638790875673294,0.04471713677048683,0.21341800689697266
1700515539948154600,8.014154541015625,-0.05697327107191086,-0.12561571598052979,-0.2226458638906479
1700515539958164700,8.024164794921875,0.0020471718162298203,0.11492206156253815,-0.22226689755916595
1700515539968175600,8.034175537109375,0.030534207820892334,0.08897648006677628,0.2665105164051056
1700515539978185700,8.044185791015625,0.07424493879079819,-0.08706246316432953,0.23392248153686523
1700515539988195600,8.054195556640625,-0.10468752682209015,-0.11042424291372299,-0.3524363338947296
1700515539998206700,8.064206787109375,0.0507662408053875,0.18068775534629822,-0.14196325838565826
1700515540008216600,8.074216552734375,-0.005047488957643509,-0.09050406515598297,0.30225467681884766
1700515540018227500,8.0842275390625,0.05004878714680672,-0.0034083134960383177,0.0878630131483078
1700515540028237600,8.094237548828126,-0.08383684605360031,-0.1326533854007721,-0.3031601309776306
1700515540038248400,8.10424853515625,0.013668940402567387,0.10013112425804138,-0.18271654844284058
1700515540048258600,8.114258544921874,0.00826991442590952,0.0668000727891922,0.26186275482177734
1700515540058269700,8.124269775390625,0.006175604183226824,-0.1255081295967102,0.1300264447927475
1700515540068279800,8.13427978515625,-0.10119399428367615,-0.10098999738693237,-0.35410189628601074
1700515540078290700,8.144290771484375,0.06701391935348511,0.17514385282993317,-0.10868386924266815
1700515540088300800,8.15430078125,0.003727360162883997,-0.09923577308654785,0.2780854105949402
1700515540098311700,8.164311767578125,0.028853219002485275,0.008745554834604263,0.09072883427143097
1700515540108321800,8.17432177734375,-0.08509571850299835,-0.14704377949237823,-0.27073028683662415
1700515540118332700,8.184332763671875,0.037695180624723434,0.1585177332162857,-0.13091060519218445
1700515540128342500,8.194342529296875,0.02810034342110157,-0.007565774489194155,0.3114367127418518
1700515540138353700,8.204353759765626,-0.036258138716220856,-0.10696320235729218,0.09463409334421158
1700515540148363500,8.214363525390626,-0.0315997377038002,-0.01326946634799242,-0.3671071529388428
1700515540158374700,8.224374755859374,0.038179077208042145,0.1461779773235321,0.06325646489858627
1700515540168384500,8.234384521484374,0.037886396050453186,-0.09222366660833359,0.24362757802009583
1700515540178395600,8.244395751953125,-0.006767092272639275,0.007889880798757076,-0.04117833077907562
1700515540188405500,8.254405517578125,-0.032999228686094284,0.015329687856137753,-0.20744267106056213
1700515540198416600,8.264416748046875,0.020804081112146378,0.11045859754085541,0.04255411773920059
1700515540208426800,8.2744267578125,0.045208223164081573,-0.055270444601774216,0.2515539526939392
1700515540218437600,8.284437744140625,-0.08295214176177979,-0.10037214308977127,-0.1058041900396347
1700515540228447700,8.29444775390625,-0.00236302288249135,0.10847161710262299,-0.3440186381340027
1700515540238458600,8.304458740234375,0.006834470201283693,0.03747973218560219,0.15433178842067719
1700515540248468700,8.31446875,0.034264497458934784,-0.04074769467115402,0.21364304423332214
1700515540258478600,8.324478515625,-0.04691717401146889,-0.04583752900362015,-0.06662749499082565
1700515540268489500,8.334489501953126,-0.0025041704066097736,0.037584926933050156,-0.33978021144866943
1700515540278499600,8.34449951171875,0.04213333874940872,0.1762181669473648,0.06263408809900284
1700515540288510500,8.354510498046874,0.04777418076992035,-0.1673613041639328,0.31293660402297974
1700515540298520600,8.3645205078125,-0.12120632082223892,-0.023865384981036186,-0.07283452898263931
1700515540308531500,8.374531494140625,0.057203102856874466,0.20494090020656586,-0.27686062455177307
1700515540318541600,8.38454150390625,-0.010814830660820007,-0.07317753881216049,0.24211010336875916
1700515540328552400,8.394552490234375,0.06411240994930267,0.006593986880034208,0.16352634131908417
1700515540338562600,8.4045625,-0.07334105670452118,-0.08154838532209396,-0.18543031811714172
1700515540348573700,8.41457373046875,0.002257827902212739,0.11134330183267593,-0.12662504613399506
1700515540358583800,8.424583740234375,0.013234579004347324,0.0740225613117218,0.24249732494354248
1700515540368594700,8.4345947265625,0.052028581500053406,-0.11214624345302582,0.15294507145881653
1700515540378604500,8.4446044921875,-0.11089669167995453,-0.05061390995979309,-0.31732654571533203
1700515540388615700,8.45461572265625,0.018876751884818077,0.14204822480678558,-0.030701186507940292
1700515540398625500,8.46462548828125,0.0029766152147203684,-0.032397087663412094,0.32153114676475525
1700515540408636700,8.47463671875,0.048585910350084305,0.0033902039285749197,0.10739676654338837
1700515540418646500,8.484646484375,-0.08565285056829453,-0.07234556972980499,-0.2817206382751465
1700515540428657400,8.494657470703125,0.021093035116791725,0.15092985332012177,-0.04087712615728378
1700515540438667500,8.50466748046875,0.030058300122618675,0.030369888991117477,0.41524460911750793
1700515540448678400,8.514678466796875,0.026730148121714592,-0.08776313811540604,0.0667974054813385
1700515540458688500,8.5246884765625,-0.07612619549036026,0.07365770637989044,-0.3399437367916107
1700515540468699600,8.53469970703125,0.022539397701621056,0.0825931504368782,0.12986771762371063
1700515540478709800,8.544709716796875,0.050090063363313675,0.08323390036821365,0.3691093325614929
1700515540488720600,8.554720703125,0.03244209662079811,-0.029076125472784042,0.01571318320930004
1700515540498730800,8.564730712890626,-0.06271345168352127,0.020487697795033455,-0.3186863660812378
1700515540508741600,8.57474169921875,0.018994996324181557,0.14875619113445282,0.04066220670938492
1700515540518751700,8.584751708984374,0.07189789414405823,0.027830298990011215,0.42637553811073303
1700515540528762600,8.5947626953125,-0.00520754512399435,-0.013099024072289467,-0.059181563556194305
1700515540538772500,8.6047724609375,-0.061419419944286346,0.06226177513599396,-0.25590527057647705
1700515540548783600,8.61478369140625,0.014649515971541405,0.05874400585889816,0.2144518494606018
1700515540558793500,8.62479345703125,0.0650825947523117,0.10933394730091095,0.38184723258018494
1700515540568804600,8.6348046875,-0.03339603915810585,-0.03187457472085953,-0.021567342802882195
1700515540578815700,8.644815673828125,-0.05860712006688118,0.010142382234334946,-0.24531547725200653
1700515540588825600,8.65482568359375,-0.03913035988807678,0.08784037083387375,0.13080035150051117
1700515540598836700,8.664836669921876,0.07432403415441513,0.005346562247723341,0.36362773180007935
1700515540608846600,8.6748466796875,-0.08770348876714706,-0.043783433735370636,-0.2041182518005371
1700515540618857700,8.684857666015626,-0.030312098562717438,0.061107560992240906,-0.2512434124946594
1700515540628867600,8.69486767578125,-0.017903367057442665,0.020063456147909164,0.18210482597351074
1700515540638878500,8.70487841796875,0.08420781791210175,0.0835404321551323,0.33267250657081604
1700515540648888600,8.714888671875,-0.048593636602163315,0.012138688005506992,-0.1608903557062149
1700515540658899500,8.7248994140625,-0.04194984585046768,0.027601268142461777,-0.23905253410339355
1700515540668909600,8.73490966796875,0.00800519622862339,0.14638277888298035,0.2147863358259201
1700515540678920400,8.74492041015625,0.07658185809850693,-0.0001555285998620093,0.3321835398674011
1700515540688930600,8.7549306640625,-0.10169733315706253,0.009512278251349926,-0.20832471549510956
1700515540698941700,8.764941650390625,-0.00884781964123249,0.08958687633275986,-0.07567984610795975
1700515540708951600,8.77495166015625,-0.0005635248962789774,0.12305987626314163,0.278285950422287
1700515540718962700,8.784962646484376,0.05591413006186485,0.0909392237663269,0.26509609818458557
1700515540728973600,8.7949736328125,-0.0986568033695221,-0.0934002548456192,-0.1683085858821869
1700515540738983700,8.804983642578126,-0.01986212097108364,0.05926012620329857,-0.1739901751279831
1700515540748994600,8.81499462890625,-0.01956198364496231,0.17797692120075226,0.2301114946603775
1700515540759004700,8.825004638671874,0.04832758381962776,0.027873443439602852,0.30389145016670227
1700515540769015600,8.835015625,-0.12358053028583527,0.01495205145329237,-0.18620023131370544
1700515540779025700,8.845025634765625,-0.036142025142908096,0.08452846854925156,-0.08079684525728226
1700515540789036500,8.85503662109375,-0.008146876469254494,0.14712660014629364,0.227386012673378
1700515540799046400,8.86504638671875,0.060993045568466187,0.12197863310575485,0.34546446800231934
1700515540809057500,8.8750576171875,-0.09282874315977097,0.09121806174516678,-0.08735541254281998
1700515540819067400,8.8850673828125,-0.001728657865896821,0.042982619255781174,-0.029143504798412323
1700515540829078800,8.895078857421876,0.1378076672554016,0.19653649628162384,-2.179198741912842
1700515540839088600,8.905088623046876,-0.30374735593795776,0.17355315387248993,1.10947585105896
1700515540849099500,8.915099609375,0.044268928468227386,0.3905901312828064,1.012877106666565
1700515540859110700,8.925110595703124,0.003314037574455142,-0.06861954182386398,0.609999418258667
1700515540869120500,8.93512060546875,-0.01576325111091137,0.2667155861854553,-0.2005554735660553
1700515540879131600,8.945131591796875,-0.016325976699590683,-0.10848919302225113,-0.08238675445318222
1700515540889141500,8.9551416015625,-0.04583965986967087,0.12181698530912399,-0.015066567808389664
1700515540899152600,8.965152587890625,-0.012998090125620365,0.15226143598556519,0.24505582451820374
1700515540909162500,8.97516259765625,0.05571465939283371,0.13266323506832123,0.3604156970977783
1700515540919173400,8.98517333984375,-0.01828979142010212,0.08435828983783722,-0.0009917612187564373
1700515540929183500,8.99518359375,-0.09189317375421524,0.13338042795658112,-0.009473662823438644
1700515540939194600,9.005194580078125,-0.03154061734676361,0.07364226132631302,0.22541101276874542
1700515540949204700,9.015204833984376,0.07908070087432861,0.042328815907239914,0.12507030367851257
1700515540959215600,9.025215576171876,-0.02262781374156475,0.023083215579390526,0.012429771944880486
1700515540969225700,9.035225830078126,-0.01170459296554327,0.06814443320035934,0.10074791312217712
1700515540979236600,9.045236572265624,0.035769183188676834,0.16637779772281647,0.09244018793106079
1700515540989247500,9.05524755859375,0.12518908083438873,0.01251312904059887,0.05740470439195633
1700515540999257600,9.065257568359375,-0.03166178986430168,0.009955961257219315,-0.1843687742948532
1700515541009268500,9.0752685546875,0.035295139998197556,0.033609092235565186,0.048347026109695435
1700515541019278600,9.085278564453125,0.056596700102090836,0.1164640262722969,0.10795256495475769
1700515541029289500,9.09528955078125,0.07534828037023544,0.006747917737811804,0.1562250256538391
1700515541039299600,9.105299560546875,0.02346351370215416,0.07965594530105591,-0.03995859995484352
1700515541049310700,9.115310791015625,0.01056422758847475,0.030284935608506203,0.04277116432785988
1700515541059320600,9.125320556640625,0.054125022143125534,0.15468145906925201,0.12450970709323883
1700515541069331700,9.135331787109376,0.08073079586029053,0.0034208304714411497,0.02961461804807186
1700515541079342600,9.145342529296874,-0.04133838415145874,0.03696600720286369,-0.0931784138083458
1700515541089352700,9.155352783203124,-0.0027614317368716,0.04535842686891556,0.06888186186552048
1700515541099363600,9.165363525390624,0.029799707233905792,0.057498980313539505,-0.0284713227301836
1700515541109373700,9.175373779296875,0.005949235521256924,-0.05318252742290497,-0.015152587555348873
1700515541119384600,9.185384521484375,-0.028199680149555206,-0.016956612467765808,-0.09674305468797684
1700515541129394400,9.19539453125,-0.022943133488297462,0.029924875125288963,0.05276414379477501
1700515541139405600,9.205405517578125,0.05568217113614082,0.048044223338365555,0.11384161561727524
1700515541149415400,9.21541552734375,0.0009978864109143615,-0.009832656942307949,0.0003270361921750009
1700515541159426800,9.2254267578125,-0.0005523395957425237,-0.00039840888348408043,-0.01835583709180355
1700515541169437700,9.235437744140626,0.003906590864062309,0.017497766762971878,0.030909713357686996
1700515541179447600,9.245447509765626,0.053344979882240295,0.007135141175240278,0.044553086161613464
1700515541189458700,9.255458740234374,-0.0057188719511032104,-0.049618419259786606,0.0203915573656559
1700515541199468500,9.265468505859374,-0.011444668285548687,-0.04036100581288338,-0.08212922513484955
1700515541209479700,9.275479736328125,-0.04195783659815788,-0.0404432974755764,-0.03175127133727074
1700515541219489500,9.285489501953125,0.056045956909656525,-0.014608503319323063,0.054788146167993546
1700515541229500400,9.29550048828125,-0.05919088423252106,-0.105929896235466,-0.0584433376789093
1700515541239510500,9.305510498046875,-0.006052832584828138,-0.014842862263321877,-0.02893630973994732
1700515541249522000,9.31552197265625,-0.06573187559843063,-0.05429306626319885,-0.02328028902411461
1700515541259533000,9.325532958984375,0.021284515038132668,0.020327642560005188,0.1035785898566246
1700515541269543200,9.335543212890625,-0.030944600701332092,-0.08729788661003113,-0.038779351860284805
1700515541279554000,9.345553955078126,-0.022829148918390274,-0.02587766945362091,-0.05546006187796593
1700515541289564200,9.355564208984376,-0.026988741010427475,0.0317281037569046,0.035172633826732635
1700515541299575000,9.365574951171874,0.06527087837457657,-0.08689228445291519,-0.002481799805536866
1700515541309585200,9.375585205078124,-0.052068259567022324,-0.0536898598074913,-0.13948066532611847
1700515541319596000,9.385595947265625,0.006097307428717613,-0.021875204518437386,0.028003139421343803
1700515541329607000,9.39560693359375,0.005888781975954771,0.03834046423435211,-0.07130534201860428
1700515541339617000,9.405616943359375,0.10211358219385147,-0.09128303825855255,0.08472234755754471
1700515541349628000,9.4156279296875,-0.05728619173169136,-0.07610302418470383,-0.1559848040342331
1700515541359638000,9.425637939453125,0.0017707358347252011,0.13822898268699646,0.07684524357318878
1700515541369649200,9.435649169921875,0.0957169383764267,-0.028386633843183517,0.07866551727056503
1700515541379659300,9.4456591796875,-0.03765789791941643,-0.01128274854272604,-0.1672063022851944
1700515541389670100,9.455670166015626,-0.02064029686152935,0.023188943043351173,0.08624567091464996
1700515541399681000,9.465680908203124,0.045454565435647964,0.17888905107975006,0.09211740642786026
1700515541409691100,9.475691162109374,0.17151369154453278,-0.1046084314584732,0.03165699541568756
1700515541419702000,9.485701904296874,-0.06789196282625198,-0.056350890547037125,-0.1706036925315857
1700515541429712100,9.495712158203125,0.004035221878439188,0.3158668875694275,0.42422956228256226
1700515541439723000,9.505722900390625,0.13571734726428986,-0.01757180318236351,-0.0937829539179802
1700515541449733000,9.515733154296875,-0.0984669178724289,-0.14404505491256714,-0.2690402567386627
1700515541459744000,9.525743896484375,0.08237050473690033,0.2760763168334961,0.3105970323085785
1700515541469755100,9.535755126953125,0.04338555783033371,0.07145634293556213,0.16230902075767517
1700515541479765200,9.54576513671875,0.023371635004878044,-0.19780123233795166,-0.4228425920009613
1700515541489776000,9.555776123046876,-0.015178154222667217,0.38830485939979553,0.4400426149368286
1700515541499786200,9.5657861328125,0.09706849604845047,0.06190198287367821,0.14262399077415466
1700515541509797000,9.575797119140624,-0.03748319298028946,-0.2496471107006073,-0.4160376787185669
1700515541519807000,9.585806884765624,0.0345342755317688,0.2998535633087158,0.20305484533309937
1700515541529818000,9.595818115234374,0.05348825827240944,0.0628276988863945,0.24103444814682007
1700515541539829000,9.6058291015625,-0.04553233087062836,-0.3556568920612335,-0.4822404086589813
1700515541549839000,9.615839111328125,-0.0056831855326890945,0.31426259875297546,0.3162756860256195
1700515541559850000,9.62585009765625,0.028778119012713432,-0.0091157341375947,0.1487463414669037
1700515541569860000,9.635860107421875,-0.09632653743028641,-0.32082274556159973,-0.48260900378227234
1700515541579871200,9.645871337890625,0.032704416662454605,0.28455662727355957,0.25733059644699097
1700515541589882000,9.655882080078126,0.004087419714778662,-0.07839547097682953,0.11743448674678802
1700515541599892200,9.665892333984376,-0.080592580139637,-0.17121756076812744,-0.48891615867614746
1700515541609903000,9.675903076171876,0.13399988412857056,0.2318580001592636,0.6016190052032471
1700515541619913200,9.685913330078124,-0.00034115093876607716,-0.03749304637312889,-0.06888452172279358
1700515541629924000,9.695924072265624,-0.1043303981423378,-0.10377246886491776,-0.5958213210105896
1700515541639934000,9.705933837890624,0.1833093762397766,0.10252930223941803,0.6398527026176453
1700515541649945000,9.715945068359375,-0.04442046210169792,-0.3594503104686737,-0.30307865142822266
1700515541659956000,9.7259560546875,0.08282563835382462,0.391295850276947,0.020504210144281387
1700515541669966000,9.735966064453125,0.026268621906638145,0.2718890309333801,0.552172064781189
1700515541679977200,9.745977294921875,-0.04477466270327568,-0.4570343792438507,-0.4614584445953369
1700515541689987000,9.755987060546875,-0.02792377583682537,0.043903276324272156,0.5636074542999268
1700515541699998200,9.765998291015626,-0.06715240329504013,-0.20864588022232056,0.7755181193351746
1700515541710009000,9.776009033203126,-0.06436913460493088,-0.0035779569298028946,0.6446202397346497
1700515541720019200,9.786019287109376,-0.17269906401634216,-0.20664797723293304,0.26500874757766724
1700515541730030000,9.796030029296874,-0.23478081822395325,-0.3602444529533386,-0.9578655362129211
1700515541740040000,9.8060400390625,-0.0975009873509407,-0.15893851220607758,-0.7892552018165588
1700515541750051000,9.816051025390625,0.04819868877530098,-0.15983201563358307,-0.5471730828285217
1700515541760062000,9.82606201171875,-0.08832453936338425,0.1046808734536171,-0.47742143273353577
1700515541770072000,9.836072021484375,0.11010067164897919,0.1551395207643509,0.5576262474060059
1700515541780083200,9.846083251953125,-0.07958457618951797,0.0772862657904625,-0.08781294524669647
1700515541790093000,9.856093017578125,0.1342528760433197,0.6468879580497742,0.2027970552444458
1700515541800104200,9.866104248046875,0.23398347198963165,0.23149608075618744,0.8019654154777527
1700515541810115000,9.876114990234376,-0.027308320626616478,0.4380604326725006,-0.10782287269830704
1700515541820125200,9.886125244140626,0.2310180366039276,0.0012684636749327183,0.20269079506397247
1700515541830136000,9.896135986328124,-0.014276674017310143,-0.028476648032665253,0.018669558688998222
1700515541840146200,9.906146240234374,-0.028260666877031326,0.20987893640995026,-0.03356994315981865
1700515541850157000,9.916156982421874,0.14357420802116394,-0.3072643280029297,0.036497022956609726
1700515541860168000,9.92616796875,-0.202034592628479,-0.24168851971626282,-0.33130761981010437
1700515541870178000,9.936177978515625,0.10189148038625717,-0.06343516707420349,0.03527995944023132
1700515541880189200,9.946189208984375,-0.059959739446640015,-0.3698595464229584,-0.2794553339481354
1700515541890199300,9.95619921875,-0.18908630311489105,-0.2670458257198334,-0.08939965069293976
1700515541900210200,9.966210205078125,-0.02786385454237461,-0.1271504908800125,0.6119717955589294
1700515541910221000,9.976220947265626,-0.11096327006816864,-0.045700907707214355,-0.01095544546842575
1700515541920231200,9.986231201171876,-0.1994718313217163,0.28429776430130005,-0.037100229412317276
1700515541930242000,9.996241943359376,0.14351695775985718,-0.06689620763063431,-0.04814808815717697
1700515541940252200,10.006252197265624,-0.10420816391706467,-0.08986037969589233,-0.4458717405796051
1700515541950263000,10.016262939453124,0.011189271695911884,0.14889946579933167,-0.016589894890785217
1700515541960274000,10.02627392578125,0.07144675403833389,-0.20709912478923798,0.16038142144680023
1700515541970284000,10.036283935546875,-0.17296965420246124,0.44979724287986755,0.287396639585495
1700515541980295200,10.046295166015625,0.239618718624115,0.07200761139392853,0.5384464263916016
1700515541990305300,10.05630517578125,-0.05074626952409744,0.14536544680595398,-0.39332839846611023
1700515542000316200,10.066316162109375,-0.008812665939331055,0.1215173751115799,-0.45928582549095154
1700515542010327000,10.0763271484375,0.22770613431930542,-0.0231681689620018,-0.10890331119298935
1700515542020337200,10.086337158203126,-0.18532192707061768,-0.20264685153961182,-0.3120114207267761
1700515542030348000,10.09634814453125,0.13304007053375244,-0.062364574521780014,0.6380044221878052
1700515542040358100,10.106358154296874,-0.006121275946497917,0.2685587406158447,0.4267584979534149
1700515542050369000,10.116369140625,-0.1380564123392105,-0.06283329427242279,0.2680453062057495
1700515542060380000,10.1263798828125,0.16749818623065948,-0.002951315138489008,0.024991368874907494
1700515542070390000,10.13639013671875,-0.06777185946702957,-0.4596693217754364,-0.7985523343086243
1700515542080401200,10.146401123046875,-0.07040225714445114,0.23646074533462524,-0.07897524535655975
1700515542090412000,10.156412109375,0.1115715354681015,-0.3768623173236847,0.12516804039478302
1700515542100422100,10.166422119140625,-0.07608890533447266,0.07004299759864807,0.17979106307029724
1700515542110433000,10.17643310546875,0.02979065291583538,-0.011286476626992226,0.8966431617736816
1700515542120443100,10.186443115234376,-0.01830204203724861,0.22894662618637085,-0.08193135261535645
1700515542130454000,10.1964541015625,-0.1749478429555893,0.06037386134266853,-0.33832478523254395
1700515542140465000,10.20646484375,0.21661247313022614,0.09710657596588135,-0.013586116023361683
1700515542150475000,10.21647509765625,-0.16205574572086334,-0.08529732376337051,-0.5556565523147583
1700515542160486000,10.22648583984375,0.0190152358263731,0.3403221666812897,-0.10364037752151489
1700515542170497300,10.236497314453125,0.1246521845459938,-0.2786302864551544,0.22082266211509705
1700515542180507100,10.246507080078125,-0.21806521713733673,0.36579155921936035,-0.012007393874228
1700515542190518000,10.25651806640625,0.22526374459266663,-0.2092573493719101,0.6424189209938049
1700515542200528100,10.266528076171875,-0.09430040419101715,0.10535012185573578,-0.2704341411590576
1700515542210539000,10.2765390625,-0.1429896503686905,0.04165077209472656,-0.16583263874053955
1700515542220550100,10.286550048828126,0.24128985404968262,-0.1307247281074524,-0.14166685938835144
1700515542230560000,10.29656005859375,-0.13587501645088196,-0.3899887800216675,-0.7777003049850464
1700515542240571100,10.306571044921874,0.001838912721723318,0.12775103747844696,0.2662103772163391
1700515542250582500,10.31658251953125,0.06934285163879395,-0.001901230658404529,0.05445392057299614
1700515542260592000,10.326592041015624,-0.1117829903960228,-0.006877613253891468,0.13423050940036774
1700515542270603500,10.336603515625,0.07588011771440506,-0.07122118026018143,0.4937995970249176
1700515542280613400,10.34661328125,-0.049964096397161484,-0.24921807646751404,-0.4913918375968933
1700515542290624300,10.356624267578125,-0.1331908106803894,0.1905137598514557,0.048278048634529114
1700515542300635400,10.366635498046875,0.1386691927909851,-0.018812835216522217,0.07528197020292282
1700515542310645200,10.376645263671875,-0.08877886831760406,-0.0631193146109581,-0.1705312579870224
1700515542320656400,10.386656494140626,0.0275083240121603,0.2028103619813919,0.2643943727016449
1700515542330667300,10.396667236328126,0.1585845798254013,0.016083361580967903,-0.41620388627052307
1700515542340677400,10.406677490234374,-0.17722457647323608,0.2785530686378479,-0.0007427555974572897
1700515542350688500,10.4166884765625,0.1860380470752716,-0.134266197681427,0.4566847085952759
1700515542360698000,10.426697998046874,-0.001832521171309054,0.16311141848564148,-0.04964957758784294
1700515542370709500,10.43670947265625,0.03381255641579628,0.14873407781124115,0.6036992073059082
1700515542380720400,10.446720458984375,0.1704241931438446,-0.08391407132148743,-0.26753556728363037
1700515542390730500,10.45673046875,-0.16163310408592224,0.29574137926101685,-0.13769768178462982
1700515542400741400,10.466741455078125,0.21326273679733276,-0.22300592064857483,0.36817696690559387
1700515542410752300,10.476752197265625,-0.03925099968910217,-0.12147556245326996,-0.29346758127212524
1700515542420762400,10.486762451171876,0.0027214842848479748,-0.013674532994627953,0.285793662071228
1700515542430773200,10.496773193359376,0.06222715601325035,-0.21138760447502136,-0.47473907470703125
1700515542440784400,10.506784423828124,-0.16787874698638916,-0.14659689366817474,-0.41671520471572876
1700515542450794500,10.51679443359375,0.1388966292142868,0.002377137541770935,0.0652671530842781
1700515542460805400,10.526805419921875,-0.042456913739442825,-0.24525237083435059,-0.25217950344085693
1700515542470815500,10.5368154296875,0.02798795886337757,-0.010039051994681358,0.3999474048614502
1700515542480826400,10.546826416015625,0.16126398742198944,0.06802912056446075,0.0123030049726367
1700515542490837200,10.556837158203125,0.03305169194936752,0.4030457139015198,0.5646716356277466
1700515542500847400,10.566847412109375,0.11450367420911789,0.061825018376111984,0.3776346445083618
1700515542510858200,10.576858154296875,0.006106894463300705,0.543429970741272,0.15534165501594543
1700515542520869400,10.586869384765626,0.07734299451112747,-0.14479686319828033,0.4337943196296692
1700515542530879200,10.596879150390626,0.010086722671985626,-0.0689321979880333,-0.6514526009559631
1700515542540890400,10.606890380859374,0.014240987598896027,-0.08645366877317429,0.30180618166923523
1700515542550901500,10.616901611328124,0.0358181856572628,-0.21216897666454315,-0.2359105348587036
1700515542560911400,10.626911376953124,-0.058579690754413605,0.01576378382742405,-0.034393660724163055
1700515542570922500,10.636922607421875,0.0051955608651041985,-0.34690389037132263,-0.510097861289978
1700515542580933400,10.646933349609375,-0.15442553162574768,-0.053281862288713455,-0.4373339116573334
1700515542590943200,10.656943115234375,0.044568534940481186,-0.32850757241249084,-0.11336490511894226
1700515542600954400,10.666954345703125,0.04198180511593819,0.06475449353456497,-0.30723583698272705
1700515542610964200,10.676964111328125,0.13766305148601532,-0.12231099605560303,0.22524777054786682
1700515542620975400,10.686975341796876,0.02707342989742756,-0.0814644992351532,-0.49435192346572876
1700515542630986500,10.696986572265626,0.11688081175088882,-0.03111317753791809,0.2197003960609436
1700515542640996400,10.706996337890626,0.011272627860307693,-0.1107584685087204,-0.05042589083313942
1700515542651007500,10.717007568359374,0.053458962589502335,0.287474662065506,0.18779653310775757
1700515542661018400,10.727018310546875,0.09699738770723343,0.05324937403202057,0.06754522025585175
1700515542671028500,10.737028564453125,-0.0680280551314354,0.29402071237564087,0.12383139878511429
1700515542681039400,10.747039306640625,0.05877756327390671,0.0762239322066307,0.313178688287735
1700515542691050200,10.75705029296875,-0.008343683555722237,0.2541199028491974,-0.0822882130742073
1700515542701060400,10.767060302734375,0.1848401576280594,0.001437041675671935,0.19793091714382172
1700515542711071200,10.7770712890625,-0.08342298865318298,0.08126077055931091,-0.34248170256614685
1700515542721082400,10.787082275390626,0.1530771702528,-0.05819912254810333,0.20244471728801727
1700515542731092500,10.797092529296876,0.06622855365276337,0.03388233482837677,-0.06539924442768097
1700515542741103400,10.807103271484374,0.16752535104751587,0.09102071821689606,0.43804630637168884
1700515542751114500,10.817114501953125,0.0030429279431700706,0.10348298400640488,-0.1463119387626648
1700515542761124400,10.827124267578125,0.1695363074541092,0.08761267364025116,0.27759724855422974
1700515542771135200,10.83713525390625,-0.044854823499917984,-0.10970998555421829,-0.03985846787691116
1700515542781145300,10.847145263671875,0.052149221301078796,0.1953710913658142,-0.045273471623659134
1700515542791156200,10.85715625,-0.036551885306835175,-0.18046298623085022,-0.23974761366844177
1700515542801167400,10.86716748046875,-0.036915406584739685,-0.2000446766614914,-0.383450984954834
1700515542811177200,10.87717724609375,-0.050647199153900146,-0.1520928591489792,-0.29314425587654114
1700515542821188400,10.887188232421876,-0.06424423307180405,-0.25748080015182495,-0.5490913391113281
1700515542831199500,10.897199462890624,0.04273521155118942,-0.17435716092586517,-0.21660687029361725
1700515542841209300,10.907209228515624,-0.07478662580251694,-0.16885186731815338,-0.5735205411911011
1700515542851220500,10.917220458984374,0.08816874027252197,0.13396473228931427,0.21710728108882904
1700515542861231400,10.9272314453125,0.025167671963572502,0.04705352708697319,-0.08643262833356857
1700515542871241200,10.9372412109375,0.19043491780757904,0.18845513463020325,0.30203574895858765
1700515542881252400,10.94725244140625,-0.007230216171592474,0.1378670483827591,-0.041664354503154755
1700515542891263200,10.95726318359375,0.2233012616634369,0.2105676233768463,0.4067491292953491
1700515542901273300,10.9672734375,0.03081250749528408,0.02490907721221447,0.19688323140144348
1700515542911284500,10.977284423828126,0.1459348350763321,0.199870765209198,0.45609909296035767
1700515542921295400,10.98729541015625,0.03236166760325432,0.094844751060009,-0.04108512029051781
1700515542931305500,10.997305419921876,0.14598943293094635,0.14848561584949493,0.3351084887981415
1700515542941316400,11.00731640625,0.009815879166126251,-0.09937185794115067,-0.04140496253967285
1700515542951327200,11.0173271484375,0.14137816429138184,0.15230591595172882,0.02478444203734398
1700515542961337300,11.02733740234375,-0.03996951878070831,-0.14997458457946777,-0.32537782192230225
1700515542971348200,11.03734814453125,0.07504308223724365,0.08475376665592194,-0.020681843161582947
1700515542981359400,11.047359375,-0.02171195298433304,-0.2047552764415741,-0.1616504192352295
1700515542991369200,11.057369140625,-0.015223161317408085,0.09721177071332932,0.1370081901550293
1700515543001380400,11.06738037109375,0.05849979445338249,-0.19745102524757385,-0.23380742967128754
1700515543011391500,11.0773916015625,-0.03888215124607086,0.12981046736240387,0.17768743634223938
1700515543021401300,11.0874013671875,0.05517776682972908,-0.2561873197555542,0.0529998354613781
1700515543031412500,11.09741259765625,-0.0031372036319226027,0.3085242807865143,0.26395681500434875
1700515543041423400,11.10742333984375,0.027642546221613884,-0.16348639130592346,-0.06251131743192673
1700515543051433200,11.11743310546875,0.027945613488554955,0.1152685359120369,0.1314552277326584
1700515543061444400,11.1274443359375,-0.043042007833719254,0.023665647953748703,-0.0037414750549942255
1700515543071455200,11.137455322265625,0.06885123252868652,0.0430353507399559,-0.007032609544694424
1700515543081465300,11.14746533203125,0.012522716075181961,-0.07405664771795273,-0.09226148575544357
1700515543091476500,11.1574765625,-0.008041680790483952,-0.1346379667520523,-0.3759627044200897
1700515543101487400,11.1674873046875,0.017620006576180458,-0.00826991442590952,-0.08410049974918365
1700515543111497500,11.17749755859375,0.00618172949180007,0.012631106190383434,-0.3855953514575958
1700515543121508400,11.18750830078125,0.12088221311569214,-0.1236359179019928,-0.10231705009937286
1700515543131519200,11.197519287109374,-0.03297818824648857,0.15858058631420135,-0.14812688529491425
1700515543141529300,11.207529296875,0.15272456407546997,-0.020193951204419136,0.04000041261315346
1700515543151540200,11.217540283203125,0.007240335922688246,0.16420970857143402,-0.11473537236452103
1700515543161551400,11.22755126953125,0.15519198775291443,-0.15140390396118164,-0.04551315680146217
1700515543171561200,11.237561279296875,-0.021695176139473915,0.09358161687850952,-0.412067711353302
1700515543181572400,11.247572265625,0.14996951818466187,-0.1272338479757309,0.21670646965503693
1700515543191583500,11.25758349609375,0.08628614991903305,0.10910838097333908,-0.1325141042470932
1700515543201593300,11.26759326171875,0.13292716443538666,0.08545098453760147,0.44006791710853577
1700515543211604500,11.2776044921875,0.04037671908736229,0.19830270111560822,-0.07198631018400192
1700515543221615400,11.287615478515624,0.17406606674194336,0.06090196594595909,0.3440639078617096
1700515543231625200,11.297625244140624,0.0406198650598526,-0.029081186279654503,-0.015869777649641037
1700515543241636400,11.30763623046875,0.13870035111904144,-0.022046446800231934,0.20236589014530182
1700515543251647700,11.317647705078125,-0.11488237977027893,-0.1215147152543068,-0.4023088216781616
1700515543261657600,11.32765771484375,0.12878966331481934,-0.19016461074352264,0.07389765977859497
1700515543271668700,11.337668701171875,-0.05910033732652664,-0.44404110312461853,-0.46161556243896484
1700515543281679600,11.3476796875,0.03483068570494652,-0.04845089092850685,0.12583036720752716
1700515543291689700,11.357689697265625,-0.028379710391163826,-0.14643551409244537,-0.27256813645362854
1700515543301700600,11.36770068359375,0.05946572497487068,0.07985222339630127,0.31585755944252014
1700515543311711500,11.37771142578125,0.02256070263683796,-0.04301058501005173,0.13778023421764374
1700515543321721600,11.3877216796875,0.1104080006480217,0.12284735590219498,0.3375213146209717
1700515543331732700,11.397732666015624,-0.038971900939941406,0.11749041080474854,-0.22270604968070984
1700515543341743600,11.40774365234375,0.14705921709537506,-0.1520736813545227,0.21573922038078308
1700515543351753700,11.417753662109375,-0.054613977670669556,-0.14912903308868408,-0.16492903232574463
1700515543361764600,11.4277646484375,0.09568551182746887,-0.10894539207220078,0.30519241094589233
1700515543371775700,11.437775634765625,-0.0599520169198513,-0.02629418857395649,-0.4680635929107666
1700515543381785600,11.44778564453125,0.05582518130540848,-0.0970810130238533,0.1914764940738678
1700515543391796500,11.45779638671875,-0.039801742881536484,-0.029894782230257988,0.01230327133089304
1700515543401807600,11.4678076171875,0.22235797345638275,-0.0313350185751915,0.4710218608379364
1700515543411818800,11.47781884765625,-0.0641036182641983,0.3159984350204468,0.0027656927704811096
1700515543421828900,11.487828857421874,0.04628254473209381,0.0645478367805481,0.3975473642349243
1700515543431839700,11.49783984375,0.012456136755645275,0.1421283781528473,-0.003884486621245742
1700515543441850600,11.5078505859375,0.16278518736362457,-0.1494952142238617,0.20323434472084045
1700515543451860700,11.51786083984375,-0.0774359330534935,0.01846262998878956,-0.4719401001930237
1700515543461871600,11.52787158203125,0.14511404931545258,-0.34127822518348694,-0.08340461552143097
1700515543471882500,11.537882568359375,-0.1190480962395668,-0.040530115365982056,-0.4864804446697235
1700515543481892600,11.547892578125,0.13156388700008392,-0.4095931053161621,-0.21500471234321594
1700515543491903500,11.557903564453126,-0.025256088003516197,-0.07218418270349503,-0.4689118266105652
1700515543501914600,11.56791455078125,0.0375622883439064,-0.047321975231170654,0.1704508364200592
1700515543511924700,11.5779248046875,0.04035940766334534,0.16175614297389984,0.04916514828801155
1700515543521935600,11.587935546875,0.11425840109586716,-0.06429456919431686,0.1262897551059723
1700515543531946800,11.59794677734375,-0.12607084214687347,0.1790725439786911,-0.016714531928300858
1700515543541956600,11.60795654296875,0.05330822989344597,-0.05907450616359711,0.14247699081897736
1700515543551967700,11.6179677734375,-0.02901407517492771,0.2086583971977234,-0.09477338194847107
1700515543561978600,11.627978515625,0.03977564349770546,-0.27140939235687256,-0.08319316059350967
1700515543571988500,11.637988525390625,-0.12239275872707367,0.18989883363246918,-0.1708098202943802
1700515543581999600,11.64799951171875,0.021580925211310387,-0.10656239837408066,0.13090021908283234
1700515543592010800,11.6580107421875,0.04718641936779022,0.3731117844581604,0.24919304251670837
1700515543602021600,11.668021728515624,-0.010570352897047997,0.1325433999300003,0.34569695591926575
1700515543612031700,11.67803173828125,0.11121786385774612,0.3020956814289093,0.3367444574832916
1700515543622042600,11.688042724609375,0.047980308532714844,0.1090971902012825,0.17777186632156372
1700515543632053500,11.698053466796875,0.08094491809606552,0.5084203481674194,0.38450533151626587
1700515543642063600,11.708063720703125,-0.025168735533952713,-0.1069786474108696,-0.2058679461479187
1700515543652074500,11.718074462890625,0.09678353369235992,-0.02887851931154728,-0.12670281529426575
1700515543662085600,11.728085693359375,-0.22849415242671967,-0.32348671555519104,-0.38341131806373596
1700515543672095500,11.738095458984375,-0.0023371900897473097,-0.3319856524467468,-0.3123405873775482
1700515543682106600,11.748106689453126,-0.15680745244026184,-0.3940106928348541,-0.837130069732666
1700515543692117800,11.75811767578125,-0.027159715071320534,-0.5325914621353149,-0.3907163441181183
1700515543702127600,11.768127685546874,-0.07974303513765335,-0.21565532684326172,-0.4767305850982666
1700515543712138800,11.778138671875,0.13363875448703766,0.009226521477103233,0.09132511913776398
1700515543722149600,11.788149658203125,0.006617422681301832,0.21788546442985535,-0.194510355591774
1700515543732159500,11.798159423828125,0.098169706761837,0.28632602095603943,0.4399406313896179
1700515543742170600,11.808170654296875,-0.04923572391271591,0.46860289573669434,0.4601742625236511
1700515543752181500,11.818181396484375,0.1704135537147522,0.4036595821380615,0.7102283239364624
1700515543762192600,11.828192626953125,-0.11894875764846802,0.3690667152404785,0.2117316871881485
1700515543772202800,11.83820263671875,-0.02557806484401226,0.17093126475811005,0.5655142664909363
1700515543782213600,11.848213623046876,-0.026248648762702942,-0.030474819242954254,-0.0003046656202059239
1700515543792224800,11.858224853515624,0.11977646499872208,-0.20353075861930847,0.2175682783126831
1700515543802234600,11.868234619140624,-0.11468850076198578,-0.02653254196047783,-0.49508458375930786
1700515543812245500,11.87824560546875,0.11111826449632645,-0.44579213857650757,-0.04923146218061447
1700515543822256600,11.888256591796875,-0.016804546117782593,-0.09238293021917343,-0.5513966083526611
1700515543832266500,11.8982666015625,0.0733325332403183,-0.21843406558036804,-0.37288516759872437
1700515543842277600,11.908277587890625,-0.11563471704721451,-0.3149605989456177,-0.5126444101333618
1700515543852288800,11.918288818359375,0.039622511714696884,0.019478093832731247,-0.13638819754123688
1700515543862298600,11.928298583984375,-0.07153011113405228,-0.03895192593336105,-0.17791274189949036
1700515543872309800,11.938309814453126,0.07909002155065536,0.06318748742341995,0.15033943951129913
1700515543882320600,11.948320556640626,-0.13056333363056183,0.1865757405757904,0.08037766069173813
1700515543892331500,11.95833154296875,0.07906658947467804,0.28601497411727905,0.2668604552745819
1700515543902341600,11.968341552734374,0.002153964713215828,0.15754035115242004,0.03609302267432213
1700515543912352500,11.9783525390625,-0.03935752436518669,0.19736100733280182,-0.13736611604690552
1700515543922363400,11.98836328125,-0.15946368873119354,-0.26082706451416016,-0.26919499039649963
1700515543932373500,11.99837353515625,0.013817278668284416,-0.11736764013767242,-0.32363665103912354
1700515543942384600,12.008384521484375,-0.13809609413146973,-0.05654530227184296,-0.3079034984111786
1700515543952395800,12.018395751953125,-0.004267449490725994,-0.1230207309126854,-0.2951272428035736
1700515543962405600,12.028405517578125,-0.043714988976716995,-0.07809107005596161,-0.11497798562049866
1700515543972416500,12.03841650390625,-0.007544735446572304,0.08779510110616684,0.212028369307518
1700515543982427600,12.048427734375,0.08110737055540085,0.37475815415382385,0.5197198987007141
1700515543992437500,12.0584375,0.04408969730138779,0.23656593263149261,0.11472072452306747
1700515544002448600,12.06844873046875,0.030719829723238945,0.32024112343788147,0.44867366552352905
1700515544012459500,12.07845947265625,-0.03313398361206055,0.1631721407175064,0.35685932636260986
1700515544022470700,12.088470703125,0.14624349772930145,0.35257455706596375,0.49324777722358704
1700515544032480800,12.098480712890625,-0.07906818389892578,0.12864026427268982,-0.11814235150814056
1700515544042491600,12.10849169921875,0.0030722226947546005,0.18393228948116302,0.3112580180168152
1700515544052502500,12.11850244140625,-0.10790249705314636,-0.25030678510665894,-0.14434918761253357
1700515544062512600,12.1285126953125,0.14497768878936768,-0.23254455626010895,0.05907849967479706
