time,seconds_elapsed,z,y,x
1700516694990476300,0.016476318359375,-0.979949951171875,-0.2031402587890625,-0.028839111328125
1700516695000486400,0.026486328125,-1.1820526123046875,-0.04119873046875,0.093475341796875
1700516695010496300,0.036496337890625,-0.9757232666015625,0.0196990966796875,0.021087646484375
1700516695020506400,0.04650634765625,-0.844696044921875,-0.3521728515625,0.0996856689453125
1700516695030517200,0.056517333984375,-0.98297119140625,-0.0960235595703125,-0.022430419921875
1700516695040527400,0.06652734375,-1.078155517578125,-0.089874267578125,0.121490478515625
1700516695050537500,0.076537353515625,-1.122039794921875,-0.1091766357421875,0.033233642578125
1700516695060547300,0.08654736328125,-0.925048828125,-0.134918212890625,0.0496673583984375
1700516695070557400,0.096557373046875,-0.73895263671875,-0.172576904296875,0.0765228271484375
1700516695080567300,0.1065673828125,-1.112640380859375,-0.197998046875,-0.0000762939453125
1700516695090578400,0.116578369140625,-1.1499481201171875,0.0269317626953125,0.0735626220703125
1700516695100588300,0.12658837890625,-0.8584442138671875,-0.099578857421875,0.035369873046875
1700516695110598400,0.136598388671875,-0.897918701171875,-0.3286895751953125,0.0665283203125
1700516695120608300,0.146608154296875,-1.03485107421875,-0.0638427734375,0.0030975341796875
1700516695130618400,0.156618408203125,-1.0967864990234375,-0.074127197265625,0.117889404296875
1700516695140628200,0.166628173828125,-1.12451171875,-0.1419525146484375,-0.001953125
1700516695150639400,0.176639404296875,-0.8608245849609375,-0.135528564453125,0.095672607421875
1700516695160649200,0.186649169921875,-0.7855987548828125,-0.1953887939453125,0.024810791015625
1700516695170659300,0.196659423828125,-1.1547088623046875,-0.1625213623046875,0.0184173583984375
1700516695180669200,0.206669189453125,-1.1367034912109375,0.0901031494140625,0.0565948486328125
1700516695190679300,0.21667919921875,-0.856353759765625,-0.1825103759765625,0.0494232177734375
1700516695200689400,0.226689453125,-0.9093017578125,-0.2540740966796875,0.045379638671875
1700516695210700300,0.2367001953125,-0.9942779541015625,-0.0746307373046875,0.017303466796875
1700516695220710400,0.24671044921875,-1.1327056884765625,-0.047943115234375,0.115386962890625
1700516695230720300,0.25672021484375,-1.118011474609375,-0.1385345458984375,0.0009765625
1700516695240730400,0.26673046875,-0.7793121337890625,-0.14739990234375,0.1014404296875
1700516695250740200,0.276740234375,-0.8242340087890625,-0.1993560791015625,0.0162811279296875
1700516695260750300,0.286750244140625,-1.15814208984375,-0.127349853515625,0.0481414794921875
1700516695270761500,0.296761474609375,-1.0790252685546875,0.0892181396484375,0.0415802001953125
1700516695280771600,0.306771484375,-0.8921966552734375,-0.3007354736328125,0.0895843505859375
1700516695290781200,0.31678125,-0.874908447265625,-0.1876983642578125,-0.004730224609375
1700516695300791300,0.326791259765625,-1.0263214111328125,-0.0799407958984375,0.0857391357421875
1700516695310801200,0.33680126953125,-1.1590423583984375,-0.0891876220703125,0.076812744140625
1700516695320811300,0.346811279296875,-1.099365234375,-0.1292724609375,0.0149383544921875
1700516695330822400,0.356822509765625,-0.668304443359375,-0.1626434326171875,0.121917724609375
1700516695340832500,0.36683251953125,-0.976959228515625,-0.199676513671875,-0.0238800048828125
1700516695350842400,0.37684228515625,-1.23052978515625,-0.0241241455078125,0.098846435546875
1700516695360852500,0.3868525390625,-1.0230560302734375,0.0156707763671875,0.02130126953125
1700516695370862600,0.396862548828125,-0.7974700927734375,-0.339263916015625,0.08843994140625
1700516695380872400,0.40687255859375,-0.94122314453125,-0.116668701171875,-0.0172271728515625
1700516695390883300,0.41688330078125,-1.10858154296875,-0.06011962890625,0.1073455810546875
1700516695400893400,0.4268935546875,-1.1685638427734375,-0.131134033203125,0.0514984130859375
1700516695410903600,0.436903564453125,-0.933135986328125,-0.10675048828125,0.0314788818359375
1700516695420913400,0.446913330078125,-0.6839752197265625,-0.195648193359375,0.0759735107421875
1700516695430923500,0.456923583984375,-1.1218719482421875,-0.1733856201171875,-0.0112457275390625
1700516695440933400,0.466933349609375,-1.180023193359375,0.0527801513671875,0.0839080810546875
1700516695450943700,0.47694384765625,-0.9351348876953125,-0.1233062744140625,0.0390167236328125
1700516695460953600,0.48695361328125,-0.7945404052734375,-0.3072509765625,0.061370849609375
1700516695470963700,0.496963623046875,-1.0179595947265625,-0.0845947265625,0.0020751953125
1700516695480973800,0.506973876953125,-1.120635986328125,-0.057708740234375,0.102264404296875
1700516695490983700,0.516983642578125,-1.1400299072265625,-0.14031982421875,0.0115509033203125
1700516695500993800,0.526993896484375,-0.8019256591796875,-0.1438446044921875,0.0754852294921875
1700516695511004700,0.537004638671875,-0.7842864990234375,-0.20635986328125,0.0410919189453125
1700516695521014800,0.547014892578125,-1.1856689453125,-0.1260223388671875,0.0226287841796875
1700516695531024600,0.557024658203125,-1.11309814453125,0.06695556640625,0.0494537353515625
1700516695541034800,0.56703466796875,-0.85675048828125,-0.2458343505859375,0.075164794921875
1700516695551044600,0.577044677734375,-0.868804931640625,-0.2124481201171875,0.001312255859375
1700516695561054700,0.5870546875,-1.095062255859375,-0.0722503662109375,0.0640869140625
1700516695571065600,0.597065673828125,-1.11474609375,-0.083709716796875,0.088226318359375
1700516695581075700,0.60707568359375,-1.065887451171875,-0.129180908203125,0.007537841796875
1700516695591085600,0.61708544921875,-0.7042694091796875,-0.170623779296875,0.097412109375
1700516695601095700,0.627095703125,-0.9771728515625,-0.1817169189453125,-0.0106658935546875
1700516695611105800,0.637105712890625,-1.2223052978515625,-0.0504150390625,0.08465576171875
1700516695621116700,0.64711669921875,-0.9928741455078125,0.0106658935546875,0.019195556640625
1700516695631126500,0.65712646484375,-0.78692626953125,-0.3223876953125,0.0932159423828125
1700516695641136600,0.66713671875,-0.9722442626953125,-0.1208953857421875,-0.029754638671875
1700516695651146800,0.677146728515625,-1.115447998046875,-0.07012939453125,0.104095458984375
1700516695661156600,0.687156494140625,-1.103668212890625,-0.10540771484375,0.04693603515625
1700516695671166700,0.697166748046875,-0.93609619140625,-0.149200439453125,0.044830322265625
1700516695681177900,0.707177734375,-0.7387542724609375,-0.1698760986328125,0.0582733154296875
1700516695691188000,0.71718798828125,-1.1243438720703125,-0.1717376708984375,0.0034332275390625
1700516695701197800,0.72719775390625,-1.162933349609375,0.013824462890625,0.07366943359375
1700516695711208000,0.7372080078125,-0.9017333984375,-0.100738525390625,0.033477783203125
1700516695721217500,0.747217529296875,-0.7924957275390625,-0.292755126953125,0.054718017578125
1700516695731229000,0.75722900390625,-1.1103668212890625,-0.0913238525390625,0.0093841552734375
1700516695741238800,0.76723876953125,-1.0908050537109375,-0.068603515625,0.1072540283203125
1700516695751249000,0.777248779296875,-1.0847015380859375,-0.1363677978515625,0.0138702392578125
1700516695761258800,0.7872587890625,-0.815887451171875,-0.137542724609375,0.0797576904296875
1700516695771268900,0.797268798828125,-0.8238067626953125,-0.1920013427734375,0.026702880859375
1700516695781279000,0.807279052734375,-1.233978271484375,-0.140594482421875,0.052337646484375
1700516695791289900,0.817289794921875,-1.07147216796875,0.0659637451171875,0.0375823974609375
1700516695801299700,0.8272998046875,-0.8090972900390625,-0.222381591796875,0.0717620849609375
1700516695811309800,0.837309814453125,-0.8651123046875,-0.2361297607421875,0.019683837890625
1700516695821320000,0.84731982421875,-1.1589202880859375,-0.0663299560546875,0.0606231689453125
1700516695831329800,0.857329833984375,-1.07281494140625,-0.0814666748046875,0.0811614990234375
1700516695841340700,0.867340576171875,-1.044036865234375,-0.1366424560546875,0.0125885009765625
1700516695851350800,0.877350830078125,-0.7365875244140625,-0.1361236572265625,0.0836944580078125
1700516695861361000,0.88736083984375,-0.956756591796875,-0.19549560546875,0.0080718994140625
1700516695871370800,0.897370849609375,-1.237518310546875,-0.10906982421875,0.0791473388671875
1700516695881380900,0.907380859375,-1.00738525390625,0.0613861083984375,0.0111541748046875
1700516695891390700,0.917390625,-0.77069091796875,-0.278533935546875,0.092803955078125
1700516695901401900,0.92740185546875,-0.9643402099609375,-0.178558349609375,-0.0099945068359375
1700516695911411700,0.93741162109375,-1.165496826171875,-0.0738677978515625,0.0955657958984375
1700516695921421800,0.947421875,-1.044158935546875,-0.09185791015625,0.050140380859375
1700516695931431700,0.957431640625,-1.001983642578125,-0.1379852294921875,0.033477783203125
1700516695941441800,0.96744189453125,-0.7324066162109375,-0.1313323974609375,0.0720367431640625
1700516695951452700,0.97745263671875,-1.045562744140625,-0.2180938720703125,0.0192413330078125
1700516695961462800,0.987462890625,-1.20306396484375,-0.0689239501953125,0.083343505859375
1700516695971472600,0.99747265625,-0.9663238525390625,0.0420989990234375,0.0031585693359375
1700516695981482800,1.007482666015625,-0.77777099609375,-0.3227996826171875,0.100830078125
1700516695991492900,1.017492919921875,-1.0084228515625,-0.1364898681640625,-0.016204833984375
1700516696001503700,1.027503662109375,-1.148223876953125,-0.076873779296875,0.10382080078125
1700516696011513600,1.037513671875,-1.0554351806640625,-0.12969970703125,0.0386962890625
1700516696021523700,1.047523681640625,-0.982696533203125,-0.0945281982421875,0.0356597900390625
1700516696031533800,1.057533935546875,-0.699432373046875,-0.1547698974609375,0.0634307861328125
1700516696041543700,1.067543701171875,-1.084381103515625,-0.2277069091796875,0.0200958251953125
1700516696051553800,1.0775537109375,-1.195587158203125,-0.022979736328125,0.0765838623046875
1700516696061564700,1.087564697265625,-0.91937255859375,0.0045623779296875,0.01239013671875
1700516696071574800,1.09757470703125,-0.7806243896484375,-0.3392181396484375,0.0886383056640625
1700516696081584600,1.107584716796875,-1.043487548828125,-0.1143035888671875,-0.0016021728515625
1700516696091594800,1.1175947265625,-1.1329193115234375,-0.071197509765625,0.104827880859375
1700516696101604600,1.1276044921875,-1.0612030029296875,-0.1409149169921875,0.0393524169921875
1700516696111615700,1.13761572265625,-0.938934326171875,-0.101043701171875,0.0393829345703125
1700516696121625600,1.14762548828125,-0.726043701171875,-0.1684722900390625,0.064605712890625
1700516696131635700,1.1576357421875,-1.12908935546875,-0.207305908203125,0.018768310546875
1700516696141645600,1.1676455078125,-1.1693572998046875,0.0007476806640625,0.0734710693359375
1700516696151655700,1.17765576171875,-0.91119384765625,-0.02545166015625,0.0225677490234375
1700516696161666600,1.18766650390625,-0.787628173828125,-0.34075927734375,0.0801239013671875
1700516696171676700,1.1976767578125,-1.0794525146484375,-0.099761962890625,0.0050811767578125
1700516696181686500,1.2076865234375,-1.120513916015625,-0.06781005859375,0.1042327880859375
1700516696191696600,1.217696533203125,-1.0667724609375,-0.150543212890625,0.03326416015625
1700516696201706800,1.227706787109375,-0.9073944091796875,-0.09326171875,0.05548095703125
1700516696211718000,1.2377177734375,-0.739593505859375,-0.183380126953125,0.0533447265625
1700516696221727700,1.247727783203125,-1.1662445068359375,-0.20037841796875,0.031768798828125
1700516696231737900,1.25773779296875,-1.1442413330078125,0.0332794189453125,0.06842041015625
1700516696241748000,1.267748046875,-0.8786773681640625,-0.0766448974609375,0.03143310546875
1700516696251757800,1.2777578125,-0.790496826171875,-0.3397979736328125,0.065826416015625
1700516696261768700,1.287768798828125,-1.0951080322265625,-0.078125,0.018890380859375
1700516696271778800,1.29777880859375,-1.104156494140625,-0.0838165283203125,0.093719482421875
1700516696281789000,1.307788818359375,-1.0646820068359375,-0.1611328125,0.0228271484375
1700516696291798800,1.317798828125,-0.87664794921875,-0.0850982666015625,0.074737548828125
1700516696301809000,1.327808837890625,-0.747344970703125,-0.208740234375,0.03582763671875
1700516696311819800,1.33781982421875,-1.1859283447265625,-0.17822265625,0.02886962890625
1700516696321830000,1.347829833984375,-1.1343231201171875,0.0467681884765625,0.09027099609375
1700516696331839700,1.35783984375,-0.8940887451171875,-0.1029510498046875,0.0512237548828125
1700516696341849900,1.367849853515625,-0.83123779296875,-0.3224639892578125,0.02288818359375
1700516696351859700,1.377859619140625,-1.0657958984375,-0.067840576171875,0.031646728515625
1700516696361870800,1.387870849609375,-1.11053466796875,-0.059478759765625,0.1051788330078125
1700516696371880700,1.397880615234375,-1.1409912109375,-0.1482391357421875,0.0156402587890625
1700516696381890800,1.407890869140625,-0.8282318115234375,-0.120391845703125,0.0980377197265625
1700516696391900700,1.417900634765625,-0.753082275390625,-0.197998046875,0.01513671875
1700516696401911800,1.427911865234375,-1.18359375,-0.1632232666015625,0.0418853759765625
1700516696411921700,1.437921630859375,-1.1316070556640625,0.0812225341796875,0.07073974609375
1700516696421931800,1.447931884765625,-0.89605712890625,-0.1664581298828125,0.051116943359375
1700516696431941600,1.457941650390625,-0.84466552734375,-0.3012542724609375,0.0461578369140625
1700516696441951700,1.46795166015625,-1.038482666015625,-0.071258544921875,0.0231170654296875
1700516696451962000,1.477962158203125,-1.080108642578125,-0.080322265625,0.1052093505859375
1700516696461972200,1.48797216796875,-1.155792236328125,-0.1024932861328125,0.021575927734375
1700516696471982300,1.497982421875,-0.847564697265625,-0.1770172119140625,0.092376708984375
1700516696481992000,1.507991943359375,-0.7666778564453125,-0.2087860107421875,0.0086669921875
1700516696492002000,1.518001953125,-1.13214111328125,-0.1570587158203125,0.045166015625
1700516696502013200,1.52801318359375,-1.0953216552734375,0.09515380859375,0.0074310302734375
1700516696512023300,1.538023193359375,-0.9204559326171875,-0.2816009521484375,0.0721588134765625
1700516696522033200,1.548033203125,-0.893402099609375,-0.2451934814453125,0.0384979248046875
1700516696532043300,1.558043212890625,-1.0026092529296875,-0.0259552001953125,-0.0031280517578125
1700516696542054100,1.56805419921875,-1.1335906982421875,-0.1316986083984375,0.0865020751953125
1700516696552064300,1.578064208984375,-1.0862884521484375,-0.1037445068359375,0.0077972412109375
1700516696562074000,1.58807421875,-0.75982666015625,-0.160797119140625,0.0639801025390625
1700516696572084200,1.598084228515625,-0.8459320068359375,-0.2034454345703125,0.0088653564453125
1700516696582094000,1.608093994140625,-1.1601104736328125,-0.04547119140625,0.02728271484375
1700516696592105200,1.618105224609375,-1.0831146240234375,0.0688323974609375,-0.0009002685546875
1700516696602115000,1.628114990234375,-0.8315887451171875,-0.3526153564453125,0.099273681640625
1700516696612125200,1.638125244140625,-0.8771514892578125,-0.117462158203125,-0.012603759765625
1700516696622135000,1.648135009765625,-1.0957183837890625,-0.0210723876953125,0.03485107421875
1700516696632146200,1.658146240234375,-1.1820068359375,-0.145477294921875,0.0819549560546875
1700516696642156000,1.668156005859375,-1.00445556640625,-0.083160400390625,0.028594970703125
1700516696652166100,1.678166259765625,-0.6918487548828125,-0.191192626953125,0.0712432861328125
1700516696662176300,1.68817626953125,-1.0330810546875,-0.1635284423828125,-0.0151214599609375
1700516696672186000,1.69818603515625,-1.2296600341796875,0.0035247802734375,0.081329345703125
1700516696682197000,1.708197021484375,-1.0108795166015625,-0.0204925537109375,-0.0117034912109375
1700516696692207000,1.71820703125,-0.7616729736328125,-0.40179443359375,0.1152496337890625
1700516696702217200,1.72821728515625,-0.9854278564453125,-0.079833984375,-0.040496826171875
1700516696712227000,1.73822705078125,-1.1483306884765625,-0.0591278076171875,0.095184326171875
1700516696722238000,1.748238037109375,-1.1394195556640625,-0.1775970458984375,0.0280303955078125
1700516696732248000,1.758248046875,-0.8716583251953125,-0.09625244140625,0.0591583251953125
1700516696742258200,1.768258056640625,-0.715179443359375,-0.236419677734375,0.0322113037109375
1700516696752268000,1.77826806640625,-1.1429443359375,-0.1679840087890625,0.0047454833984375
1700516696762279000,1.78827880859375,-1.15472412109375,0.02587890625,0.0586700439453125
1700516696772289000,1.7982890625,-0.858062744140625,-0.13092041015625,0.0176544189453125
1700516696782299100,1.808299072265625,-0.804046630859375,-0.34912109375,0.077880859375
1700516696792309000,1.81830908203125,-1.1040496826171875,-0.0277252197265625,-0.00030517578125
1700516696802319000,1.828319091796875,-1.1084442138671875,-0.092010498046875,0.1023712158203125
1700516696812330000,1.838330078125,-1.0686492919921875,-0.1445465087890625,0.0265350341796875
1700516696822340000,1.848340087890625,-0.816131591796875,-0.1199188232421875,0.1046905517578125
1700516696832350000,1.858349853515625,-0.8348236083984375,-0.2254486083984375,0.0137939453125
1700516696842360000,1.868360107421875,-1.2281494140625,-0.091705322265625,0.0718231201171875
1700516696852371200,1.87837109375,-1.0799560546875,0.089630126953125,0.025299072265625
1700516696862381300,1.88838134765625,-0.817901611328125,-0.2867889404296875,0.08831787109375
1700516696872391200,1.89839111328125,-0.8931732177734375,-0.2278594970703125,0.025543212890625
1700516696882401300,1.9084013671875,-1.1393280029296875,-0.0271759033203125,0.06671142578125
1700516696892412200,1.918412109375,-1.1087493896484375,-0.0992889404296875,0.0958404541015625
1700516696902422300,1.92842236328125,-1.0412750244140625,-0.1184539794921875,0.000030517578125
1700516696912432000,1.93843212890625,-0.7119140625,-0.1704254150390625,0.0996551513671875
1700516696922442200,1.948442138671875,-0.9658355712890625,-0.19976806640625,-0.000701904296875
1700516696932453000,1.958453125,-1.2209625244140625,-0.0423736572265625,0.06744384765625
1700516696942463200,1.968463134765625,-1.0205841064453125,0.04302978515625,-0.0090179443359375
1700516696952473000,1.97847314453125,-0.7628936767578125,-0.327484130859375,0.106048583984375
1700516696962483200,1.988483154296875,-0.9523468017578125,-0.143157958984375,-0.0363922119140625
1700516696972494000,1.998494140625,-1.1237640380859375,-0.0347747802734375,0.09210205078125
1700516696982504200,2.008504150390625,-1.1313018798828125,-0.1019287109375,0.0483856201171875
1700516696992514000,2.01851416015625,-0.98681640625,-0.122833251953125,0.0234832763671875
1700516697002524200,2.028524169921875,-0.6820220947265625,-0.1841888427734375,0.0725250244140625
1700516697012535000,2.03853515625,-1.0464019775390625,-0.1962890625,-0.0061492919921875
1700516697022545200,2.048545166015625,-1.1901702880859375,0.001739501953125,0.0611419677734375
1700516697032555000,2.058554931640625,-0.9789276123046875,-0.0525970458984375,0.0207672119140625
1700516697042565000,2.068565185546875,-0.7984161376953125,-0.3465118408203125,0.0730438232421875
1700516697052576000,2.078575927734375,-1.0009307861328125,-0.11004638671875,-0.0166168212890625
1700516697062586000,2.088586181640625,-1.0925750732421875,-0.0649871826171875,0.1002960205078125
1700516697072596000,2.098595947265625,-1.1266632080078125,-0.1308441162109375,0.02593994140625
1700516697082606000,2.108606201171875,-0.9076385498046875,-0.1383819580078125,0.0637664794921875
1700516697092617000,2.118616943359375,-0.726104736328125,-0.2032318115234375,0.0394134521484375
1700516697102627000,2.128626953125,-1.14984130859375,-0.1414337158203125,0.038909912109375
1700516697112637000,2.138636962890625,-1.1327972412109375,0.0628662109375,0.03167724609375
1700516697122648300,2.1486484375,-0.8760223388671875,-0.183837890625,0.0783538818359375
1700516697132658200,2.158658203125,-0.827239990234375,-0.28680419921875,0.037109375
1700516697142668000,2.16866796875,-1.0586700439453125,-0.0595550537109375,0.030517578125
1700516697152678000,2.178677978515625,-1.11962890625,-0.052886962890625,0.0860595703125
1700516697162689300,2.188689208984375,-1.10321044921875,-0.1209564208984375,0.017608642578125
1700516697172699100,2.19869921875,-0.7347564697265625,-0.1664886474609375,0.0705718994140625
1700516697182709200,2.208709228515625,-0.890472412109375,-0.19659423828125,-0.0063018798828125
1700516697192719000,2.218718994140625,-1.2314910888671875,-0.0748138427734375,0.07012939453125
1700516697202730200,2.228730224609375,-1.0468597412109375,0.0622406005859375,-0.00830078125
1700516697212740000,2.238739990234375,-0.8000030517578125,-0.3061065673828125,0.08990478515625
1700516697222750200,2.248750244140625,-0.9358978271484375,-0.1819610595703125,-0.03662109375
1700516697232760000,2.258760009765625,-1.1138916015625,-0.04986572265625,0.087158203125
1700516697242771200,2.268771240234375,-1.1025543212890625,-0.1017913818359375,0.0378570556640625
1700516697252781000,2.278781005859375,-0.9863739013671875,-0.1312103271484375,0.0425567626953125
1700516697262791200,2.288791259765625,-0.714752197265625,-0.1929779052734375,0.0517578125
1700516697272802000,2.298802001953125,-1.0655364990234375,-0.1744384765625,0.00274658203125
1700516697282812200,2.308812255859375,-1.179290771484375,0.0070343017578125,0.080780029296875
1700516697292822000,2.318822021484375,-0.952484130859375,-0.0684051513671875,0.0140838623046875
1700516697302832000,2.32883203125,-0.791107177734375,-0.3429412841796875,0.089935302734375
1700516697312843000,2.338843017578125,-1.0478973388671875,-0.1059112548828125,0.000946044921875
1700516697322853000,2.34885302734375,-1.0934600830078125,-0.0352020263671875,0.1104278564453125
1700516697332863000,2.358863037109375,-1.102203369140625,-0.1451263427734375,0.0250244140625
1700516697342874000,2.3688740234375,-0.881591796875,-0.160614013671875,0.0943450927734375
1700516697352884000,2.378884033203125,-0.743865966796875,-0.1859283447265625,0.030303955078125
1700516697362894000,2.38889404296875,-1.1981658935546875,-0.17779541015625,0.0641326904296875
1700516697372904000,2.398904052734375,-1.1167144775390625,0.0787200927734375,0.043792724609375
1700516697382915000,2.4089150390625,-0.8444976806640625,-0.199066162109375,0.0806884765625
1700516697392925000,2.418925048828125,-0.841400146484375,-0.286346435546875,0.032440185546875
1700516697402935000,2.42893505859375,-1.129669189453125,-0.0717620849609375,0.0585479736328125
1700516697412946200,2.4389462890625,-1.0900421142578125,-0.0526123046875,0.0811309814453125
1700516697422956300,2.448956298828125,-1.08135986328125,-0.1461639404296875,0.01641845703125
1700516697432966100,2.458966064453125,-0.7595062255859375,-0.1392669677734375,0.0798797607421875
1700516697442976300,2.468976318359375,-0.9034576416015625,-0.2115631103515625,-0.003662109375
1700516697452987400,2.4789873046875,-1.2330322265625,-0.0963897705078125,0.0797882080078125
1700516697462997500,2.48899755859375,-1.0496826171875,0.05731201171875,-0.0110931396484375
1700516697473007400,2.49900732421875,-0.7822418212890625,-0.304046630859375,0.0876922607421875
1700516697483018800,2.509018798828125,-0.884979248046875,-0.2003326416015625,-0.0239715576171875
1700516697493028600,2.519028564453125,-1.1679534912109375,-0.0477294921875,0.0662689208984375
1700516697503038700,2.529038818359375,-1.098114013671875,-0.131744384765625,0.0385284423828125
1700516697513049600,2.539049560546875,-0.99603271484375,-0.1100311279296875,0.00909423828125
1700516697523059700,2.549059814453125,-0.704559326171875,-0.16693115234375,0.0587158203125
1700516697533069600,2.559069580078125,-0.990631103515625,-0.2239227294921875,0.0004119873046875
1700516697543079700,2.56907958984375,-1.2300567626953125,-0.058197021484375,0.0673828125
1700516697553090600,2.579090576171875,-1.01068115234375,0.022918701171875,-0.0083160400390625
1700516697563100700,2.5891005859375,-0.7689361572265625,-0.317626953125,0.096710205078125
1700516697573110500,2.599110595703125,-0.9282073974609375,-0.1482391357421875,-0.03375244140625
1700516697583121700,2.60912158203125,-1.169036865234375,-0.0767974853515625,0.1037445068359375
1700516697593131500,2.619131591796875,-1.110015869140625,-0.086151123046875,0.03802490234375
1700516697603141600,2.6291416015625,-0.9698486328125,-0.1197509765625,0.036865234375
1700516697613152500,2.639152587890625,-0.698699951171875,-0.166168212890625,0.0582427978515625
1700516697623162600,2.64916259765625,-1.0045013427734375,-0.2050018310546875,0.025848388671875
1700516697633172500,2.65917236328125,-1.232940673828125,-0.0377044677734375,0.0650482177734375
1700516697643183400,2.669183349609375,-1.0155029296875,0.04266357421875,0.0197296142578125
1700516697653193500,2.679193359375,-0.7909088134765625,-0.306396484375,0.09478759765625
1700516697663203600,2.68920361328125,-0.9383392333984375,-0.152862548828125,-0.006439208984375
1700516697673214500,2.69921435546875,-1.1178131103515625,-0.0771331787109375,0.091461181640625
1700516697683224300,2.709224365234375,-1.124298095703125,-0.09454345703125,0.047088623046875
1700516697693234400,2.719234375,-1.003204345703125,-0.0968780517578125,0.0280914306640625
1700516697703244500,2.72924462890625,-0.6984100341796875,-0.17047119140625,0.0656280517578125
1700516697713255700,2.739255615234375,-0.992919921875,-0.228240966796875,0.030548095703125
1700516697723265500,2.749265625,-1.18829345703125,-0.037017822265625,0.04559326171875
1700516697733275600,2.759275634765625,-1.03912353515625,0.0231781005859375,0.02490234375
1700516697743286500,2.76928662109375,-0.7865142822265625,-0.32598876953125,0.08392333984375
1700516697753296600,2.779296630859375,-0.9522552490234375,-0.14361572265625,-0.0096588134765625
1700516697763306500,2.789306396484375,-1.1107330322265625,-0.0709228515625,0.0799713134765625
1700516697773317600,2.799317626953125,-1.130859375,-0.148162841796875,0.0503082275390625
1700516697783327500,2.809327392578125,-0.9932708740234375,-0.073272705078125,0.0159759521484375
1700516697793337600,2.819337646484375,-0.6649169921875,-0.1700286865234375,0.0555267333984375
1700516697803348500,2.829348388671875,-1.0514373779296875,-0.230255126953125,0.0252685546875
1700516697813358600,2.839358642578125,-1.210235595703125,0.003631591796875,0.035247802734375
1700516697823368400,2.849368408203125,-1.0019073486328125,0.00103759765625,0.02740478515625
1700516697833379600,2.859379638671875,-0.7667236328125,-0.332977294921875,0.08154296875
1700516697843389400,2.869389404296875,-0.9789886474609375,-0.107391357421875,-0.020538330078125
1700516697853399600,2.879399658203125,-1.1406402587890625,-0.0743560791015625,0.0865020751953125
1700516697863410400,2.889410400390625,-1.131927490234375,-0.1341400146484375,0.0446319580078125
1700516697873420500,2.899420654296875,-0.95703125,-0.0597991943359375,0.01690673828125
1700516697883430400,2.909430419921875,-0.6707916259765625,-0.19183349609375,0.0674896240234375
1700516697893441500,2.919441650390625,-1.080047607421875,-0.2060546875,0.016448974609375
1700516697903451400,2.929451416015625,-1.2089996337890625,0.0107574462890625,0.041259765625
1700516697913461500,2.93946142578125,-0.9617919921875,-0.0278472900390625,0.0347137451171875
1700516697923472600,2.94947265625,-0.7687530517578125,-0.3409576416015625,0.0708160400390625
1700516697933482800,2.959482666015625,-1.00909423828125,-0.10430908203125,-0.0012359619140625
1700516697943492600,2.96949267578125,-1.1314544677734375,-0.0820770263671875,0.0785064697265625
1700516697953503500,2.97950341796875,-1.111602783203125,-0.1361541748046875,0.0440216064453125
1700516697963513600,2.989513671875,-0.9298095703125,-0.102081298828125,0.02801513671875
1700516697973523700,2.999523681640625,-0.6939697265625,-0.1836395263671875,0.05694580078125
1700516697983534600,3.00953466796875,-1.1013336181640625,-0.2073211669921875,0.02392578125
1700516697993544700,3.019544677734375,-1.173370361328125,-0.000091552734375,0.0343017578125
1700516698003554600,3.029554443359375,-0.949676513671875,-0.058319091796875,0.0418243408203125
1700516698013565400,3.0395654296875,-0.771392822265625,-0.31939697265625,0.0624847412109375
1700516698023575600,3.049575439453125,-1.0360870361328125,-0.117279052734375,0.0055389404296875
1700516698033586400,3.05958642578125,-1.1093902587890625,-0.083984375,0.087432861328125
1700516698043596500,3.069596435546875,-1.1164703369140625,-0.1347808837890625,0.0229034423828125
1700516698053606400,3.0796064453125,-0.927093505859375,-0.1070709228515625,0.048095703125
1700516698063617500,3.089617431640625,-0.6904754638671875,-0.179290771484375,0.043609619140625
1700516698073627400,3.09962744140625,-1.137908935546875,-0.1874542236328125,0.019073486328125
1700516698083637500,3.109637451171875,-1.1638336181640625,0.039703369140625,0.0345001220703125
1700516698093648400,3.1196484375,-0.93829345703125,-0.09039306640625,0.038238525390625
1700516698103658500,3.129658447265625,-0.7917633056640625,-0.2913055419921875,0.052642822265625
1700516698113668400,3.13966845703125,-1.0426177978515625,-0.0726165771484375,0.0109405517578125
1700516698123679700,3.1496796875,-1.1165618896484375,-0.077423095703125,0.0733642578125
1700516698133689600,3.159689697265625,-1.1311492919921875,-0.11590576171875,0.018218994140625
1700516698143699700,3.16969970703125,-0.8597869873046875,-0.0901947021484375,0.042388916015625
1700516698153710600,3.179710693359375,-0.73828125,-0.1982879638671875,0.04412841796875
1700516698163720700,3.189720703125,-1.1658172607421875,-0.149444580078125,0.02191162109375
1700516698173731600,3.199731689453125,-1.1485595703125,0.0745391845703125,0.0222625732421875
1700516698183741700,3.20974169921875,-0.9112548828125,-0.1534271240234375,0.0600128173828125
1700516698193751600,3.21975146484375,-0.8093719482421875,-0.273193359375,0.0384674072265625
1700516698203762400,3.229762451171875,-1.0655670166015625,-0.0761260986328125,0.0310821533203125
1700516698213772500,3.2397724609375,-1.1124267578125,-0.0791168212890625,0.0744476318359375
1700516698223782700,3.24978271484375,-1.133697509765625,-0.131103515625,0.01605224609375
1700516698233793500,3.25979345703125,-0.7885284423828125,-0.119537353515625,0.063690185546875
1700516698243803400,3.269803466796875,-0.7850341796875,-0.233734130859375,0.0479736328125
1700516698253814500,3.279814453125,-1.1766204833984375,-0.1302032470703125,0.0417022705078125
1700516698263824400,3.289824462890625,-1.1213226318359375,0.072509765625,0.0181732177734375
1700516698273834500,3.29983447265625,-0.8804168701171875,-0.2382659912109375,0.08447265625
1700516698283845400,3.309845458984375,-0.8423309326171875,-0.234222412109375,0.0210723876953125
1700516698293855500,3.31985546875,-1.06378173828125,-0.0722808837890625,0.05706787109375
1700516698303866600,3.32986669921875,-1.110382080078125,-0.0945892333984375,0.0821075439453125
1700516698313876700,3.339876708984375,-1.1169281005859375,-0.11968994140625,0.007568359375
1700516698323886600,3.349886474609375,-0.7113189697265625,-0.13714599609375,0.0779876708984375
1700516698333897500,3.3598974609375,-0.8855743408203125,-0.2256011962890625,0.029327392578125
1700516698343907600,3.369907470703125,-1.2017974853515625,-0.0609588623046875,0.0464019775390625
1700516698353917700,3.379917724609375,-1.0913543701171875,0.056243896484375,0.01239013671875
1700516698363928600,3.389928466796875,-0.8144378662109375,-0.3057098388671875,0.0961151123046875
1700516698373938700,3.399938720703125,-0.902557373046875,-0.1591949462890625,-0.017578125
1700516698383949600,3.409949462890625,-1.10382080078125,-0.0537109375,0.07110595703125
1700516698393959400,3.41995947265625,-1.13763427734375,-0.1070556640625,0.0604705810546875
1700516698403969500,3.429969482421875,-1.0260772705078125,-0.105743408203125,0.00115966796875
1700516698413980400,3.43998046875,-0.6734771728515625,-0.1634063720703125,0.0648345947265625
1700516698423990500,3.449990478515625,-1.02825927734375,-0.1988067626953125,0.00689697265625
1700516698434001400,3.46000146484375,-1.201263427734375,0.000091552734375,0.0396728515625
1700516698444011500,3.470011474609375,-1.0125579833984375,-0.0174407958984375,0.01971435546875
1700516698454022000,3.48002197265625,-0.7606658935546875,-0.3228759765625,0.077789306640625
1700516698464032800,3.49003271484375,-1.0011138916015625,-0.112823486328125,-0.020904541015625
1700516698474043000,3.50004296875,-1.1174468994140625,-0.0675048828125,0.080963134765625
1700516698484054000,3.510053955078125,-1.1275482177734375,-0.1140899658203125,0.030303955078125
1700516698494064000,3.520064208984375,-0.9116363525390625,-0.1291351318359375,0.030792236328125
1700516698504074000,3.530073974609375,-0.701629638671875,-0.18743896484375,0.0405120849609375
1700516698514085000,3.540085205078125,-1.1433868408203125,-0.1714019775390625,0.025390625
1700516698524095000,3.550094970703125,-1.1663818359375,0.0339508056640625,0.029998779296875
1700516698534106000,3.560106201171875,-0.9136810302734375,-0.1179351806640625,0.0429840087890625
1700516698544116000,3.570115966796875,-0.7785491943359375,-0.3004302978515625,0.05035400390625
1700516698554126000,3.5801259765625,-1.0949249267578125,-0.0959625244140625,0.014862060546875
1700516698564137000,3.590136962890625,-1.0939178466796875,-0.0561065673828125,0.07794189453125
1700516698574147000,3.60014697265625,-1.1106414794921875,-0.132904052734375,0.0197296142578125
1700516698584158000,3.610157958984375,-0.7954864501953125,-0.1434478759765625,0.05712890625
1700516698594168000,3.62016796875,-0.8022613525390625,-0.193511962890625,0.03399658203125
1700516698604178000,3.630177978515625,-1.209869384765625,-0.1489105224609375,0.0556793212890625
1700516698614188800,3.640188720703125,-1.11456298828125,0.0714111328125,0.0122528076171875
1700516698624199000,3.650198974609375,-0.832305908203125,-0.207611083984375,0.0791168212890625
1700516698634210000,3.6602099609375,-0.85308837890625,-0.247650146484375,0.015350341796875
1700516698644220200,3.67022021484375,-1.1445770263671875,-0.081085205078125,0.0628814697265625
1700516698654230000,3.68022998046875,-1.0824737548828125,-0.071136474609375,0.066619873046875
1700516698664241200,3.6902412109375,-1.0726776123046875,-0.1279296875,0.01544189453125
1700516698674251000,3.7002509765625,-0.7223663330078125,-0.1369476318359375,0.0625457763671875
1700516698684262100,3.71026220703125,-0.925323486328125,-0.20599365234375,0.0281982421875
1700516698694272000,3.72027197265625,-1.2294921875,-0.087677001953125,0.0552215576171875
1700516698704283000,3.730282958984375,-1.0430145263671875,0.0579986572265625,0.00732421875
1700516698714293000,3.74029296875,-0.7678680419921875,-0.2746124267578125,0.0786285400390625
1700516698724303000,3.75030322265625,-0.9293212890625,-0.1788787841796875,-0.010650634765625
1700516698734314000,3.76031396484375,-1.15582275390625,-0.0712890625,0.0778961181640625
1700516698744324000,3.770323974609375,-1.0840606689453125,-0.086761474609375,0.0454559326171875
1700516698754335000,3.7803349609375,-1.0127410888671875,-0.12493896484375,0.012237548828125
1700516698764344800,3.7903447265625,-0.6888885498046875,-0.1455535888671875,0.0510101318359375
1700516698774356000,3.80035595703125,-1.02618408203125,-0.2093505859375,0.02435302734375
1700516698784365800,3.81036572265625,-1.2075958251953125,-0.045013427734375,0.0511016845703125
1700516698794376000,3.8203759765625,-1.011627197265625,0.0172882080078125,0.0040130615234375
1700516698804387000,3.830386962890625,-0.754425048828125,-0.3090057373046875,0.0809783935546875
1700516698814397200,3.840397216796875,-0.9940338134765625,-0.143707275390625,-0.015838623046875
1700516698824408000,3.850407958984375,-1.1407318115234375,-0.0749969482421875,0.0854949951171875
1700516698834418200,3.860418212890625,-1.099029541015625,-0.1061553955078125,0.0410919189453125
1700516698844429000,3.870428955078125,-0.964202880859375,-0.1291351318359375,0.0218505859375
1700516698854439000,3.88043896484375,-0.6718292236328125,-0.1591644287109375,0.049407958984375
1700516698864449000,3.890448974609375,-1.1126861572265625,-0.2044219970703125,0.033294677734375
1700516698874460000,3.9004599609375,-1.18585205078125,-0.002960205078125,0.04437255859375
1700516698884470000,3.910469970703125,-0.9459686279296875,-0.03460693359375,0.0252838134765625
1700516698894481000,3.92048095703125,-0.7591094970703125,-0.318084716796875,0.07391357421875
1700516698904491000,3.930490966796875,-1.0678558349609375,-0.111358642578125,0.00531005859375
1700516698914502000,3.940501953125,-1.1089324951171875,-0.0614776611328125,0.0847930908203125
1700516698924512000,3.950511962890625,-1.1068572998046875,-0.125335693359375,0.0361175537109375
1700516698934523100,3.960523193359375,-0.8781585693359375,-0.1210174560546875,0.0347900390625
1700516698944533000,3.970532958984375,-0.7086639404296875,-0.1847381591796875,0.0472869873046875
1700516698954544000,3.980544189453125,-1.1990203857421875,-0.1706085205078125,0.0355682373046875
1700516698964554000,3.990553955078125,-1.1436004638671875,0.061187744140625,0.029052734375
1700516698974564000,4.000564208984375,-0.8778839111328125,-0.1399688720703125,0.04962158203125
1700516698984575000,4.010574951171875,-0.80499267578125,-0.294830322265625,0.0410919189453125
1700516698994585000,4.020585205078125,-1.1244354248046875,-0.0798187255859375,0.02642822265625
1700516699004596000,4.030595947265625,-1.09637451171875,-0.0607452392578125,0.072479248046875
1700516699014606000,4.040606201171875,-1.095123291015625,-0.1300811767578125,0.0179595947265625
1700516699024617000,4.050616943359375,-0.7698516845703125,-0.1426239013671875,0.0479278564453125
1700516699034627000,4.060626953125,-0.8336944580078125,-0.1980133056640625,0.02734375
1700516699044638000,4.070637939453125,-1.2231903076171875,-0.1248626708984375,0.058013916015625
1700516699054647800,4.080647705078125,-1.08453369140625,0.0709075927734375,0.0012969970703125
1700516699064658000,4.090657958984375,-0.80694580078125,-0.2408599853515625,0.08087158203125
1700516699074668800,4.100668701171875,-0.886260986328125,-0.230926513671875,0.0004119873046875
1700516699084679000,4.110678955078125,-1.149627685546875,-0.0738677978515625,0.065765380859375
1700516699094690000,4.12068994140625,-1.0793609619140625,-0.0721588134765625,0.059722900390625
1700516699104700200,4.1307001953125,-1.0520782470703125,-0.136749267578125,0.0129547119140625
1700516699114711000,4.1407109375,-0.7085418701171875,-0.1534881591796875,0.058380126953125
1700516699124721200,4.15072119140625,-0.9669036865234375,-0.2010498046875,0.0167083740234375
1700516699134732000,4.16073193359375,-1.216827392578125,-0.0684967041015625,0.0688934326171875
1700516699144742000,4.170741943359375,-1.0247955322265625,0.0345916748046875,-0.0016021728515625
1700516699154753000,4.1807529296875,-0.762664794921875,-0.2994537353515625,0.0892486572265625
1700516699164763000,4.190762939453125,-0.9802093505859375,-0.1628570556640625,-0.0156707763671875
1700516699174774000,4.20077392578125,-1.1373138427734375,-0.069427490234375,0.09075927734375
1700516699184784000,4.210783935546875,-1.079132080078125,-0.0974578857421875,0.0449676513671875
1700516699194795000,4.220794921875,-0.9787750244140625,-0.128173828125,0.024871826171875
1700516699204804900,4.230804931640625,-0.6935272216796875,-0.1615142822265625,0.0488433837890625
1700516699214815000,4.24081494140625,-1.091949462890625,-0.1927642822265625,0.025665283203125
1700516699224826000,4.250826171875,-1.189056396484375,-0.0072174072265625,0.0525054931640625
1700516699234836200,4.260836181640625,-0.9487762451171875,-0.0312957763671875,0.0159149169921875
1700516699244847000,4.27084716796875,-0.760223388671875,-0.3204193115234375,0.074310302734375
1700516699254857000,4.28085693359375,-1.071868896484375,-0.11260986328125,-0.0061492919921875
1700516699264868000,4.2908681640625,-1.12164306640625,-0.067657470703125,0.087554931640625
1700516699274878000,4.3008779296875,-1.0825347900390625,-0.1197052001953125,0.03277587890625
1700516699284889000,4.31088916015625,-0.889892578125,-0.1341552734375,0.037078857421875
1700516699294899000,4.32089892578125,-0.737762451171875,-0.17669677734375,0.0368499755859375
1700516699304909800,4.330909912109375,-1.17364501953125,-0.179595947265625,0.0362396240234375
1700516699314920000,4.340919921875,-1.144378662109375,0.0365142822265625,0.0340423583984375
1700516699324930800,4.350930908203125,-0.8857269287109375,-0.1170196533203125,0.044097900390625
1700516699334941000,4.36094091796875,-0.7880096435546875,-0.3020477294921875,0.0439300537109375
1700516699344952000,4.3709521484375,-1.1272735595703125,-0.089508056640625,0.0219879150390625
1700516699354962200,4.380962158203125,-1.0982208251953125,-0.0687713623046875,0.074493408203125
1700516699364973000,4.39097314453125,-1.0705413818359375,-0.131988525390625,0.0248870849609375
1700516699374983200,4.400983154296875,-0.813323974609375,-0.134429931640625,0.0453338623046875
1700516699384994000,4.410994140625,-0.8109130859375,-0.184539794921875,0.0312042236328125
1700516699395004200,4.421004150390625,-1.203826904296875,-0.1649932861328125,0.052490234375
1700516699405015000,4.43101513671875,-1.1079254150390625,0.0624847412109375,0.01171875
1700516699415025000,4.44102490234375,-0.8403778076171875,-0.1730194091796875,0.0669097900390625
1700516699425036000,4.4510361328125,-0.829315185546875,-0.26324462890625,0.022003173828125
1700516699435046000,4.4610458984375,-1.16058349609375,-0.09014892578125,0.047393798828125
1700516699445057000,4.47105712890625,-1.076568603515625,-0.0643463134765625,0.05963134765625
1700516699455066400,4.48106640625,-1.0728302001953125,-0.1378173828125,0.0272674560546875
1700516699465077500,4.491077392578125,-0.77215576171875,-0.1201019287109375,0.050445556640625
1700516699475087400,4.50108740234375,-0.8501434326171875,-0.208465576171875,0.031463623046875
1700516699485098500,4.511098388671875,-1.2306671142578125,-0.1343994140625,0.050018310546875
1700516699495108600,4.521108642578125,-1.070098876953125,0.0829010009765625,0.0080718994140625
1700516699505119500,4.531119384765625,-0.817962646484375,-0.2278594970703125,0.0751495361328125
1700516699515129600,4.541129638671875,-0.880157470703125,-0.24224853515625,0.0149688720703125
1700516699525140500,4.551140380859375,-1.1478271484375,-0.0779876708984375,0.05902099609375
1700516699535150600,4.561150634765625,-1.08099365234375,-0.084564208984375,0.0594482421875
1700516699545161500,4.571161376953125,-1.07305908203125,-0.128753662109375,0.019805908203125
1700516699555171600,4.581171630859375,-0.7486419677734375,-0.117828369140625,0.0534515380859375
1700516699565182500,4.591182373046875,-0.8914337158203125,-0.227081298828125,0.0295867919921875
1700516699575192600,4.601192626953125,-1.20819091796875,-0.1009063720703125,0.046600341796875
1700516699585203500,4.611203369140625,-1.0608367919921875,0.0742034912109375,0.004547119140625
1700516699595213300,4.62121337890625,-0.8253021240234375,-0.27545166015625,0.0757598876953125
1700516699605224700,4.631224609375,-0.8934326171875,-0.20355224609375,0.00433349609375
1700516699615234600,4.641234619140625,-1.11297607421875,-0.0765380859375,0.0638885498046875
1700516699625245700,4.65124560546875,-1.0931854248046875,-0.1013946533203125,0.0585784912109375
1700516699635255600,4.661255615234375,-1.0752716064453125,-0.1021575927734375,0.0059661865234375
1700516699645266400,4.671266357421875,-0.7127685546875,-0.1356201171875,0.062744140625
1700516699655276500,4.681276611328125,-0.9189453125,-0.2320098876953125,0.024444580078125
1700516699665287400,4.691287353515625,-1.1841583251953125,-0.0717010498046875,0.045989990234375
1700516699675297500,4.701297607421875,-1.053497314453125,0.0872344970703125,0.00592041015625
1700516699685308400,4.711308349609375,-0.8637237548828125,-0.33258056640625,0.086456298828125
1700516699695318500,4.721318603515625,-0.932769775390625,-0.1573333740234375,-0.012298583984375
1700516699705329400,4.731329345703125,-1.0498199462890625,-0.0900115966796875,0.074493408203125
1700516699715339500,4.741339599609375,-1.1090850830078125,-0.077484130859375,0.05706787109375
1700516699725350700,4.7513505859375,-1.08935546875,-0.12908935546875,0.015777587890625
1700516699735361500,4.761361572265625,-0.7217559814453125,-0.1553802490234375,0.0693206787109375
1700516699745371600,4.77137158203125,-0.9445953369140625,-0.2165985107421875,0.01806640625
1700516699755382500,4.781382568359375,-1.126220703125,-0.027496337890625,0.0358734130859375
1700516699765392600,4.791392578125,-1.035308837890625,0.0107879638671875,0.0243072509765625
1700516699775403500,4.801403564453125,-0.897735595703125,-0.3511505126953125,0.0867462158203125
1700516699785413400,4.811413330078125,-0.9546051025390625,-0.111480712890625,-0.0198516845703125
1700516699795424500,4.821424560546875,-1.0092926025390625,-0.078216552734375,0.076873779296875
1700516699805434400,4.831434326171875,-1.1243896484375,-0.1045684814453125,0.040863037109375
1700516699815445500,4.841445556640625,-1.0002899169921875,-0.1556396484375,0.0225372314453125
1700516699825455400,4.851455322265625,-0.7445831298828125,-0.1603546142578125,0.064056396484375
1700516699835466500,4.861466552734375,-1.0172119140625,-0.1911163330078125,0.0156097412109375
1700516699845476400,4.871476318359375,-1.1247711181640625,0.0596923828125,0.0333404541015625
1700516699855487500,4.881487548828125,-1.0146331787109375,-0.14739990234375,0.037750244140625
1700516699865497600,4.89149755859375,-0.861358642578125,-0.3134307861328125,0.072784423828125
1700516699875508500,4.901508544921875,-0.9717864990234375,-0.0360870361328125,-0.00885009765625
1700516699885518600,4.9115185546875,-1.0986480712890625,-0.09478759765625,0.09222412109375
1700516699895529500,4.921529541015625,-1.1458587646484375,-0.1087493896484375,0.0149383544921875
1700516699905540400,4.931540283203125,-0.87347412109375,-0.124359130859375,0.064422607421875
1700516699915550500,4.941550537109375,-0.7661895751953125,-0.225738525390625,0.032867431640625
1700516699925561300,4.951561279296875,-1.1309967041015625,-0.082977294921875,0.0311279296875
1700516699935571500,4.961571533203125,-1.1472320556640625,0.06463623046875,-0.0009918212890625
1700516699945582300,4.971582275390625,-0.920257568359375,-0.27374267578125,0.0712432861328125
1700516699955592400,4.981592529296875,-0.8228607177734375,-0.203216552734375,0.0018157958984375
1700516699965603600,4.991603515625,-1.0657501220703125,-0.03271484375,0.0360260009765625
1700516699975613700,5.00161376953125,-1.1355743408203125,-0.12750244140625,0.0653228759765625
1700516699985624600,5.01162451171875,-1.089324951171875,-0.074127197265625,-0.004913330078125
1700516699995634400,5.021634521484375,-0.7091522216796875,-0.182708740234375,0.07330322265625
1700516700005645600,5.0316455078125,-0.89984130859375,-0.2048797607421875,0.005950927734375
1700516700015656400,5.041656494140625,-1.20355224609375,-0.0378265380859375,0.065521240234375
1700516700025666600,5.05166650390625,-1.0883941650390625,0.03857421875,-0.01580810546875
1700516700035677400,5.061677490234375,-0.794708251953125,-0.375,0.11468505859375
1700516700045687600,5.0716875,-0.904083251953125,-0.11468505859375,-0.0306396484375
1700516700055698400,5.081698486328125,-1.1256866455078125,-0.06072998046875,0.087738037109375
1700516700065708300,5.091708251953125,-1.1400146484375,-0.129241943359375,0.046600341796875
1700516700075719700,5.1017197265625,-0.9933624267578125,-0.134796142578125,0.0236358642578125
1700516700085729500,5.1117294921875,-0.6689453125,-0.16357421875,0.0548553466796875
1700516700095740700,5.12174072265625,-1.0731964111328125,-0.2089385986328125,0.016937255859375
1700516700105751600,5.13175146484375,-1.1891326904296875,0.0079498291015625,0.04937744140625
1700516700115761400,5.141761474609375,-0.9758758544921875,-0.04998779296875,0.019866943359375
1700516700125772500,5.1517724609375,-0.766754150390625,-0.3536834716796875,0.08349609375
1700516700135782400,5.161782470703125,-1.02801513671875,-0.083770751953125,-0.0108489990234375
1700516700145793500,5.17179345703125,-1.1269989013671875,-0.042755126953125,0.0936737060546875
1700516700155803400,5.181803466796875,-1.1183013916015625,-0.156951904296875,0.027435302734375
1700516700165814300,5.191814208984375,-0.8517913818359375,-0.1112060546875,0.0528564453125
1700516700175824400,5.201824462890625,-0.74444580078125,-0.1953125,0.0359039306640625
1700516700185835500,5.21183544921875,-1.17626953125,-0.16448974609375,0.04022216796875
1700516700195846700,5.2218466796875,-1.1484832763671875,0.08905029296875,0.016937255859375
1700516700205856500,5.2318564453125,-0.8876190185546875,-0.2002716064453125,0.0589599609375
1700516700215867400,5.241867431640625,-0.780548095703125,-0.2777557373046875,0.033538818359375
1700516700225877500,5.25187744140625,-1.1053466796875,-0.0763092041015625,0.021942138671875
1700516700235888400,5.261888427734375,-1.126861572265625,-0.063201904296875,0.063140869140625
1700516700245898500,5.2718984375,-1.1075897216796875,-0.13671875,0.013092041015625
1700516700255909400,5.281909423828125,-0.7573394775390625,-0.1185455322265625,0.0491180419921875
1700516700265920500,5.29192041015625,-0.8283233642578125,-0.2166748046875,0.027679443359375
1700516700275930400,5.301930419921875,-1.240386962890625,-0.1416778564453125,0.0500335693359375
1700516700285941500,5.31194140625,-1.079833984375,0.1191864013671875,-0.00433349609375
1700516700295951600,5.32195166015625,-0.8270263671875,-0.3035430908203125,0.0877227783203125
1700516700305962500,5.33196240234375,-0.86712646484375,-0.2124786376953125,0.000244140625
1700516700315972600,5.34197265625,-1.1319580078125,-0.076080322265625,0.05975341796875
1700516700325983500,5.3519833984375,-1.0949554443359375,-0.10455322265625,0.054595947265625
1700516700335994400,5.361994384765625,-1.0539703369140625,-0.1272430419921875,0.0142669677734375
1700516700346004500,5.37200439453125,-0.70330810546875,-0.1426849365234375,0.0524444580078125
1700516700356015400,5.382015380859375,-0.933807373046875,-0.23150634765625,0.015777587890625
1700516700366025500,5.392025390625,-1.2141571044921875,-0.0637664794921875,0.0546112060546875
1700516700376036400,5.402036376953125,-1.0598297119140625,0.04742431640625,-0.01361083984375
1700516700386047500,5.412047607421875,-0.77630615234375,-0.342254638671875,0.0942230224609375
1700516700396057600,5.4220576171875,-0.901824951171875,-0.12744140625,-0.0215301513671875
1700516700406068500,5.432068359375,-1.179412841796875,-0.0617218017578125,0.0799407958984375
1700516700416078600,5.44207861328125,-1.1232452392578125,-0.1466064453125,0.0471649169921875
1700516700426089500,5.45208935546875,-0.9803924560546875,-0.075469970703125,0.0072174072265625
1700516700436099600,5.462099609375,-0.6812591552734375,-0.192230224609375,0.0766448974609375
1700516700446110500,5.4721103515625,-1.0054931640625,-0.2089080810546875,0.028778076171875
1700516700456122400,5.482122314453125,-1.2114410400390625,-0.065521240234375,0.0689849853515625
1700516700466132500,5.492132568359375,-0.976165771484375,-0.011322021484375,-0.0005645751953125
1700516700476143600,5.5021435546875,-0.7498779296875,-0.3574676513671875,0.071044921875
1700516700486153700,5.51215380859375,-0.9708251953125,-0.13421630859375,-0.009674072265625
1700516700496164600,5.52216455078125,-1.1009368896484375,-0.078094482421875,0.0561370849609375
1700516700506175500,5.532175537109375,-1.1392974853515625,-0.306060791015625,0.07635498046875
1700516700516185600,5.542185546875,-1.0149993896484375,-0.0167236328125,0.074554443359375
1700516700526196500,5.552196533203125,-0.6486663818359375,-0.3558502197265625,0.077789306640625
1700516700536206600,5.56220654296875,-1.170440673828125,-0.1081695556640625,0.0419158935546875
1700516700546217500,5.572217529296875,-1.1995697021484375,-0.013885498046875,0.051483154296875
1700516700556228400,5.582228271484375,-0.9448089599609375,-0.059112548828125,-0.0147247314453125
1700516700566238500,5.592238525390625,-0.8030548095703125,-0.3423004150390625,0.0999755859375
1700516700576249600,5.60224951171875,-1.0536651611328125,-0.120208740234375,-0.002197265625
1700516700586259700,5.612259765625,-1.0619049072265625,-0.0838165283203125,-0.0115509033203125
1700516700596270600,5.6222705078125,-1.0946197509765625,-0.1507415771484375,0.137451171875
1700516700606280400,5.632280517578125,-1.120574951171875,-0.0652313232421875,0.0041351318359375
1700516700616291600,5.64229150390625,-0.6496734619140625,-0.0005645751953125,-0.10162353515625
1700516700626302500,5.652302490234375,-0.95440673828125,-0.3716278076171875,0.1772918701171875
1700516700636312600,5.6623125,-1.127044677734375,0.0259246826171875,0.03240966796875
1700516700646323500,5.672323486328125,-1.0108184814453125,0.1385040283203125,-0.106719970703125
1700516700656333600,5.68233349609375,-0.9287261962890625,-0.34503173828125,0.1481170654296875
1700516700666344400,5.692344482421875,-0.893646240234375,-0.08349609375,0.0156402587890625
1700516700676355600,5.70235546875,-0.9312591552734375,-0.1391143798828125,-0.001861572265625
1700516700686365700,5.71236572265625,-1.1303253173828125,-0.194366455078125,0.1479339599609375
1700516700696376600,5.72237646484375,-1.261688232421875,0.10015869140625,-0.09442138671875
1700516700706387500,5.732387451171875,-0.5046844482421875,-0.0553741455078125,-0.062713623046875
1700516700716397600,5.7423974609375,-1.2010040283203125,-0.581695556640625,0.2753448486328125
1700516700726408400,5.752408447265625,-1.1464385986328125,0.35931396484375,0.069793701171875
1700516700736418600,5.76241845703125,-0.8244781494140625,-0.3731231689453125,-0.04937744140625
1700516700746429400,5.772429443359375,-1.054534912109375,-0.50726318359375,0.1043701171875
1700516700756440300,5.7824404296875,-1.135223388671875,-0.0103759765625,0.0046234130859375
1700516700766450400,5.792450439453125,-1.07489013671875,0.0829620361328125,-0.0504150390625
1700516700776461600,5.802461669921875,-0.5471649169921875,0.034332275390625,-0.0107269287109375
1700516700786471700,5.8124716796875,-1.1124725341796875,-0.8743896484375,0.118499755859375
1700516700796482600,5.822482666015625,-1.160797119140625,0.16552734375,0.004852294921875
1700516700806493400,5.832493408203125,-0.823089599609375,-0.1576385498046875,-0.0572052001953125
1700516700816503600,5.842503662109375,-1.21044921875,-0.731719970703125,0.0298004150390625
1700516700826514400,5.852514404296875,-1.2579345703125,-0.0263671875,-0.019287109375
1700516700836524500,5.862524658203125,-0.5345306396484375,0.29791259765625,-0.0464019775390625
1700516700846535400,5.872535400390625,-0.969512939453125,-0.702239990234375,0.123260498046875
1700516700856546300,5.88254638671875,-1.03216552734375,-0.2936248779296875,0.117401123046875
1700516700866556400,5.892556396484375,-0.8486785888671875,-0.2205657958984375,0.000946044921875
1700516700876567600,5.902567626953125,-1.2120208740234375,-0.613037109375,0.095245361328125
1700516700886578400,5.912578369140625,-1.408355712890625,-0.1742706298828125,-0.001068115234375
1700516700896588500,5.922588623046875,-0.619659423828125,-0.38311767578125,0.0508575439453125
1700516700906599400,5.932599365234375,-0.9665985107421875,-0.5240325927734375,0.1234893798828125
1700516700916609500,5.942609619140625,-0.979156494140625,-0.596343994140625,0.0756378173828125
1700516700926620400,5.952620361328125,-0.884490966796875,-0.567840576171875,-0.00811767578125
1700516700936631600,5.962631591796875,-0.9686126708984375,0.1524505615234375,0.120849609375
1700516700946641400,5.972641357421875,-0.823638916015625,-0.5471954345703125,0.0373382568359375
1700516700956652300,5.98265234375,-1.11822509765625,-0.686309814453125,-0.0116424560546875
1700516700966663700,5.99266357421875,-0.9775543212890625,-0.0772552490234375,0.10552978515625
1700516700976673500,6.002673583984375,-1.0130462646484375,-0.9678192138671875,-0.0105438232421875
1700516700986684700,6.0126845703125,-1.1956939697265625,-0.225433349609375,-0.0179901123046875
1700516700996694500,6.022694580078125,-0.34027099609375,-0.0100250244140625,0.0752410888671875
1700516701006705400,6.032705322265625,-1.3119964599609375,-0.72540283203125,0.001220703125
1700516701016716500,6.042716552734375,-0.8538970947265625,-0.309783935546875,0.1063385009765625
1700516701026726400,6.052726318359375,-0.874114990234375,-0.7211761474609375,-0.0817108154296875
1700516701036737500,6.062737548828125,-1.467529296875,-0.4019012451171875,-0.0086822509765625
1700516701046748400,6.07274853515625,-0.5207061767578125,-0.222412109375,0.0761566162109375
1700516701056758500,6.082758544921875,-1.2991180419921875,-0.9289398193359375,-0.042510986328125
1700516701066769700,6.092769775390625,-0.9109039306640625,-0.5055084228515625,0.064849853515625
1700516701076780500,6.102780517578125,-0.96728515625,-0.8043975830078125,0.034332275390625
1700516701086790700,6.112790771484375,-0.8760833740234375,-0.2519073486328125,-0.015594482421875
1700516701096801500,6.122801513671875,-0.7012481689453125,-0.4326171875,0.090362548828125
1700516701106811600,6.132811767578125,-1.121490478515625,-0.7488555908203125,0.0437164306640625
1700516701116822500,6.142822509765625,-0.7646636962890625,-0.5032958984375,0.1139678955078125
1700516701126833400,6.15283349609375,-1.2544708251953125,-1.0886993408203125,0.024627685546875
1700516701136843500,6.162843505859375,-0.9310455322265625,-0.195556640625,0.0025634765625
1700516701146854400,6.1728544921875,-0.875732421875,-0.563751220703125,0.086212158203125
1700516701156865500,6.182865478515625,-0.76007080078125,-0.5498504638671875,0.03314208984375
1700516701166875600,6.192875732421875,-0.624359130859375,-0.6179351806640625,0.0457000732421875
1700516701176886500,6.202886474609375,-1.4901885986328125,-0.9019622802734375,-0.01373291015625
1700516701186897400,6.2128974609375,-0.6872100830078125,-0.4198760986328125,0.02020263671875
1700516701196907500,6.222907470703125,-1.3368377685546875,-0.9491729736328125,0.051666259765625
1700516701206918400,6.23291845703125,-0.92401123046875,-0.5213775634765625,0.068084716796875
1700516701216928500,6.242928466796875,-0.5574493408203125,-0.4584808349609375,-0.02215576171875
1700516701226939400,6.252939453125,-0.5557098388671875,-0.1877593994140625,-0.0171356201171875
1700516701236950300,6.2629501953125,-0.2098846435546875,-0.2476348876953125,0.0854034423828125
1700516701246960400,6.27296044921875,-1.53411865234375,-0.6378631591796875,0.1248626708984375
1700516701256971500,6.282971435546875,-1.0937347412109375,-0.6717529296875,0.139923095703125
1700516701266982700,6.292982666015625,-1.503631591796875,-0.7781829833984375,-0.051483154296875
1700516701276992500,6.302992431640625,-1.084625244140625,-0.5169677734375,-0.0638275146484375
1700516701287003400,6.31300341796875,-0.7375640869140625,-0.8024444580078125,0.072235107421875
1700516701297014500,6.3230146484375,-0.9403076171875,-0.90716552734375,-0.051483154296875
1700516701307024400,6.3330244140625,-0.5854034423828125,-0.7102813720703125,0.0647430419921875
1700516701317035500,6.343035400390625,-0.9144287109375,-0.38116455078125,0.0054168701171875
1700516701327046400,6.35304638671875,-0.5716400146484375,-0.228546142578125,0.119659423828125
1700516701337056500,6.363056396484375,-0.9360198974609375,-0.62310791015625,0.0467376708984375
1700516701347067600,6.373067626953125,-0.9261474609375,-0.549835205078125,0.0956573486328125
1700516701357078500,6.38307861328125,-1.34222412109375,-0.9402313232421875,0.06011962890625
1700516701367088600,6.393088623046875,-1.1476287841796875,-0.4633331298828125,-0.0777587890625
1700516701377099500,6.403099609375,-0.8434906005859375,-0.7222137451171875,0.2158203125
1700516701387109600,6.413109619140625,-0.8168792724609375,-0.5147552490234375,-0.002105712890625
1700516701397120500,6.42312060546875,-0.62908935546875,-0.6626739501953125,0.1168212890625
1700516701407131400,6.43313134765625,-0.9925689697265625,-0.6493988037109375,0.0123748779296875
1700516701417141500,6.4431416015625,-0.7353363037109375,-0.30816650390625,0.1237335205078125
1700516701427152400,6.45315234375,-1.1624298095703125,-0.9170379638671875,0.05377197265625
1700516701437163500,6.46316357421875,-0.9208984375,-0.3951416015625,0.0847625732421875
1700516701447173600,6.473173583984375,-0.82421875,-0.76312255859375,0.11175537109375
1700516701457184000,6.48318408203125,-0.7983856201171875,-0.346405029296875,-0.081695556640625
1700516701467195100,6.493195068359375,-0.49456787109375,-0.31884765625,0.0928955078125
1700516701477205000,6.503205078125,-1.2418975830078125,-0.7972869873046875,0.0391845703125
1700516701487215900,6.5132158203125,-0.980377197265625,-0.680450439453125,0.1295928955078125
1700516701497227000,6.52322705078125,-1.1970062255859375,-0.4272003173828125,0.050933837890625
1700516701507236900,6.53323681640625,-0.6314697265625,-0.2240753173828125,-0.057952880859375
1700516701517248000,6.543248046875,-0.8618927001953125,-0.8402862548828125,0.0827789306640625
1700516701527259100,6.553259033203125,-0.9340057373046875,-0.675018310546875,-0.0473785400390625
1700516701537269000,6.56326904296875,-0.9119415283203125,-0.4533843994140625,0.153167724609375
1700516701547280100,6.573280029296875,-1.0074615478515625,-0.37835693359375,0.0257720947265625
1700516701557291000,6.583291015625,-1.013671875,-0.7491607666015625,0.28228759765625
1700516701567301000,6.593301025390625,-1.1358489990234375,-0.2745361328125,-0.0151519775390625
1700516701577312000,6.60331201171875,-1.095245361328125,-0.516571044921875,0.28240966796875
1700516701587323000,6.613322998046875,-1.27484130859375,-0.4765167236328125,-0.05377197265625
1700516701597333000,6.6233330078125,-0.8842010498046875,-0.48468017578125,0.0426025390625
1700516701607343900,6.63334375,-0.737518310546875,-0.5136871337890625,-0.168304443359375
1700516701617355000,6.64335498046875,-1.217620849609375,-0.5721588134765625,-0.127227783203125
1700516701627365000,6.653365234375,-0.8857269287109375,-0.54833984375,-0.060302734375
1700516701637376000,6.6633759765625,-0.754852294921875,-0.37347412109375,-0.0726470947265625
1700516701647387100,6.67338720703125,-0.6096038818359375,-0.6007843017578125,0.0227203369140625
1700516701657397000,6.68339697265625,-1.14532470703125,-0.389404296875,-0.012451171875
1700516701667408000,6.693407958984375,-0.8810577392578125,-0.525909423828125,0.1905364990234375
1700516701677419000,6.7034189453125,-0.7070159912109375,-0.0478363037109375,0.0556488037109375
1700516701687428900,6.713428955078125,-0.7116241455078125,-0.5804595947265625,0.102325439453125
1700516701697440000,6.72343994140625,-1.125518798828125,-0.6306915283203125,0.1513824462890625
1700516701707451100,6.733451171875,-0.7216949462890625,-0.5218048095703125,0.0680389404296875
1700516701717461000,6.7434609375,-1.0575408935546875,-0.0758056640625,-0.026214599609375
1700516701727472000,6.75347216796875,-0.997406005859375,-0.6071929931640625,0.0694427490234375
1700516701737483000,6.76348291015625,-1.3232879638671875,-0.4608917236328125,-0.034637451171875
1700516701747494000,6.773493896484375,-1.203857421875,-0.5308990478515625,0.0346221923828125
1700516701757504000,6.78350390625,-0.96990966796875,-0.0517730712890625,0.0055084228515625
1700516701767515000,6.793514892578125,-0.8080596923828125,-0.829925537109375,0.0631561279296875
1700516701777526000,6.803526123046875,-1.136993408203125,-0.335052490234375,-0.1896514892578125
1700516701787536000,6.813535888671875,-1.0814971923828125,-0.4395599365234375,0.16400146484375
1700516701797547000,6.823547119140625,-0.988250732421875,-0.115264892578125,0.0236358642578125
1700516701807558100,6.83355810546875,-0.738311767578125,-0.8379669189453125,0.1833648681640625
1700516701817568000,6.843568115234375,-0.92486572265625,-0.3452301025390625,-0.1170806884765625
1700516701827579100,6.8535791015625,-0.8055419921875,-0.422515869140625,0.1675872802734375
1700516701837590000,6.863590087890625,-0.857696533203125,-0.043975830078125,-0.0114593505859375
1700516701847599900,6.873599853515625,-0.688262939453125,-0.732025146484375,0.1570892333984375
1700516701857611000,6.883611083984375,-0.90911865234375,-0.4478759765625,-0.1031341552734375
1700516701867622000,6.893621826171875,-1.0069580078125,-0.2894287109375,0.1895599365234375
1700516701877632000,6.903632080078125,-0.726165771484375,0.090118408203125,-0.00543212890625
1700516701887643100,6.91364306640625,-1.0930023193359375,-0.8989715576171875,0.0799560546875
1700516701897654000,6.923654052734375,-0.9155426025390625,-0.5348052978515625,0.000274658203125
1700516701907664100,6.9336640625,-1.2144775390625,-0.31585693359375,0.1224212646484375
1700516701917675000,6.943675048828125,-0.8502197265625,-0.2108612060546875,0.014984130859375
1700516701927686000,6.953685791015625,-0.73699951171875,-0.6887664794921875,0.087493896484375
1700516701937697000,6.963697021484375,-1.1846466064453125,-0.6753082275390625,-0.0279541015625
1700516701947707000,6.973706787109375,-0.837127685546875,0.038848876953125,0.16448974609375
1700516701957718000,6.983718017578125,-0.81787109375,-0.6568450927734375,0.1607513427734375
1700516701967729200,6.993729248046875,-1.025390625,-0.4749755859375,-0.0511474609375
1700516701977739000,7.003739013671875,-1.1370086669921875,-0.4754638671875,0.133758544921875
1700516701987750100,7.013750244140625,-0.793212890625,-0.0236663818359375,0.0462646484375
1700516701997761000,7.023760986328125,-0.6795806884765625,-0.6303863525390625,0.10833740234375
1700516702007771100,7.033771240234375,-0.998687744140625,-0.500213623046875,-0.247344970703125
1700516702017782000,7.043781982421875,-1.2401123046875,-0.386444091796875,0.155181884765625
1700516702027793000,7.05379296875,-0.7724609375,-0.207977294921875,0.08331298828125
1700516702037803000,7.063802978515625,-0.83660888671875,-0.6070098876953125,-0.03497314453125
1700516702047814000,7.07381396484375,-1.4297332763671875,-0.6898040771484375,-0.00341796875
1700516702057825000,7.083824951171875,-1.0524749755859375,0.022613525390625,0.1359100341796875
1700516702067836200,7.093836181640625,-0.7097015380859375,-0.696624755859375,0.1391448974609375
1700516702077846000,7.103845947265625,-0.985809326171875,-0.5457305908203125,-0.145843505859375
1700516702087857000,7.11385693359375,-1.09503173828125,-0.4145355224609375,0.169403076171875
1700516702097868000,7.123867919921875,-0.93389892578125,-0.11737060546875,0.0057830810546875
1700516702107878000,7.1338779296875,-0.7016143798828125,-0.652252197265625,0.0720977783203125
1700516702117889000,7.143888916015625,-1.03912353515625,-0.4503173828125,-0.065032958984375
1700516702127900000,7.15389990234375,-0.9337310791015625,-0.0746917724609375,0.1598663330078125
1700516702137910000,7.163909912109375,-0.7981719970703125,-0.4104156494140625,0.067779541015625
1700516702147921200,7.173921142578125,-1.067535400390625,-0.5939788818359375,-0.107757568359375
1700516702157932000,7.18393212890625,-1.0721435546875,-0.3300018310546875,-0.0041046142578125
1700516702167943000,7.19394287109375,-0.8542327880859375,-0.07403564453125,0.0726776123046875
1700516702177953000,7.203953125,-0.7303619384765625,-0.723114013671875,-0.0015411376953125
1700516702187964000,7.2139638671875,-1.1069183349609375,-0.6642913818359375,-0.036468505859375
1700516702197975000,7.22397509765625,-1.1835174560546875,-0.1642913818359375,0.09173583984375
1700516702207985000,7.23398486328125,-0.791107177734375,-0.4876556396484375,0.0710906982421875
1700516702217995800,7.243995849609375,-1.1137542724609375,-0.506134033203125,0.012664794921875
1700516702228007200,7.254007080078125,-1.22271728515625,-0.464080810546875,0.16204833984375
1700516702238017000,7.26401708984375,-0.8600616455078125,-0.1587982177734375,0.046875
1700516702248028200,7.274028076171875,-0.427520751953125,-0.5747528076171875,0.1160888671875
1700516702258039000,7.2840390625,-0.3401336669921875,-0.735015869140625,-0.064422607421875
1700516702268050000,7.2940498046875,-3.89532470703125,0.1563262939453125,-0.063079833984375
1700516702278060000,7.30406005859375,-0.58349609375,-0.077178955078125,0.162750244140625
1700516702288071000,7.31407080078125,-0.404937744140625,-0.56536865234375,0.0116119384765625
1700516702298082000,7.32408203125,-0.516754150390625,-0.7285003662109375,0.1796875
1700516702308092200,7.334092041015625,-0.5270843505859375,-0.2937469482421875,-0.10198974609375
1700516702318103000,7.34410302734375,-1.1833343505859375,-0.391876220703125,0.0527496337890625
1700516702328114000,7.354114013671875,-1.36187744140625,-0.573394775390625,0.071624755859375
1700516702338125000,7.364125,-1.0315399169921875,-0.071441650390625,-0.0786285400390625
1700516702348135000,7.374135009765625,-0.49713134765625,-0.5702056884765625,0.1368865966796875
1700516702358146000,7.38414599609375,-0.7960662841796875,-0.3713226318359375,0.0979461669921875
1700516702368157000,7.394156982421875,-1.033966064453125,-0.4062042236328125,0.1814117431640625
1700516702378168000,7.40416796875,-1.0704193115234375,-0.412567138671875,0.0450592041015625
1700516702388178200,7.41417822265625,-1.23260498046875,-0.314453125,-0.082061767578125
1700516702398189000,7.42418896484375,-1.2332000732421875,-0.554534912109375,0.0086517333984375
1700516702408200000,7.434199951171875,-0.9500885009765625,-0.128875732421875,-0.042236328125
1700516702418210000,7.4442099609375,-0.8511810302734375,-0.5820159912109375,0.1191253662109375
1700516702428221000,7.454220947265625,-0.81829833984375,-0.6962890625,-0.0104522705078125
1700516702438232000,7.464232177734375,-0.85760498046875,-0.023590087890625,-0.057373046875
1700516702448243000,7.474242919921875,-0.68450927734375,-0.4844970703125,0.280487060546875
1700516702458252300,7.484252197265625,-1.071197509765625,-0.5062255859375,0.0830078125
1700516702468263200,7.49426318359375,-1.062530517578125,-0.4608306884765625,-0.012420654296875
1700516702478274300,7.5042744140625,-0.7339019775390625,0.0194549560546875,0.0632781982421875
1700516702488284400,7.514284423828125,-0.882598876953125,-0.6201629638671875,0.18157958984375
1700516702498295300,7.52429541015625,-1.0072479248046875,-0.5765228271484375,0.0230560302734375
1700516702508306200,7.53430615234375,-0.8089141845703125,0.0541534423828125,-0.0260162353515625
1700516702518317300,7.5443173828125,-0.778350830078125,-0.5736846923828125,0.1133270263671875
1700516702528327200,7.5543271484375,-1.1650543212890625,-0.579498291015625,-0.0354766845703125
1700516702538338300,7.56433837890625,-1.4238433837890625,-0.2393646240234375,0.008270263671875
1700516702548349200,7.57434912109375,-0.803253173828125,-0.556884765625,0.1397247314453125
1700516702558360300,7.5843603515625,-0.9783935546875,-0.31329345703125,-0.0457305908203125
1700516702568370400,7.594370361328125,-1.1525115966796875,-0.4722747802734375,0.0624847412109375
1700516702578381300,7.60438134765625,-0.79168701171875,-0.2726593017578125,0.136993408203125
1700516702588392200,7.61439208984375,-0.803863525390625,-0.4727783203125,0.030426025390625
1700516702598402300,7.62440234375,-0.9795989990234375,-0.679931640625,0.0787811279296875
1700516702608413200,7.6344130859375,-0.79364013671875,0.0772857666015625,0.010498046875
1700516702618424000,7.644424072265625,-0.61114501953125,-0.551361083984375,0.2841796875
1700516702628435200,7.654435302734375,-1.025848388671875,-0.547332763671875,0.05328369140625
1700516702638445000,7.664445068359375,-1.1943511962890625,-0.1970672607421875,0.187255859375
1700516702648456400,7.67445654296875,-0.9088134765625,-0.263031005859375,0.156494140625
1700516702658467300,7.68446728515625,-1.207000732421875,-0.4223785400390625,0.003448486328125
1700516702668478200,7.694478271484375,-1.05877685546875,-0.6429290771484375,-0.016357421875
1700516702678488300,7.70448828125,-0.8699951171875,-0.0619049072265625,-0.029754638671875
1700516702688499200,7.714499267578125,-0.772674560546875,-0.546234130859375,0.08544921875
1700516702698510000,7.724510009765625,-1.1672821044921875,-0.6449432373046875,0.0332489013671875
1700516702708521500,7.734521484375,-1.083251953125,-0.0733795166015625,0.114044189453125
1700516702718531000,7.744531005859375,-0.8642425537109375,-0.5978851318359375,0.1741180419921875
1700516702728542200,7.754542236328125,-0.9148712158203125,-0.303558349609375,0.0495758056640625
1700516702738553300,7.76455322265625,-0.91552734375,-0.5333404541015625,0.1437225341796875
1700516702748563200,7.774563232421875,-0.5907440185546875,-0.1547698974609375,-0.0420379638671875
1700516702758574300,7.78457421875,-0.77496337890625,-0.28228759765625,0.1727752685546875
1700516702768585200,7.794585205078125,-1.065521240234375,-0.6372528076171875,0.1498565673828125
1700516702778596000,7.80459619140625,-1.026885986328125,0.0127716064453125,-0.05224609375
1700516702788606200,7.814606201171875,-0.867340087890625,-0.40411376953125,0.10345458984375
1700516702798617300,7.824617431640625,-0.82733154296875,-0.5756683349609375,0.0594329833984375
1700516702808628200,7.834628173828125,-0.715240478515625,-0.111297607421875,-0.008514404296875
1700516702818639400,7.844639404296875,-0.740325927734375,-0.40869140625,0.014892578125
1700516702828649200,7.854649169921875,-0.7389678955078125,-0.5082855224609375,0.01123046875
1700516702838660400,7.864660400390625,-1.087158203125,-0.401702880859375,0.067657470703125
1700516702848671200,7.874671142578125,-0.798675537109375,-0.1103057861328125,0.05902099609375
1700516702858682000,7.88468212890625,-0.88360595703125,-0.515472412109375,0.1731719970703125
1700516702868692200,7.894692138671875,-1.294036865234375,-0.5364227294921875,0.146881103515625
1700516702878703400,7.904703369140625,-1.145416259765625,-0.024169921875,0.085662841796875
1700516702888714200,7.91471435546875,-1.1034393310546875,-0.4982147216796875,0.1821136474609375
1700516702898725400,7.924725341796875,-1.2254791259765625,-0.453399658203125,-0.0088348388671875
1700516702908735200,7.9347353515625,-1.344085693359375,-0.2365264892578125,0.121795654296875
1700516702918746000,7.94474609375,-1.045562744140625,-0.4972991943359375,0.2410888671875
1700516702928757200,7.95475732421875,-0.9939422607421875,-0.5693206787109375,-0.087982177734375
1700516702938768100,7.96476806640625,-0.9547119140625,-0.1962432861328125,0.098907470703125
1700516702948778200,7.9747783203125,-0.657562255859375,-0.249298095703125,0.0909271240234375
1700516702958789400,7.984789306640625,-0.8538360595703125,-0.58197021484375,-0.00189208984375
1700516702968800300,7.99480029296875,-1.068817138671875,-0.4300994873046875,0.176971435546875
1700516702978811400,8.004811279296876,-0.784149169921875,0.0652618408203125,0.2053375244140625
1700516702988821200,8.0148212890625,-0.8404083251953125,-0.635162353515625,0.28533935546875
1700516702998832000,8.02483203125,-1.1282958984375,-0.3880157470703125,-0.021697998046875
1700516703008843300,8.03484326171875,-1.3154296875,-0.2618560791015625,0.100555419921875
1700516703018854100,8.044854248046875,-0.664031982421875,-0.2260284423828125,0.05145263671875
1700516703028864300,8.0548642578125,-0.6295013427734375,-0.5156402587890625,-0.10498046875
1700516703038875400,8.06487548828125,-0.8917236328125,-0.5391387939453125,0.0568695068359375
1700516703048886300,8.07488623046875,-0.8606719970703125,0.0875244140625,0.0880584716796875
1700516703058897200,8.084897216796875,-1.019561767578125,-0.5930328369140625,0.04376220703125
1700516703068907300,8.0949072265625,-0.88836669921875,-0.4464874267578125,-0.0427398681640625
1700516703078918100,8.104918212890626,-1.0309600830078125,-0.1165008544921875,0.087677001953125
1700516703088929300,8.11492919921875,-0.693328857421875,-0.302947998046875,0.0219573974609375
1700516703098940200,8.124940185546874,-0.8813323974609375,-0.4950408935546875,0.1786041259765625
1700516703108950000,8.134949951171874,-1.196624755859375,-0.450103759765625,0.2610321044921875
1700516703118961400,8.14496142578125,-1.1082305908203125,-0.079132080078125,0.1198577880859375
1700516703128972300,8.15497216796875,-1.297943115234375,-0.31866455078125,0.01776123046875
1700516703138983200,8.164983154296875,-1.452178955078125,-0.5278167724609375,0.0803375244140625
1700516703148993300,8.1749931640625,-0.910888671875,-0.1107635498046875,0.1865997314453125
1700516703159004200,8.185004150390625,-0.805328369140625,-0.5609283447265625,0.111846923828125
1700516703169015300,8.195015380859376,-1.1731109619140625,-0.5011138916015625,-0.049285888671875
1700516703179026400,8.2050263671875,-0.9065093994140625,-0.2354583740234375,0.063079833984375
1700516703189037300,8.215037353515624,-0.80615234375,-0.44525146484375,0.201507568359375
1700516703199047400,8.22504736328125,-0.878204345703125,-0.34051513671875,0.0789794921875
1700516703209058300,8.235058349609375,-0.9558563232421875,-0.48858642578125,0.166900634765625
1700516703219069200,8.245069091796875,-0.5875091552734375,-0.1024322509765625,0.1923980712890625
1700516703229080300,8.255080322265625,-0.852569580078125,-0.3441009521484375,0.1718902587890625
1700516703239090200,8.265090087890625,-1.2403564453125,-0.5444183349609375,0.0992584228515625
1700516703249101000,8.27510107421875,-1.45465087890625,-0.116455078125,0.0657806396484375
1700516703259112400,8.285112548828126,-0.7711944580078125,-0.396270751953125,-0.0074310302734375
1700516703269123300,8.295123291015624,-0.7575836181640625,-0.4198760986328125,-0.074920654296875
1700516703279133400,8.305133544921874,-0.86517333984375,-0.5501556396484375,0.0211029052734375
1700516703289144300,8.315144287109375,-0.6472320556640625,0.0075836181640625,-0.0689239501953125
1700516703299155200,8.3251552734375,-1.17523193359375,-0.5322723388671875,0.0737762451171875
1700516703309166000,8.335166015625,-1.4268951416015625,-0.616973876953125,0.1165618896484375
1700516703319176200,8.34517626953125,-1.226806640625,0.1747283935546875,0.0996246337890625
1700516703329187000,8.35518701171875,-0.97357177734375,-0.46783447265625,0.2997283935546875
1700516703339198500,8.365198486328126,-1.0868377685546875,-0.7139739990234375,0.03289794921875
1700516703349209300,8.375209228515626,-0.88714599609375,-0.0577850341796875,0.028228759765625
1700516703359220200,8.38522021484375,-0.7281341552734375,-0.4072113037109375,0.2173919677734375
1700516703369230300,8.395230224609374,-1.0818023681640625,-0.64794921875,-0.1686248779296875
1700516703379241200,8.4052412109375,-1.157318115234375,-0.19580078125,-0.0110321044921875
1700516703389252000,8.415252197265625,-0.55474853515625,-0.0870513916015625,0.1779327392578125
1700516703399263200,8.42526318359375,-0.7564849853515625,-0.5954742431640625,0.0463714599609375
1700516703409273000,8.435273193359375,-1.0768585205078125,-0.4611053466796875,0.073486328125
1700516703419284200,8.4452841796875,-0.857421875,0.13604736328125,0.014190673828125
1700516703429295400,8.45529541015625,-0.6153564453125,-0.46099853515625,0.21112060546875
1700516703439306200,8.46530615234375,-0.916168212890625,-0.4497222900390625,0.0816192626953125
1700516703449317000,8.475317138671874,-0.9685516357421875,-0.247802734375,0.1206817626953125
1700516703459327700,8.48532763671875,-0.833648681640625,-0.1124725341796875,0.0025634765625
1700516703469338600,8.495338623046875,-1.0476837158203125,-0.421844482421875,0.02862548828125
1700516703479349800,8.505349853515625,-1.24884033203125,-0.6303558349609375,0.00836181640625
1700516703489361000,8.51536083984375,-1.051788330078125,-0.0160369873046875,-0.0908355712890625
1700516703499370800,8.525370849609375,-0.918060302734375,-0.3223876953125,0.04901123046875
1700516703509382000,8.5353818359375,-1.0708465576171875,-0.5845794677734375,-0.0280303955078125
1700516703519392800,8.545392822265624,-1.1890716552734375,-0.23516845703125,0.029388427734375
1700516703529403600,8.555403564453124,-0.8335418701171875,-0.27777099609375,0.1426239013671875
1700516703539414500,8.56541455078125,-0.7425079345703125,-0.3989715576171875,-0.063018798828125
1700516703549424600,8.575424560546875,-1.088653564453125,-0.5118560791015625,0.0804595947265625
1700516703559435800,8.585435791015625,-0.8035125732421875,0.1147918701171875,0.102630615234375
1700516703569447000,8.595447021484375,-0.7811279296875,-0.5319976806640625,0.106292724609375
1700516703579457800,8.605457763671875,-1.04681396484375,-0.6425628662109375,0.0453338623046875
1700516703589467600,8.615467529296875,-0.8839569091796875,0.264129638671875,0.082550048828125
1700516703599478800,8.625478759765626,-0.8073577880859375,-0.6220855712890625,0.197418212890625
1700516703609489700,8.63548974609375,-1.0294342041015625,-0.442291259765625,-0.1351470947265625
1700516703619500500,8.64550048828125,-1.0594940185546875,-0.2127838134765625,0.206878662109375
1700516703629512000,8.655511962890625,-0.7139434814453125,-0.17718505859375,0.11346435546875
1700516703639521800,8.665521728515625,-0.7222900390625,-0.3488006591796875,0.028350830078125
1700516703649532700,8.67553271484375,-0.946533203125,-0.49078369140625,0.1546783447265625
1700516703659543800,8.685543701171875,-1.05718994140625,0.119781494140625,0.2017364501953125
1700516703669554700,8.6955546875,-1.1388092041015625,-0.4508209228515625,0.1788787841796875
1700516703679565600,8.705565673828126,-1.153656005859375,-0.34039306640625,-0.029022216796875
1700516703689575700,8.71557568359375,-1.1882476806640625,-0.3666534423828125,0.161285400390625
1700516703699586800,8.7255869140625,-0.96185302734375,-0.15948486328125,0.0131683349609375
1700516703709598000,8.735597900390625,-0.968536376953125,-0.462249755859375,-0.053253173828125
1700516703719608800,8.74560888671875,-1.2577362060546875,-0.72601318359375,-0.0936737060546875
1700516703729618700,8.75561865234375,-0.7846527099609375,0.2891387939453125,0.020843505859375
1700516703739629800,8.7656298828125,-0.7930755615234375,-0.60675048828125,0.194793701171875
1700516703749640700,8.775640625,-1.230377197265625,-0.6037445068359375,-0.066619873046875
1700516703759651600,8.785651611328126,-1.0515594482421875,0.1083984375,0.1581268310546875
1700516703769663000,8.7956630859375,-0.58624267578125,-0.4725189208984375,0.173492431640625
1700516703779672800,8.8056728515625,-0.956787109375,-0.44732666015625,-0.027374267578125
1700516703789683700,8.81568359375,-1.108734130859375,-0.3376312255859375,0.1799774169921875
1700516703799694800,8.82569482421875,-0.779144287109375,0.028289794921875,0.084320068359375
1700516703809705700,8.835705810546875,-0.9627685546875,-0.3861846923828125,0.1687774658203125
1700516703819716600,8.845716552734375,-1.2465972900390625,-0.4431915283203125,0.0501861572265625
1700516703829726700,8.855726806640625,-1.339996337890625,-0.10784912109375,-0.006591796875
1700516703839737600,8.865737548828125,-0.8475494384765625,-0.30560302734375,0.1156158447265625
1700516703849748700,8.875748779296876,-0.9886322021484375,-0.528350830078125,-0.1002655029296875
1700516703859759900,8.885759765625,-1.2341461181640625,-0.3685150146484375,-0.0535430908203125
1700516703869770800,8.895770751953124,-0.88946533203125,-0.0812530517578125,0.0447235107421875
1700516703879780900,8.90578076171875,-0.8131103515625,-0.5115966796875,-0.0413360595703125
1700516703889791700,8.915791748046875,-1.053619384765625,-0.4922637939453125,0.0104522705078125
1700516703899802600,8.925802734375,-0.768096923828125,0.1128997802734375,0.13287353515625
1700516703909813800,8.935813720703125,-0.7691497802734375,-0.6011505126953125,0.1352386474609375
1700516703919823600,8.94582373046875,-1.0290679931640625,-0.3990631103515625,0.0107421875
1700516703929834800,8.955834716796875,-1.0587615966796875,-0.2548980712890625,0.1641998291015625
1700516703939846000,8.965845947265626,-0.827728271484375,-0.029632568359375,0.0060882568359375
1700516703949856800,8.975856689453124,-1.247314453125,-0.391876220703125,0.08935546875
1700516703959867600,8.98586767578125,-1.2762451171875,-0.7353973388671875,-0.003570556640625
1700516703969878800,8.995878662109375,-0.8237762451171875,0.2720489501953125,-0.148406982421875
1700516703979888600,9.005888671875,-0.7465362548828125,-0.4195556640625,0.0449676513671875
1700516703989899500,9.0158994140625,-1.210479736328125,-0.719757080078125,-0.143890380859375
1700516703999911000,9.025910888671875,-1.255218505859375,0.08062744140625,0.0144500732421875
1700516704009921800,9.035921875,-0.89984130859375,-0.42431640625,0.2131500244140625
1700516704019932700,9.0459326171875,-1.037872314453125,-0.4164276123046875,-0.06695556640625
1700516704029942800,9.05594287109375,-1.15008544921875,-0.29315185546875,0.2281646728515625
1700516704039953700,9.06595361328125,-0.74102783203125,-0.1051025390625,0.0439453125
1700516704049964500,9.075964599609375,-0.7207489013671875,-0.3621673583984375,0.04156494140625
1700516704059976000,9.085975830078125,-0.9342041015625,-0.482879638671875,0.037200927734375
1700516704069986800,9.09598681640625,-0.775146484375,-0.00054931640625,-0.09283447265625
1700516704079997000,9.105996826171875,-0.6235809326171875,-0.3015594482421875,0.115020751953125
1700516704090007800,9.1160078125,-1.035369873046875,-0.4471588134765625,-0.148468017578125
1700516704100018700,9.126018798828126,-1.183380126953125,-0.3772430419921875,0.089385986328125
1700516704110029800,9.13602978515625,-0.9130401611328125,0.291778564453125,-0.06158447265625
1700516704120040700,9.146040771484374,-0.948822021484375,-0.6635589599609375,0.078155517578125
1700516704130050600,9.156050537109374,-0.9875946044921875,-0.5620880126953125,0.0070343017578125
1700516704140062000,9.16606201171875,-0.8521575927734375,0.147705078125,-0.013275146484375
1700516704150072800,9.17607275390625,-0.882965087890625,-0.43670654296875,-0.02130126953125
1700516704160083700,9.186083740234375,-1.20782470703125,-0.482208251953125,-0.085235595703125
1700516704170094800,9.1960947265625,-1.301422119140625,-0.4049530029296875,-0.0729217529296875
1700516704180104700,9.206104736328125,-0.877899169921875,0.0298309326171875,-0.110626220703125
1700516704190115600,9.216115478515626,-0.98681640625,-0.437774658203125,0.030548095703125
1700516704200126700,9.226126708984374,-1.1481170654296875,-0.68438720703125,0.0177154541015625
1700516704210137900,9.236137939453124,-0.8870391845703125,0.3180999755859375,-0.0090484619140625
1700516704220148700,9.246148681640625,-0.758514404296875,-0.640716552734375,0.2008819580078125
1700516704230158800,9.256158935546875,-0.9031219482421875,-0.4057159423828125,-0.0944671630859375
1700516704240169700,9.266169677734375,-0.79095458984375,-0.112823486328125,-0.038177490234375
1700516704250180600,9.2761806640625,-0.597686767578125,-0.240447998046875,-0.044403076171875
1700516704260191700,9.286191650390625,-0.8016204833984375,-0.2825469970703125,0.04791259765625
1700516704270202600,9.29620263671875,-0.8770599365234375,-0.56878662109375,0.0145416259765625
1700516704280213800,9.3062138671875,-0.70751953125,0.1617584228515625,-0.1356658935546875
1700516704290223900,9.316223876953124,-0.6047821044921875,-0.212738037109375,-0.078887939453125
1700516704300234800,9.32623486328125,-1.3907012939453125,-0.4740447998046875,0.0818939208984375
1700516704310245600,9.33624560546875,-0.6766815185546875,-0.3069915771484375,0.0065155029296875
1700516704320256800,9.3462568359375,-0.45001220703125,0.1186676025390625,-0.0502166748046875
1700516704330267600,9.356267578125,-0.7407073974609375,-0.3218841552734375,0.0018310546875
1700516704340277800,9.36627783203125,-0.952056884765625,-0.52813720703125,-0.0152435302734375
1700516704350289000,9.376288818359376,-1.2644195556640625,0.118316650390625,-0.142913818359375
1700516704360299800,9.3862998046875,-1.05670166015625,-0.181915283203125,-0.1915435791015625
1700516704370310700,9.396310546875,-1.166748046875,-0.4942626953125,-0.001953125
1700516704380321800,9.40632177734375,-1.5351715087890625,-0.239532470703125,-0.078826904296875
1700516704390332700,9.416332763671875,-1.0983734130859375,0.0024871826171875,0.03338623046875
1700516704400342800,9.4263427734375,-1.2906494140625,-0.5246124267578125,-0.1011505126953125
1700516704410353700,9.436353759765625,-1.2032318115234375,-0.4484405517578125,0.1010589599609375
1700516704420364800,9.44636474609375,-0.922210693359375,0.04095458984375,0.07623291015625
1700516704430376000,9.4563759765625,-0.906890869140625,-0.5471954345703125,0.0917205810546875
1700516704440386800,9.46638671875,-0.8053741455078125,-0.3642120361328125,0.0153656005859375
1700516704450396700,9.476396728515626,-0.718536376953125,-0.1060791015625,0.0286102294921875
1700516704460411100,9.4864111328125,-0.66839599609375,-0.25616455078125,0.1064300537109375
1700516704470422000,9.496422119140625,-0.9614715576171875,-0.5466156005859375,-0.08831787109375
1700516704480433000,9.506432861328125,-0.808502197265625,-0.4115447998046875,0.0399932861328125
1700516704490444000,9.516444091796876,-0.720611572265625,0.142913818359375,0.0812530517578125
1700516704500455200,9.526455078125,-1.12908935546875,-0.4695587158203125,0.099273681640625
1700516704510465000,9.536465087890624,-0.906158447265625,-0.357147216796875,-0.1490936279296875
1700516704520476200,9.54647607421875,-1.159210205078125,-0.0331268310546875,0.0126190185546875
1700516704530487000,9.556487060546875,-0.8014068603515625,-0.1044158935546875,0.049896240234375
1700516704540498000,9.566497802734375,-1.333984375,-0.3374176025390625,-0.0176849365234375
1700516704550509000,9.576509033203125,-1.4338836669921875,-0.5215911865234375,-0.0161895751953125
1700516704560520000,9.58652001953125,-0.7447052001953125,0.215301513671875,0.0606536865234375
1700516704570530000,9.596530029296876,-0.9862823486328125,-0.4463653564453125,0.057769775390625
1700516704580541200,9.606541259765624,-0.96734619140625,-0.46728515625,0.04779052734375
1700516704590552000,9.616552001953124,-0.988739013671875,-0.0018768310546875,0.1923828125
1700516704600563000,9.62656298828125,-0.8580780029296875,-0.475311279296875,0.2142333984375
1700516704610574000,9.636573974609375,-1.137786865234375,-0.2747650146484375,0.0197601318359375
1700516704620585000,9.6465849609375,-1.422821044921875,-0.4032135009765625,0.13494873046875
1700516704630595000,9.656594970703125,-0.974822998046875,0.00726318359375,0.080291748046875
1700516704640606000,9.66660595703125,-1.1679534912109375,-0.5683441162109375,0.0548858642578125
1700516704650617000,9.6766171875,-1.1421356201171875,-0.2845916748046875,-0.024505615234375
1700516704660628000,9.6866279296875,-0.9191436767578125,0.105865478515625,0.015289306640625
1700516704670639000,9.69663916015625,-0.9924468994140625,-0.6460418701171875,0.1162109375
1700516704680649000,9.70664892578125,-1.1457977294921875,-0.425628662109375,-0.027984619140625
1700516704690660000,9.71666015625,-0.9580230712890625,-0.0499267578125,0.0648651123046875
1700516704700671000,9.7266708984375,-0.5702972412109375,-0.108612060546875,-0.0257415771484375
1700516704710682000,9.73668212890625,-0.82958984375,-0.521026611328125,0.1053619384765625
1700516704720693000,9.74669287109375,-0.9007110595703125,-0.678680419921875,0.062408447265625
1700516704730704100,9.7567041015625,-0.6964111328125,-0.0440521240234375,0.0818634033203125
1700516704740714000,9.7667138671875,-0.5319061279296875,-0.1701812744140625,0.05352783203125
1700516704750725000,9.77672509765625,-1.1693572998046875,-0.2241973876953125,0.119049072265625
1700516704760736000,9.786736083984374,-0.8288726806640625,-0.2392120361328125,0.167999267578125
1700516704770747000,9.796746826171875,-0.8612823486328125,-0.0509796142578125,0.0091705322265625
1700516704780758000,9.806758056640625,-1.08489990234375,-0.234222412109375,0.1043853759765625
1700516704790769200,9.81676904296875,-1.3817291259765625,-0.4114990234375,0.0451812744140625
1700516704800779000,9.826779052734375,-0.8236236572265625,0.1241302490234375,0.043914794921875
1700516704810790100,9.8367900390625,-1.127777099609375,-0.3030853271484375,-0.0006256103515625
1700516704820801000,9.846801025390626,-1.0020599365234375,-0.415618896484375,-0.0626983642578125
1700516704830812000,9.85681201171875,-1.2197265625,-0.2157745361328125,0.0565643310546875
1700516704840823000,9.866822998046874,-0.7100830078125,-0.1863861083984375,0.0103302001953125
1700516704850834200,9.876834228515625,-1.0428009033203125,-0.406005859375,0.0778961181640625
1700516704860845000,9.886844970703125,-1.0798797607421875,-0.45361328125,0.1328887939453125
1700516704870855200,9.896855224609375,-0.823455810546875,0.057525634765625,0.0326385498046875
1700516704880866000,9.906865966796875,-0.9228973388671875,-0.4535064697265625,0.079071044921875
1700516704890877000,9.916876953125,-1.0451507568359375,-0.384246826171875,0.0835723876953125
1700516704900888000,9.92688818359375,-1.082366943359375,-0.1098175048828125,0.094757080078125
1700516704910899000,9.93689892578125,-0.7961578369140625,-0.29302978515625,0.0754852294921875
1700516704920910000,9.94691015625,-1.1138458251953125,-0.362030029296875,0.0540924072265625
1700516704930920200,9.956920166015625,-1.1475677490234375,-0.2946929931640625,0.07916259765625
1700516704940931000,9.96693115234375,-0.903656005859375,0.052032470703125,0.0137176513671875
1700516704950942000,9.97694189453125,-0.8306732177734375,-0.4240264892578125,0.106842041015625
1700516704960953000,9.986953125,-1.1063995361328125,-0.349884033203125,-0.04248046875
1700516704970964000,9.9969638671875,-1.0933837890625,0.0562591552734375,0.127197265625
1700516704980975000,10.00697509765625,-0.8719482421875,-0.33319091796875,0.06036376953125
1700516704990986000,10.016986083984374,-1.0495147705078125,-0.4955596923828125,0.0177459716796875
1700516705000996000,10.02699609375,-1.058929443359375,-0.0897674560546875,0.1429290771484375
1700516705011007000,10.037007080078125,-0.8564300537109375,-0.0597076416015625,0.0676422119140625
1700516705021018000,10.04701806640625,-0.969329833984375,-0.443695068359375,0.141143798828125
1700516705031029000,10.057029052734375,-1.3430633544921875,-0.4217376708984375,0.122344970703125
1700516705041040000,10.067039794921875,-1.1363372802734375,0.117401123046875,0.107513427734375
1700516705051051300,10.07705126953125,-0.7404327392578125,-0.3701324462890625,0.0360260009765625
1700516705061061000,10.08706103515625,-0.9573822021484375,-0.5246124267578125,0.0171966552734375
1700516705071072000,10.097072021484376,-1.077392578125,-0.0350494384765625,0.132293701171875
1700516705081083100,10.107083251953124,-1.0514984130859375,-0.3368377685546875,0.1478424072265625
1700516705091094000,10.117093994140625,-1.136138916015625,-0.3379058837890625,0.0870513916015625
1700516705101105000,10.12710498046875,-1.0605926513671875,-0.304168701171875,0.117034912109375
1700516705111116000,10.137115966796875,-0.8535614013671875,0.0808258056640625,0.134063720703125
1700516705121127200,10.147127197265625,-0.8052825927734375,-0.4190216064453125,0.14306640625
1700516705131137000,10.157136962890625,-1.09783935546875,-0.50555419921875,0.069854736328125
1700516705141148200,10.167148193359376,-1.1785736083984375,0.1281280517578125,0.1290435791015625
1700516705151159000,10.177158935546874,-0.993865966796875,-0.3665924072265625,0.1734161376953125
1700516705161170000,10.187169921875,-1.032623291015625,-0.394561767578125,0.12518310546875
1700516705171181000,10.19718115234375,-0.975433349609375,-0.269073486328125,0.2240753173828125
1700516705181192200,10.207192138671875,-0.897979736328125,0.10736083984375,0.0971832275390625
1700516705191203000,10.217203125,-0.817230224609375,-0.5008392333984375,0.091888427734375
1700516705201213200,10.227213134765625,-1.0113372802734375,-0.5104217529296875,-0.0206756591796875
1700516705211224000,10.23722412109375,-0.8627777099609375,0.2142333984375,0.0917205810546875
1700516705221235000,10.24723486328125,-0.7691802978515625,-0.2991180419921875,0.0565032958984375
1700516705231246000,10.25724609375,-0.843048095703125,-0.4912109375,-0.0005035400390625
1700516705241257000,10.267257080078124,-1.110443115234375,-0.4302215576171875,0.1994476318359375
1700516705251268000,10.27726806640625,-0.7532806396484375,0.306732177734375,0.00177001953125
1700516705261279200,10.287279296875,-1.1030731201171875,-0.3466949462890625,0.19647216796875
1700516705271289000,10.2972890625,-0.60943603515625,-0.4430999755859375,-0.05108642578125
1700516705281300000,10.307300048828125,-1.0545654296875,0.0970916748046875,0.1721038818359375
1700516705291311000,10.31731103515625,-0.951202392578125,-0.1763458251953125,0.180267333984375
1700516705301322000,10.327322021484376,-1.1085662841796875,-0.4801483154296875,0.0314178466796875
1700516705311332900,10.337332763671874,-1.2952728271484375,-0.26763916015625,0.0987091064453125
1700516705321344300,10.34734423828125,-1.004180908203125,0.1121368408203125,0.1016082763671875
1700516705331355100,10.357355224609375,-1.0034637451171875,-0.5477294921875,0.2168731689453125
1700516705341365000,10.367364990234375,-0.9794158935546875,-0.357086181640625,0.0166778564453125
1700516705351376100,10.377376220703125,-0.895416259765625,0.193878173828125,0.1866302490234375
1700516705361387000,10.387386962890625,-1.0160675048828125,-0.4901580810546875,0.2064361572265625
1700516705371398000,10.39739794921875,-1.1916351318359375,-0.487548828125,0.0267181396484375
1700516705381409000,10.407408935546876,-1.08447265625,-0.02325439453125,0.0809326171875
1700516705391420200,10.417420166015624,-0.9165191650390625,-0.1603546142578125,0.1078338623046875
1700516705401431000,10.42743115234375,-0.7371063232421875,-0.54083251953125,0.073638916015625
1700516705411442000,10.43744189453125,-0.9776611328125,-0.35302734375,0.015411376953125
1700516705421452000,10.4474521484375,-0.8924713134765625,0.1237030029296875,0.040740966796875
1700516705431463000,10.457462890625,-0.9658203125,-0.3088836669921875,-0.0001373291015625
1700516705441474000,10.46747412109375,-1.1421661376953125,-0.48040771484375,-0.100433349609375
1700516705451485200,10.477485107421876,-1.138092041015625,0.032745361328125,0.1460418701171875
1700516705461492200,10.4874921875,-0.7543487548828125,-0.132720947265625,0.0781402587890625
1700516705471503400,10.49750341796875,-0.8899383544921875,-0.3649444580078125,-0.0180816650390625
1700516705481514200,10.50751416015625,-1.0267181396484375,-0.479583740234375,0.1361083984375
1700516705491525000,10.517525146484376,-0.801116943359375,0.32867431640625,0.080810546875
1700516705501535200,10.52753515625,-0.7558135986328125,-0.3195953369140625,0.211639404296875
1700516705511546000,10.537546142578124,-1.057403564453125,-0.4987335205078125,0.0382080078125
1700516705521557200,10.54755712890625,-1.2293853759765625,0.0370025634765625,0.1606903076171875
1700516705531568400,10.557568359375,-0.88336181640625,-0.288330078125,0.060760498046875
1700516705541579300,10.567579345703125,-1.0393218994140625,-0.2972412109375,-0.14019775390625
1700516705551590100,10.577590087890625,-1.23931884765625,-0.5198211669921875,-0.0228729248046875
1700516705561601300,10.587601318359376,-0.80096435546875,0.13909912109375,-0.0129852294921875
1700516705571612400,10.5976123046875,-0.86383056640625,-0.3835296630859375,0.042816162109375
1700516705581622300,10.607622314453126,-1.2245330810546875,-0.4184417724609375,0.0417022705078125
1700516705591633400,10.61763330078125,-1.1400299072265625,0.06036376953125,0.1879425048828125
1700516705601644300,10.627644287109375,-0.7477264404296875,-0.252716064453125,0.132537841796875
1700516705611655200,10.6376552734375,-0.93804931640625,-0.462188720703125,0.056365966796875
1700516705621666300,10.647666259765625,-1.189361572265625,-0.2508392333984375,0.107269287109375
1700516705631677200,10.65767724609375,-0.902587890625,-0.06854248046875,0.0048370361328125
1700516705641688300,10.667688232421876,-0.8254852294921875,-0.2753143310546875,0.122039794921875
1700516705651699200,10.67769921875,-1.0314788818359375,-0.5272216796875,0.003814697265625
1700516705661709300,10.687709228515626,-0.9480743408203125,0.1819915771484375,-0.014739990234375
1700516705671720200,10.69772021484375,-0.7654266357421875,-0.2732086181640625,0.0081024169921875
1700516705681731300,10.7077314453125,-0.974853515625,-0.4383544921875,-0.010040283203125
1700516705691742200,10.7177421875,-1.0041656494140625,-0.2835693359375,0.0233306884765625
1700516705701753000,10.727753173828125,-0.4417724609375,0.0981597900390625,-0.0228424072265625
1700516705711764200,10.73776416015625,-1.112457275390625,-0.2900390625,0.085968017578125
1700516705721775400,10.747775390625,-0.5544281005859375,-0.4327850341796875,0.021240234375
1700516705731786200,10.7577861328125,-1.0823822021484375,0.0471954345703125,0.046875
1700516705741797000,10.767797119140624,-0.496368408203125,-0.1035003662109375,0.083831787109375
1700516705751807200,10.77780712890625,-1.236236572265625,-0.326934814453125,0.000213623046875
1700516705761818000,10.787818115234375,-1.1332855224609375,-0.23883056640625,0.004486083984375
1700516705771829200,10.797829345703125,-0.847137451171875,0.026275634765625,-0.02630615234375
1700516705781840400,10.80784033203125,-0.953857421875,-0.3985443115234375,-0.0253143310546875
1700516705791851300,10.817851318359375,-1.2409820556640625,-0.3378143310546875,0.0166168212890625
1700516705801862100,10.827862060546876,-1.1123809814453125,0.1265869140625,0.0855255126953125
1700516705811873300,10.837873291015624,-1.0223541259765625,-0.4512939453125,0.06329345703125
1700516705821884200,10.84788427734375,-1.1099853515625,-0.3867034912109375,-0.0604248046875
1700516705831895300,10.857895263671875,-1.1017303466796875,-0.0109710693359375,0.1236572265625
1700516705841905400,10.867905517578125,-0.84197998046875,-0.293609619140625,0.0309906005859375
1700516705851916300,10.877916259765625,-0.9008636474609375,-0.457550048828125,-0.021209716796875
1700516705861927200,10.88792724609375,-1.0105743408203125,-0.2551116943359375,0.0919342041015625
1700516705871938300,10.897938232421875,-0.8245391845703125,0.1790008544921875,0.060699462890625
1700516705881949200,10.90794921875,-0.860260009765625,-0.465423583984375,0.0215301513671875
1700516705891960000,10.9179599609375,-0.9690093994140625,-0.45745849609375,-0.066864013671875
1700516705901971500,10.927971435546874,-0.936492919921875,0.017059326171875,0.10162353515625
1700516705911982300,10.937982421875,-0.7685699462890625,-0.0783538818359375,0.00213623046875
1700516705921993200,10.9479931640625,-1.043487548828125,-0.38427734375,-0.0720367431640625
1700516705932003300,10.95800341796875,-1.114105224609375,-0.4261932373046875,0.0167999267578125
1700516705942014200,10.96801416015625,-0.6679840087890625,0.3083953857421875,-0.0665130615234375
1700516705952025000,10.978025146484375,-1.0585784912109375,-0.3632354736328125,0.05523681640625
1700516705962036200,10.9880361328125,-1.2505340576171875,-0.482025146484375,-0.0772552490234375
1700516705972047400,10.99804736328125,-1.17510986328125,0.12750244140625,0.0160980224609375
1700516705982058200,11.008058349609374,-0.8729248046875,-0.1706390380859375,0.08831787109375
1700516705992069000,11.018069091796875,-1.081787109375,-0.4622802734375,0.0329437255859375
1700516706002080300,11.028080322265625,-1.0026092529296875,-0.2061004638671875,0.1461029052734375
1700516706012091100,11.038091064453125,-0.7818145751953125,0.024932861328125,0.0885162353515625
1700516706022102300,11.048102294921875,-1.0591278076171875,-0.3612823486328125,0.130523681640625
1700516706032112400,11.0581123046875,-1.260986328125,-0.5033111572265625,0.053131103515625
1700516706042123300,11.068123291015626,-1.028045654296875,0.307586669921875,0.0073699951171875
1700516706052134400,11.078134521484374,-0.82037353515625,-0.5149078369140625,0.0712890625
1700516706062145300,11.088145263671874,-1.1306304931640625,-0.4012451171875,-0.1598052978515625
1700516706072156200,11.09815625,-1.143768310546875,-0.07159423828125,0.0636138916015625
1700516706082167000,11.1081669921875,-0.9060821533203125,-0.1980133056640625,0.045013427734375
1700516706092178400,11.118178466796875,-1.0972137451171875,-0.3889923095703125,0.006439208984375
1700516706102189300,11.128189208984375,-1.21685791015625,-0.3540496826171875,0.0301361083984375
1700516706112200200,11.1382001953125,-0.7306976318359375,0.163055419921875,0.0007171630859375
1700516706122211300,11.14821142578125,-0.6981201171875,-0.3580169677734375,0.20361328125
1700516706132222200,11.15822216796875,-0.9910430908203125,-0.5224761962890625,0.131439208984375
1700516706142232000,11.168232177734374,-0.9796295166015625,0.00152587890625,0.1465301513671875
1700516706152243200,11.1782431640625,-0.51104736328125,-0.033660888671875,-0.0136260986328125
1700516706162254300,11.18825439453125,-0.9454345703125,-0.274658203125,0.176666259765625
1700516706172265200,11.19826513671875,-0.7011260986328125,-0.2216339111328125,0.1838836669921875
1700516706182276400,11.2082763671875,-0.93389892578125,0.0783233642578125,0.060150146484375
1700516706192287200,11.218287353515626,-1.34033203125,-0.2821502685546875,-0.0125885009765625
1700516706202298000,11.228298095703124,-1.66937255859375,-0.4026641845703125,-0.0746917724609375
1700516706212309200,11.238309326171875,-1.33795166015625,0.1769256591796875,0.0716552734375
1700516706222320400,11.2483203125,-1.1286163330078125,-0.4165496826171875,0.1076812744140625
1700516706232331300,11.258331298828125,-1.2143402099609375,-0.5045928955078125,-0.0265045166015625
1700516706242341400,11.26834130859375,-1.003814697265625,-0.2062225341796875,0.1309051513671875
1700516706252352300,11.278352294921875,-0.796630859375,-0.1614532470703125,0.2461700439453125
1700516706262363100,11.288363037109375,-0.8051300048828125,-0.4670562744140625,0.044677734375
1700516706272374300,11.298374267578126,-1.0680084228515625,-0.199462890625,0.2218017578125
1700516706282385400,11.308385498046874,-0.7698516845703125,0.033294677734375,0.2094268798828125
1700516706292396300,11.318396240234375,-0.6560211181640625,-0.3819732666015625,0.220794677734375
1700516706302407200,11.3284072265625,-0.7447967529296875,-0.52838134765625,-0.0160064697265625
1700516706312418300,11.338418212890625,-1.0277252197265625,0.01092529296875,0.161834716796875
1700516706322429200,11.34842919921875,-0.535125732421875,-0.0144500732421875,0.030609130859375
1700516706332440000,11.358440185546876,-1.4716796875,-0.14031982421875,-0.0833892822265625
1700516706342451500,11.368451416015626,-0.9941558837890625,-0.2181854248046875,-0.0290985107421875
1700516706352462300,11.37846240234375,-0.7965240478515625,0.1207275390625,-0.0453948974609375
1700516706362472200,11.38847216796875,-1.00335693359375,-0.23602294921875,0.0608673095703125
1700516706372483300,11.3984833984375,-1.086517333984375,-0.3841400146484375,0.0414581298828125
1700516706382494200,11.408494140625,-1.1776123046875,0.02081298828125,0.11956787109375
1700516706392505000,11.418505126953125,-0.9384002685546875,-0.256011962890625,0.31201171875
1700516706402516500,11.4285166015625,-1.31402587890625,-0.607421875,0.1156005859375
1700516706412527400,11.43852734375,-1.1671295166015625,0.0277557373046875,0.2216796875
1700516706422538200,11.448538330078126,-0.73199462890625,-0.3377685546875,0.2674560546875
1700516706432549000,11.458549072265624,-1.06561279296875,-0.372802734375,0.0395660400390625
1700516706442560300,11.468560302734375,-1.171966552734375,-0.2725677490234375,0.157562255859375
1700516706452571100,11.478571044921875,-0.8267364501953125,0.034820556640625,0.1409454345703125
1700516706462583300,11.488583251953125,-0.739715576171875,-0.3575439453125,0.0131683349609375
1700516706472594200,11.49859423828125,-1.0397796630859375,-0.270751953125,0.053466796875
1700516706482605300,11.508605224609376,-0.7647247314453125,0.0764923095703125,0.0001678466796875
1700516706492615200,11.518615234375,-0.8690948486328125,-0.2873687744140625,0.0674285888671875
1700516706502626300,11.528626220703124,-1.0948333740234375,-0.42041015625,-0.0184326171875
1700516706512637400,11.538637451171875,-1.1728973388671875,-0.0322265625,0.10418701171875
1700516706522648300,11.5486484375,-0.6053009033203125,-0.058349609375,0.0654296875
1700516706532659200,11.5586591796875,-1.0311279296875,-0.26019287109375,0.1956024169921875
1700516706542670300,11.56867041015625,-1.1277923583984375,-0.4391326904296875,0.128021240234375
1700516706552681200,11.57868115234375,-0.7647552490234375,0.1336212158203125,0.1486663818359375
1700516706562692400,11.5886923828125,-0.8524017333984375,-0.263153076171875,0.197296142578125
1700516706572703500,11.598703369140624,-1.235076904296875,-0.39483642578125,0.07720947265625
1700516706582714400,11.60871435546875,-0.9902191162109375,0.13446044921875,0.160797119140625
1700516706592725200,11.618725341796875,-0.7041473388671875,-0.2191314697265625,0.185272216796875
1700516706602736000,11.628736083984375,-1.1678466796875,-0.4769134521484375,-0.125579833984375
1700516706612747300,11.638747314453125,-1.2775421142578125,0.150909423828125,-0.0104522705078125
1700516706622757000,11.648757080078125,-0.9582672119140625,-0.232177734375,0.16583251953125
1700516706632768500,11.6587685546875,-1.08087158203125,-0.2540740966796875,0.0408935546875
1700516706642779400,11.668779296875,-1.2059478759765625,-0.210479736328125,0.1236419677734375
1700516706652790300,11.678790283203124,-0.8755035400390625,-0.0037078857421875,0.1964569091796875
1700516706662801200,11.68880126953125,-0.5458984375,-0.482177734375,0.1389617919921875
1700516706672812300,11.698812255859375,-0.78472900390625,-0.2818145751953125,0.080108642578125
1700516706682823200,11.7088232421875,-0.8581695556640625,0.1018218994140625,0.136016845703125
1700516706692834300,11.718834228515625,-1.068817138671875,-0.3804473876953125,0.15020751953125
1700516706702845400,11.728845458984376,-1.395538330078125,-0.491607666015625,-0.06158447265625
1700516706712856300,11.738856201171876,-1.46051025390625,0.1832427978515625,0.11163330078125
1700516706722867200,11.7488671875,-0.9177398681640625,-0.2442779541015625,0.1987457275390625
1700516706732878300,11.75887841796875,-0.9130859375,-0.3899688720703125,0.04034423828125
1700516706742889500,11.768889404296875,-1.152069091796875,-0.1476593017578125,0.045623779296875
1700516706752900400,11.778900390625,-0.9843597412109375,0.061309814453125,0.1566314697265625
1700516706762911200,11.7889111328125,-1.0112457275390625,-0.3526458740234375,0.1687164306640625
1700516706772921300,11.79892138671875,-1.126800537109375,-0.170196533203125,0.08697509765625
1700516706782932200,11.80893212890625,-0.7964324951171875,0.023773193359375,0.15203857421875
1700516706792943400,11.818943359375,-0.5975494384765625,-0.2382049560546875,0.19158935546875
1700516706802954200,11.828954345703124,-0.9245758056640625,-0.4763641357421875,-0.1040191650390625
1700516706812965400,11.83896533203125,-0.9344024658203125,0.083984375,-0.0043792724609375
1700516706822976300,11.848976318359375,-0.7815399169921875,-0.1746673583984375,0.04931640625
1700516706832987400,11.8589873046875,-1.14605712890625,-0.2964630126953125,-0.051910400390625
1700516706842998300,11.868998291015625,-1.335235595703125,-0.1403961181640625,0.1372528076171875
1700516706853009200,11.879009033203126,-0.7884979248046875,0.0430908203125,0.06707763671875
1700516706863020300,11.889020263671876,-0.8593292236328125,-0.3562164306640625,0.0967864990234375
1700516706873031400,11.899031494140624,-1.275299072265625,-0.2407989501953125,0.1936187744140625
1700516706883042300,11.909042236328125,-1.0955963134765625,0.1423797607421875,0.2406768798828125
1700516706893053200,11.91905322265625,-1.0479736328125,-0.30029296875,0.1923980712890625
1700516706903064300,11.929064208984375,-1.1528778076171875,-0.36737060546875,0.1274566650390625
1700516706913075200,11.9390751953125,-0.9124298095703125,0.118255615234375,0.127593994140625
1700516706923086300,11.94908642578125,-0.578948974609375,-0.310211181640625,0.1055450439453125
1700516706933096400,11.959096435546876,-0.991607666015625,-0.4284515380859375,-0.1238555908203125
1700516706943107300,11.969107421875,-0.9313812255859375,0.0446929931640625,0.0984039306640625
1700516706953118200,11.9791181640625,-0.7222442626953125,-0.1618499755859375,0.046600341796875
1700516706963129300,11.98912939453125,-0.834564208984375,-0.3924102783203125,-0.031005859375
1700516706973140200,11.99914013671875,-0.90155029296875,-0.3126220703125,0.1351165771484375
1700516706983151000,12.009151123046875,-0.8188934326171875,0.11846923828125,0.1011810302734375
1700516706993162500,12.01916259765625,-1.247222900390625,-0.1779632568359375,0.1767578125
1700516707003173400,12.02917333984375,-0.9700164794921875,-0.4259796142578125,-0.0867462158203125
1700516707013184300,12.039184326171876,-0.9456787109375,0.246185302734375,0.0451507568359375
1700516707023195400,12.0491953125,-0.8254547119140625,-0.1304931640625,0.1799163818359375
1700516707033206300,12.059206298828125,-1.03118896484375,-0.468902587890625,-0.050811767578125
1700516707043217200,12.069217041015625,-1.2274169921875,0.066925048828125,0.0330352783203125
1700516707053228300,12.079228271484375,-0.71734619140625,-0.0355987548828125,0.1643829345703125
1700516707063239400,12.089239501953125,-0.852569580078125,-0.318267822265625,0.0431365966796875
1700516707073250300,12.099250244140626,-1.0010223388671875,-0.2200775146484375,0.0878753662109375
1700516707083261200,12.10926123046875,-0.66192626953125,0.030487060546875,0.0857086181640625
1700516707093272300,12.119272216796874,-0.94378662109375,-0.35552978515625,0.0621337890625
1700516707103282200,12.1292822265625,-1.16046142578125,-0.2273712158203125,0.05322265625
1700516707113293300,12.139293212890625,-0.794891357421875,0.008209228515625,-0.12872314453125
1700516707123304400,12.149304443359375,-0.8338470458984375,-0.1309967041015625,0.112030029296875
1700516707133315300,12.1593154296875,-1.651214599609375,-0.576904296875,-0.03924560546875
1700516707143326200,12.169326171875,-1.3186798095703125,0.16192626953125,-0.0792694091796875
1700516707153337300,12.17933740234375,-0.5325164794921875,-0.0981903076171875,0.043914794921875
1700516707163348200,12.18934814453125,-0.8482208251953125,-0.3878631591796875,0.097320556640625
1700516707173359400,12.199359375,-1.4138031005859375,-0.0938568115234375,0.0258026123046875
1700516707183370200,12.209370361328125,-1.2183074951171875,-0.139617919921875,0.1371002197265625
1700516707193381400,12.21938134765625,-1.1430816650390625,-0.27935791015625,0.1313323974609375
1700516707203392300,12.229392333984375,-0.917877197265625,0.0767059326171875,0.173248291015625
1700516707213403100,12.239403076171875,-0.7174224853515625,-0.2025604248046875,0.0327301025390625
1700516707223414300,12.249414306640626,-0.802032470703125,-0.3461456298828125,-0.03009033203125
1700516707233425400,12.25942529296875,-1.0030670166015625,-0.2252655029296875,-0.0440673828125
1700516707243436300,12.269436279296874,-1.01654052734375,0.151611328125,-0.036041259765625
1700516707253447200,12.279447265625,-0.9149932861328125,-0.3209075927734375,-0.0309600830078125
1700516707263458300,12.289458251953125,-0.9248809814453125,-0.3529052734375,-0.1375732421875
1700516707273469200,12.29946923828125,-0.9451141357421875,0.1160430908203125,0.0396575927734375
1700516707283479300,12.309479248046875,-1.0116119384765625,-0.09466552734375,0.0366668701171875
1700516707293490400,12.319490478515625,-1.1923675537109375,-0.384735107421875,-0.03729248046875
1700516707303501300,12.329501220703126,-1.2913360595703125,0.0207672119140625,0.047882080078125
1700516707313512400,12.339512451171874,-0.8399658203125,-0.0473785400390625,0.0554962158203125
1700516707323523300,12.3495234375,-1.0340423583984375,-0.204010009765625,0.0770263671875
1700516707333534200,12.3595341796875,-1.23944091796875,-0.2989501953125,0.211273193359375
1700516707343545000,12.369545166015625,-0.8635711669921875,0.0717010498046875,-0.0718231201171875
1700516707353556500,12.379556396484375,-0.787689208984375,-0.1499786376953125,0.0350494384765625
1700516707363567400,12.3895673828125,-1.0196685791015625,-0.3845672607421875,0.0709686279296875
1700516707373578200,12.399578125,-0.876556396484375,0.095184326171875,-0.1295623779296875
1700516707383589400,12.40958935546875,-0.832855224609375,-0.21124267578125,-0.0580902099609375
1700516707393600300,12.419600341796874,-1.220977783203125,-0.4083251953125,-0.0357208251953125
1700516707403611100,12.429611083984375,-1.21484375,0.0758819580078125,-0.0674285888671875
1700516707413622300,12.439622314453125,-0.7521514892578125,-0.143768310546875,-0.0489654541015625
1700516707423633400,12.44963330078125,-1.009490966796875,-0.38543701171875,0.03076171875
1700516707433644300,12.459644287109375,-1.1770782470703125,-0.058319091796875,0.0566253662109375
1700516707443655200,12.4696552734375,-0.86688232421875,-0.081329345703125,-0.0384674072265625
1700516707453666300,12.479666259765626,-0.88848876953125,-0.227996826171875,0.0981903076171875
1700516707463677000,12.489677001953124,-0.9422760009765625,-0.1900177001953125,0.000518798828125
1700516707473687000,12.49968701171875,-0.6951904296875,0.188995361328125,-0.0396881103515625
1700516707483698000,12.509697998046875,-0.9848785400390625,-0.340423583984375,0.039886474609375
1700516707493708800,12.519708740234375,-1.1384124755859375,-0.2177886962890625,-0.0687255859375
1700516707503719700,12.5297197265625,-1.003448486328125,0.134979248046875,-0.1308746337890625
1700516707513731000,12.53973095703125,-0.8224639892578125,-0.1030426025390625,0.0104827880859375
1700516707523742000,12.549741943359376,-0.9578399658203125,-0.4350128173828125,-0.1249542236328125
1700516707533752800,12.5597529296875,-1.13134765625,0.0786895751953125,-0.0714569091796875
1700516707543764000,12.569763916015624,-0.9855804443359375,-0.1694793701171875,0.0292816162109375
1700516707553774800,12.57977490234375,-1.2470855712890625,-0.3575439453125,-0.0680389404296875
1700516707563786000,12.589785888671875,-1.4138336181640625,-0.239837646484375,0.0858612060546875
1700516707573796900,12.599796875,-1.0146331787109375,0.0386199951171875,0.05389404296875
1700516707583808000,12.60980810546875,-0.95428466796875,-0.39288330078125,-0.025115966796875
1700516707593819000,12.61981884765625,-0.9460296630859375,-0.2463836669921875,-0.091522216796875
1700516707603829800,12.629829833984376,-0.8958740234375,0.0130157470703125,-0.0330047607421875
1700516707613841000,12.6398408203125,-0.92498779296875,-0.139495849609375,-0.0446319580078125
1700516707623852000,12.64985205078125,-1.158599853515625,-0.32073974609375,-0.11334228515625
1700516707633863000,12.65986279296875,-0.991058349609375,0.165679931640625,-0.0535736083984375
1700516707643874000,12.6698740234375,-0.6128692626953125,-0.21136474609375,0.0051422119140625
1700516707653885000,12.679885009765625,-0.8690185546875,-0.2754364013671875,-0.0490264892578125
1700516707663895800,12.689895751953125,-0.9890594482421875,-0.0479278564453125,0.0628662109375
1700516707673906000,12.699906005859376,-0.348663330078125,0.0735931396484375,-0.042999267578125
1700516707683916800,12.709916748046876,-1.1638946533203125,-0.123077392578125,0.230499267578125
1700516707693928000,12.719927978515624,-0.926361083984375,-0.2594451904296875,0.08935546875
1700516707703939000,12.72993896484375,-1.0807037353515625,0.1667327880859375,-0.276519775390625
1700516707713950000,12.739949951171875,-1.9324188232421875,-0.3608245849609375,-0.1560211181640625
1700516707723960800,12.7499609375,-1.987701416015625,-0.3497314453125,0.037506103515625
1700516707733971700,12.7599716796875,-1.1627197265625,0.2207489013671875,-0.0712432861328125
1700516707743983000,12.769983154296876,-0.5670318603515625,-0.376434326171875,0.17755126953125
1700516707753994000,12.779993896484376,-0.5430145263671875,-0.3605194091796875,0.078948974609375
1700516707764004900,12.7900048828125,-0.656646728515625,0.1488800048828125,-0.0241241455078125
1700516707774016000,12.80001611328125,-0.9666290283203125,-0.3102264404296875,0.159454345703125
1700516707784027000,12.81002685546875,-1.0544281005859375,-0.355224609375,0.028411865234375
1700516707794037800,12.820037841796875,-0.8773651123046875,-0.0359649658203125,0.1458587646484375
1700516707804049000,12.830048828125,-0.262908935546875,-0.015899658203125,-0.0516204833984375
1700516707814060000,12.84006005859375,-0.688507080078125,-0.30230712890625,-0.10546875
1700516707824071000,12.85007080078125,-1.5200347900390625,-0.286895751953125,-0.1224365234375
1700516707834081800,12.860081787109374,-1.392364501953125,0.2744598388671875,-0.2322998046875
1700516707844093000,12.870093017578125,-0.9026336669921875,0.10302734375,-0.1309661865234375
