time,seconds_elapsed,z,y,x
1700516695030517200,0.056517333984375,0.9371557624280452,-1.1346709696501494,-0.22053112195469438
1700516695040527400,0.06652734375,-0.5833563530385494,0.47126967758126553,-0.007375095345266163
1700516695050537500,0.076537353515625,-1.0234931526660918,0.3930867330305278,0.4232799189813435
1700516695060547300,0.08654736328125,-0.912840236338973,-0.011930676290392874,-0.4600258875764906
1700516695070557400,0.096557373046875,2.308587908017635,-0.26367051791399715,0.5413155294382944
1700516695080567300,0.1065673828125,0.8193342696458101,-0.7428591519262642,-0.467674502633512
1700516695090578400,0.116578369140625,-1.9964245773524045,-0.01978409320451319,0.21701847419124096
1700516695100588300,0.12658837890625,-0.24944763903319833,2.1565487960740923,-0.3239313272072002
1700516695110598400,0.136598388671875,1.723008033710718,-2.049088392177969,0.3783651839125901
1700516695120608300,0.146608154296875,0.04663958609998226,-0.36877624844275414,-0.608721753506735
1700516695130618400,0.156618408203125,-0.8187006479173898,0.5932227902755141,0.5002833714239299
1700516695140628200,0.166628173828125,-1.2116852357476948,0.23284487927854058,0.06799410695899277
1700516695150639400,0.176639404296875,-0.41953707919120786,-0.04875497081875801,-0.3450609167365357
1700516695160649200,0.186649169921875,2.5573101553857325,-0.4107701276287436,0.6051257748413831
1700516695170659300,0.196659423828125,0.06686579704880714,-0.8364144376538694,-0.8316402089893817
1700516695180669200,0.206669189453125,-2.103366364201903,0.8122879313308745,0.3938328021574765
1700516695190679300,0.21667919921875,0.05332125582098961,1.5494070783004164,-0.3289520779786631
1700516695200689400,0.226689453125,1.4319669860512017,-2.0066522491171956,0.45951497891228643
1700516695210700300,0.2367001953125,0.32674948990046976,0.07661036147177219,-0.7853709175065159
1700516695220710400,0.24671044921875,-0.5869494090944528,0.5063488089427352,0.6588352262623608
1700516695230720300,0.25672021484375,-1.8316572089999914,0.35265929944366214,0.010914338854700327
1700516695240730400,0.26673046875,0.33335517177581786,-0.2434114276088774,-0.09206603355053812
1700516695250740200,0.276740234375,2.86778187970221,-0.36416488218978044,0.3838746315164491
1700516695260750300,0.286750244140625,-0.49919279970824715,-0.8406229952596127,-0.5570672253215685
1700516695270761500,0.296761474609375,-1.5412702413350343,1.496273746266961,0.24666505910996347
1700516695280771600,0.306771484375,0.06719955904781819,0.38124921491630376,0.0334074718222022
1700516695290781200,0.31678125,1.4910305849164724,-1.9963572112046182,0.1696958377305418
1700516695300791300,0.326791259765625,0.3450450250476599,0.2603890850905329,-0.4308947413666174
1700516695310801200,0.33680126953125,-0.9712076696336269,0.5133948549967259,0.6397755018096417
1700516695320811300,0.346811279296875,-2.0812410416334868,-0.022646569963544607,-0.32777408370785416
1700516695330822400,0.356822509765625,1.3257576051294804,-0.17886121402606367,0.4432410857858136
1700516695340832500,0.36683251953125,2.592521169498563,-0.6784235046338289,-0.03509118712544441
1700516695350842400,0.37684228515625,-1.914797849023342,-0.24200156081095336,-0.2518972972076386
1700516695360852500,0.3868525390625,-1.5788509071886538,2.097339505127817,0.13467208981811998
1700516695370862600,0.396862548828125,0.9798270294189453,-0.8902446659103035,0.1263435662055388
1700516695380872400,0.40687255859375,1.715029894438386,-1.1985906302444636,-0.23189945165459067
1700516695390883300,0.41688330078125,-0.6083470019102096,0.4337052322100848,-0.044689474945515395
1700516695400893400,0.4268935546875,-1.4656623349040745,0.5282786089390515,0.4895075277244672
1700516695410903600,0.436903564453125,-1.275145608267188,-0.017781886536628006,-0.45833526760842647
1700516695420913400,0.446913330078125,2.7350872274369,-0.22312420718781648,0.4260052157593891
1700516695430923500,0.456923583984375,1.0014303739398718,-0.908778759053722,-0.41870380670484153
1700516695440933400,0.466933349609375,-2.2159546325057744,0.45653979902639985,0.10779106062259525
1700516695450943700,0.47694384765625,-0.7811433629393577,1.8667212158575652,-0.13277064011096953
1700516695460953600,0.48695361328125,1.6272610100924967,-1.9250247901357709,0.36992139988988637
1700516695470963700,0.496963623046875,1.0455658682644366,-0.3935166488803923,-0.5712648236306384
1700516695480973800,0.506973876953125,-1.018546928435564,0.6036686348356306,0.2695168327894062
1700516695490983700,0.516983642578125,-1.4421546180665492,0.033666780345514416,0.3131408704604953
1700516695500993800,0.526993896484375,-0.32136019807755944,0.1241737844184041,-0.4633020231703296
1700516695511004700,0.537004638671875,3.14344883261919,-0.6079656013771891,0.5614382800126448
1700516695521014800,0.547014892578125,-0.40679508651793,-0.6544383064776659,-0.631985067129135
1700516695531024600,0.557024658203125,-1.9422937587141988,1.098580688484758,0.3012420871457085
1700516695541034800,0.56703466796875,0.05874211182594299,0.8259316220842301,-0.07529043797962368
1700516695551044600,0.577044677734375,1.8902414999157189,-1.9328613289803265,0.23012038621809333
1700516695561054700,0.5870546875,-0.15171557907760141,0.17983707332089544,-0.5444920040499419
1700516695571065600,0.597065673828125,-1.1431991440206766,0.599771919658035,0.6055709247929975
1700516695581075700,0.60707568359375,-1.4027560891360045,0.02109773308634758,-0.13531184902638196
1700516695591085600,0.61708544921875,1.1540478702932595,-0.2828010425806045,0.1374332981597632
1700516695601095700,0.627095703125,2.3977286652386187,-0.6119073247402906,0.07990286367852241
1700516695611105800,0.637105712890625,-1.8836901785761118,-0.14171280210986734,-0.3269786224812269
1700516695621116700,0.64711669921875,-1.3740519726991653,1.6998805483624337,0.16422573575638233
1700516695631126500,0.65712646484375,1.2929554057240484,-0.5139914326503873,0.08838734503779559
1700516695641136600,0.66713671875,1.5544669920384884,-1.424708831616491,-0.1138665446113795
1700516695651146800,0.677146728515625,-0.9584370353877544,0.5749125690158456,-0.23746252914182842
1700516695661156600,0.687156494140625,-1.0619190371721983,0.48139739610292015,0.5183157255902886
1700516695671166700,0.697166748046875,-0.8575631702750921,-0.022826821901276707,-0.3864295766962692
1700516695681177900,0.707177734375,2.2604607137084005,-0.35164142763800915,0.38975557931382204
1700516695691188000,0.71718798828125,0.7933505180835724,-0.5796548681721091,-0.5172854326944798
1700516695701197800,0.72719775390625,-2.1828286079734562,0.17339659194462,0.2702337123544887
1700516695711208000,0.7372080078125,-0.537272647255659,1.6967605166457593,-0.3520189191808924
1700516695721217500,0.747217529296875,2.008535286384821,-1.5466899282962083,0.3990452395761385
1700516695731229000,0.75722900390625,0.3854436709314584,-0.48865255486294623,-0.6451123327929527
1700516695741238800,0.76723876953125,-1.4588251823604106,0.4891478640992194,0.4734911895556375
1700516695751249000,0.777248779296875,-0.7807447190105915,0.24786650732159612,0.09368150592315941
1700516695761258800,0.7872587890625,-0.1344885499447584,-0.046597573589161036,-0.22856767688337712
1700516695771268900,0.797268798828125,2.810523284432292,-0.3454706300485879,0.31860878047756847
1700516695781279000,0.807279052734375,-0.8493880471259355,-0.7270435239613056,-0.46894671452641484
1700516695791289900,0.817289794921875,-2.052467367091775,0.9667615769449621,0.4341900931175798
1700516695801299700,0.8272998046875,0.5894400568664073,1.0759428863495588,-0.33734413181412964
1700516695811309800,0.837309814453125,2.2547055111825465,-2.053817320396006,0.4466727042023092
1700516695821320000,0.84731982421875,-0.6088268943816423,0.19877762837335466,-0.5926331172866747
1700516695831329800,0.857329833984375,-1.375598617619276,0.5192626510515809,0.6607151947900652
1700516695841340700,0.867340576171875,-0.727885820004344,0.037630350214242936,-0.14200005808603017
1700516695851350800,0.877350830078125,0.8691682678729296,-0.09676774496808647,0.03916289354376495
1700516695861361000,0.88736083984375,2.4042197808235883,-0.3819077518902719,0.07708108425606042
1700516695871370800,0.897370849609375,-1.8592121554017065,-0.5896702123604715,-0.2978102495335042
1700516695881380900,0.907380859375,-1.508666779372096,1.4258596090868114,0.20578513251524416
1700516695891390700,0.917390625,1.2066764676749706,0.3716695587314665,-0.11336531709097325
1700516695901401900,0.92740185546875,1.9267904846340416,-1.7617707489557564,0.12486680818386375
1700516695911411700,0.93741162109375,-1.389685010638833,0.34553039741180835,-0.32438100720345975
1700516695921421800,0.947421875,-0.9882131649702787,0.47396278912276024,0.5441038449825719
1700516695931431700,0.957431640625,-0.625478169453144,-0.08325608309656381,-0.2656490149127319
1700516695941441800,0.96744189453125,1.4214502682119607,-0.01926642600595951,0.25032738100979474
1700516695951452700,0.97745263671875,1.716919069185853,-0.5543700586594641,-0.1189499488228932
1700516695961462800,0.987462890625,-2.189925288236141,-0.5584885998941957,0.03666212623659521
1700516695971472600,0.99747265625,-0.9633990417093038,1.835591041317582,-0.11679211320187896
1700516695981482800,1.007482666015625,1.394696116799116,-0.28268106946274635,0.12099720020890235
1700516695991492900,1.017492919921875,1.5155273127913473,-1.5654215167731045,-0.06250212194658815
1700516696001503700,1.027503662109375,-1.4561246912300585,0.4922972680408507,-0.14497001380752772
1700516696011513600,1.037513671875,-0.9372264895766973,0.3597217851758003,0.3726584236383438
1700516696021523700,1.047523681640625,-0.6925526408165693,-0.3115767629489302,-0.2285864911817014
1700516696031533800,1.057533935546875,1.8327327292770146,0.3250681126847863,0.19734821662474422
1700516696041543700,1.067543701171875,1.637823905161023,-1.0134323619008063,-0.146781301013194
1700516696051553800,1.0775537109375,-2.4750544815033675,-0.1621300055861473,-0.016401903420314192
1700516696061564700,1.087564697265625,-0.6068190616905689,1.9411274914138017,-0.13967680277023464
1700516696071574800,1.09757470703125,1.6721967148840426,-0.8156136416874825,0.17087427039276806
1700516696081584600,1.107584716796875,1.222908640551567,-1.3001377184435725,-0.20292039073389023
1700516696091594800,1.1175947265625,-1.5702426533192395,0.5649140298318117,0.12854746945798395
1700516696101604600,1.1276044921875,-0.831952928200364,0.31123715573102234,0.20640717340372502
1700516696111615700,1.13761572265625,-0.6177548817247152,-0.22775164779275656,-0.18929460096340625
1700516696121625600,1.14762548828125,2.1821663446724413,0.18914134663045407,0.15745335554461926
1700516696131635700,1.1576357421875,0.976338018259406,-0.9807155026912688,-0.14579302062820643
1700516696141645600,1.1676455078125,-2.402472644895315,-0.007273059742897749,0.0920018457405269
1700516696151655700,1.17765576171875,-0.4628139108598232,2.070943957894295,-0.3035577802095562
1700516696161666600,1.18766650390625,1.759714839339256,-1.2084770873561501,0.3454562727296725
1700516696171676700,1.1976767578125,0.8534475516498088,-0.9856990632575005,-0.37138818450681865
1700516696181686500,1.2076865234375,-1.6380220580816267,0.5776654479205608,0.2873649894952774
1700516696191696600,1.217696533203125,-0.7665700631856918,0.2906941339179873,0.07669237719941883
1700516696201706800,1.227706787109375,-0.5258516740530729,-0.1302577805072069,-0.14380959172602742
1700516696211718000,1.2377177734375,2.41960264339447,0.10443930250927805,0.2450586468266323
1700516696221727700,1.247727783203125,0.5302367572695017,-1.0297389151878655,-0.24830128200966864
1700516696231737900,1.25773779296875,-2.397485504132509,0.2749135042011738,0.25014961329009383
1700516696241748000,1.267748046875,-0.17420915043652058,1.9844358872644603,-0.34012265661675484
1700516696251757800,1.2777578125,2.008636993193626,-1.6034712614431976,0.32676830419879405
1700516696261768700,1.287768798828125,0.563125465914607,-0.7446516613662243,-0.4207888328179717
1700516696271778800,1.29777880859375,-1.536136385577917,0.646051001882553,0.3702604956511408
1700516696281789000,1.307788818359375,-0.730226245650649,0.07309957687184214,-0.03624342590048909
1700516696291798800,1.317798828125,-0.24853286227583885,0.107780575761199,-0.2351706553449854
1700516696301809000,1.327808837890625,2.5822651484221217,-0.11181669940948485,0.43925165082346646
1700516696311819800,1.33781982421875,0.2909457705914974,-1.089109899501875,-0.5328054387137293
1700516696321830000,1.347829833984375,-2.441395373007655,0.5964147181846201,0.40303511292990296
1700516696331839700,1.35783984375,-0.05891629934906959,1.7451733960285782,0.01756608836147934
1700516696341849900,1.367849853515625,1.5854869842022656,-1.6853404202260076,0.09144665954317897
1700516696351859700,1.377859619140625,0.5312070636063814,-0.5607986304022371,-0.6340923416066915
1700516696361870800,1.387870849609375,-1.250042731192708,0.8479722620438784,0.5461320994071662
1700516696371880700,1.397880615234375,-1.2714619513183831,0.12752075675874947,0.024964893375895917
1700516696381890800,1.407890869140625,-0.5023819511383771,0.027935031760483977,-0.08145400211066008
1700516696391900700,1.417900634765625,3.0644758336693045,-0.276503988263011,0.3729553607583046
1700516696401911800,1.427911865234375,0.01750000085532665,-0.8228653663814067,-0.6824677385233342
1700516696411921700,1.437921630859375,-2.220989119541645,0.6654128510870039,0.6263065831013024
1700516696421931800,1.447931884765625,-0.2541933722555637,1.8555670768976211,-0.3054637964939698
1700516696431941600,1.457941650390625,1.7553601512610912,-2.276028139065951,0.3804273771394044
1700516696441951700,1.46795166015625,0.3318798385262489,-0.06911554873697459,-0.5532830306077375
1700516696451962000,1.477962158203125,-0.6957008757144212,0.33817557766959067,0.5394697554411366
1700516696461972200,1.48797216796875,-1.3568617684453725,0.4018769924033433,0.14427552873734384
1700516696471982300,1.497982421875,-0.6137549984335899,-0.022851298755407333,0.05819572998955846
1700516696481992000,1.507991943359375,2.804759898599982,-0.6986216585319489,0.22265176737047732
1700516696492002000,1.518001953125,0.2287058797776699,-0.9095268740072846,-0.4476818081796169
1700516696502013200,1.52801318359375,-1.727562628275156,0.9479888527400792,0.19618574871663003
1700516696512023300,1.538023193359375,-0.06348199982941151,1.2620333209767938,-0.3726703698044643
1700516696522033200,1.548033203125,1.1283142940998077,-2.8260838416576384,0.6118552657594903
1700516696532043300,1.558043212890625,0.4392266990453005,0.7782685381554066,-0.6391220794022083
1700516696542054100,1.56805419921875,-0.7286766781210899,0.2904241578701883,0.1602545305704698
1700516696552064300,1.578064208984375,-1.6100509320944547,-0.17722396821305156,0.22266396926492452
1700516696562074000,1.58807421875,0.6087538291454315,0.1604443905867636,-0.14717044646125285
1700516696572084200,1.598084228515625,2.6858839283287526,-0.76482964925915,0.18038086134139447
1700516696582094000,1.608093994140625,-0.4908382283389568,-0.21818755450323224,-0.4636997537836432
1700516696592105200,1.618105224609375,-1.6969845346599817,1.8742970579393208,-0.07846899495050311
1700516696602115000,1.628114990234375,0.4190945961207151,-0.05237929879575968,-0.025228037824109196
1700516696612125200,1.638125244140625,1.8785142372429369,-1.9971737882845102,0.37698490853533145
1700516696622135000,1.648135009765625,-0.06752572226226329,1.2342859207428991,-0.702452688062191
1700516696632146200,1.658146240234375,-1.6696709957987068,0.39547611238509417,0.42189642873369154
1700516696642156000,1.668156005859375,-1.5586083296269178,-0.03155599873661995,-0.05612137140091508
1700516696652166100,1.678166259765625,1.8536814092814922,0.02817205538675189,0.3186736989399418
1700516696662176300,1.68817626953125,1.9508973364084958,-0.7083341473162174,-0.3554429388128221
1700516696672186000,1.69818603515625,-2.1525316693872214,0.2734242885567248,0.029513313927873968
1700516696682197000,1.708197021484375,-1.5104098236471413,2.140028015514463,-0.29924156097825616
1700516696692207000,1.71820703125,1.3219172963142394,-1.5683495330490171,0.2789299733009189
1700516696702217200,1.72821728515625,1.6022709457427262,-1.1757289562255144,-0.19759656536262482
1700516696712227000,1.73822705078125,-1.0926637195259332,0.8645191268928348,-0.1674335188217461
1700516696722238000,1.748238037109375,-1.6146265694469213,0.016744652443379162,0.31760332976207134
1700516696732248000,1.758248046875,-0.6491144811064005,0.12288637495636939,-0.3366533000057563
1700516696742258200,1.768258056640625,2.870805611437559,-0.4126376750662923,0.38276688947025683
1700516696752268000,1.77826806640625,0.67110361007452,-1.0405484784938395,-0.6641662120267748
1700516696762279000,1.78827880859375,-2.248679090499878,0.5015101367399096,0.2738732379006222
1700516696772289000,1.7982890625,-0.24310908366143702,1.6787215866081415,-0.6050798898730426
1700516696782299100,1.808299072265625,2.206233448958397,-2.194806338275969,0.614014964544028
1700516696792309000,1.81830908203125,0.26231881104409693,-0.1798706833295524,-0.7053001864477991
1700516696802319000,1.828319091796875,-1.4292477902203797,0.7015078084275126,0.5250553360436111
1700516696812330000,1.838330078125,-0.9000941520124673,-0.15968465826064349,0.021436244325712322
1700516696822340000,1.848340087890625,0.03607026129066944,0.41842254207804797,0.1098619120799005
1700516696832350000,1.858349853515625,2.7074603848427534,-0.6988581707015633,0.29799123212359846
1700516696842360000,1.868360107421875,-0.8517916011363268,-0.5130827933728694,-0.3997041418762877
1700516696852371200,1.87837109375,-2.0655951442122458,1.4017125714324414,0.49767165455557405
1700516696862381300,1.88838134765625,0.5201046548336744,0.9193521024510264,-0.35129721731021996
1700516696872391200,1.89839111328125,2.030187730744481,-2.455409285312891,0.6518766392961144
1700516696882401300,1.9084013671875,-0.6275748494714498,0.48532560239732264,-0.5793692196311429
1700516696892412200,1.918412109375,-1.449598504331708,0.9293401202410458,0.7612296520058065
1700516696902422300,1.92842236328125,-1.0415718301922083,-0.3640484162032604,-0.1306547439355403
1700516696912432000,1.93843212890625,1.1861433827340602,0.16829802669659255,0.12993618387002498
1700516696922442200,1.948442138671875,2.294593869456649,-0.9084687432564794,0.12555387713257224
1700516696932453000,1.958453125,-1.6165268501102923,-0.11780329953841864,-0.29707725908383725
1700516696942463200,1.968463134765625,-1.7015315304398535,1.8189388894632457,-0.023208112836442887
1700516696952473000,1.97847314453125,1.3813847998052835,-0.21842603943422437,-0.0651406537566334
1700516696962483200,1.988483154296875,1.7451093908816575,-1.8423720797598362,0.1696363991608843
1700516696972494000,1.998494140625,-0.7816115649729967,0.7974317229826002,-0.4778285611728206
1700516696982504200,2.008504150390625,-1.4073399097949266,0.658588558024913,0.574921008050628
1700516696992514000,2.01851416015625,-1.1484773766845464,0.05345116581097245,-0.4857088295612484
1700516697002524200,2.028524169921875,2.0474644442379475,-0.310999985974282,0.4365922954211011
1700516697012535000,2.03853515625,1.772400717911124,-0.8628953250832855,-0.33219047537799923
1700516697022545200,2.048545166015625,-1.9177134442090986,0.019873451988399026,0.021257161431759593
1700516697032555000,2.058554931640625,-1.2080839963853358,1.9750722849830984,-0.3228411573503166
1700516697042565000,2.068565185546875,1.442354524552822,-1.3773027911886573,0.3489575588488951
1700516697052576000,2.078575927734375,1.159022736096382,-1.1799297689162194,-0.5143998307881876
1700516697062586000,2.088586181640625,-0.8262900801330805,0.46149851741231973,0.25569508205540475
1700516697072596000,2.098595947265625,-1.1125199281185865,0.3426798302862793,0.27403303157221526
1700516697082606000,2.108606201171875,-0.9020552229523658,0.04540945978313684,-0.32740751541778446
1700516697092617000,2.118616943359375,2.6748002242565154,-0.4486225230958312,0.3541170970365405
1700516697102627000,2.128626953125,0.49170799691081046,-0.8046767987400293,-0.30626861007083206
1700516697112637000,2.138636962890625,-2.05900407538414,0.842915636241436,0.28250249802544714
1700516697122648300,2.1486484375,-0.18687573978602884,1.4067749693885445,-0.2810518608257174
1700516697132658200,2.158658203125,1.928134300458431,-2.111089944191277,0.6927068084649741
1700516697142668000,2.16866796875,0.37178280984759327,-0.06987908045537769,-0.6780098823316395
1700516697152678000,2.178677978515625,-1.0535907692879438,0.7676522323992103,0.4920504902055487
1700516697162689300,2.188689208984375,-1.4659429054111242,0.22377938316091894,0.088707370772399
1700516697172699100,2.19869921875,0.539870847055316,-0.10816036885902285,0.004989296187274158
1700516697182709200,2.208709228515625,2.835308766120672,-0.5902146945007145,-0.05798500984832644
1700516697192719000,2.218718994140625,-1.3551800989687441,-0.3758350078478455,-0.3168260252466425
1700516697202730200,2.228730224609375,-1.8193273042589424,1.675700339090824,0.052248110164143144
1700516697212740000,2.238739990234375,0.9094324737221002,0.13929653474837542,-0.16904606858491897
1700516697222750200,2.248750244140625,1.7634259688168763,-1.9557208110421895,0.05468381287846714
1700516697232760000,2.258760009765625,-0.800921245598793,0.5198604708142578,-0.4477081116646528
1700516697242771200,2.268771240234375,-1.1056944660127161,0.7551068582765758,0.37421343452800065
1700516697252781000,2.278781005859375,-0.9677543143093585,-0.019957330879569052,-0.3967339304264635
1700516697262791200,2.288791259765625,1.807774229109287,-0.37824922938272354,0.4039498531546443
1700516697272802000,2.298802001953125,1.474497967788577,-0.7078104157030582,-0.5426754561472684
1700516697282812200,2.308812255859375,-2.007402482962608,0.2675777544856071,0.26879315815735605
1700516697292822000,2.318822021484375,-0.900133899500966,1.9119553190737961,-0.38527993173711
1700516697302832000,2.32883203125,1.5708844583541155,-1.531802155765891,0.42735312323700636
1700516697312843000,2.338843017578125,0.9779021988362073,-0.8984919775128364,-0.47671157637424766
1700516697322853000,2.34885302734375,-1.2676175508499146,0.6618684564784169,0.4461785640098154
1700516697332863000,2.358863037109375,-0.7757505639851093,0.4917202718704939,0.19535477778520435
1700516697342874000,2.3688740234375,-0.7547434317916631,-0.2100412190571427,-0.09666092359274625
1700516697352884000,2.378884033203125,2.839113419100642,-0.35858868949264283,0.4011101727493107
1700516697362894000,2.38889404296875,0.011868716970086096,-0.7528735462665558,-0.34597730092909185
1700516697372904000,2.398904052734375,-2.2824866675555704,0.5903111406125128,0.5319404559148475
1700516697382915000,2.4089150390625,0.07493570625782013,1.7901013559050858,-0.25695662642382083
1700516697392925000,2.418925048828125,2.1057214028954503,-2.2792542615056037,0.545538005971536
1700516697402935000,2.42893505859375,-0.1609802510291338,-0.122918815921247,-0.4951755999561399
1700516697412946200,2.4389462890625,-1.418963712093234,1.0761531680993734,0.5988491787899285
1700516697422956300,2.448956298828125,-0.9033551996350287,-0.19137188216149806,-0.018023330609686673
1700516697432966100,2.458966064453125,0.3339852863729,0.2702405439540744,0.0709052816979587
1700516697442976300,2.468976318359375,2.6925363719552755,-0.6780120742887258,-0.06398527317643166
1700516697452987400,2.4789873046875,-1.493748611703515,-0.39542482058927414,-0.1975822811089456
1700516697462997500,2.48899755859375,-1.768385637050867,1.426712718784809,0.10905205700173973
1700516697473007400,2.49900732421875,0.7875900548607111,0.41581250571012496,-0.21545012889597565
1700516697483018800,2.509018798828125,2.388954991674423,-2.3643244082868096,0.16866612935662267
1700516697493028600,2.519028564453125,-0.8497872755765914,0.8056924055233597,-0.5550383498424664
1700516697503038700,2.529038818359375,-1.5506582474052906,0.407356519792974,0.36862777988277373
1700516697513049600,2.539049560546875,-0.713635176333785,-0.31433073783218857,-0.3269812162971124
1700516697523059700,2.549059814453125,1.498537599545717,0.20044629223793745,0.08516034581530839
1700516697533069600,2.559069580078125,2.2085499092072247,-0.921590821288526,-0.2378729365736246
1700516697543079700,2.56907958984375,-1.9630863713741302,-0.26465719086378814,-0.1038853218883276
1700516697553090600,2.579090576171875,-1.499453545346856,1.6859128132864831,-0.1664189714843407
1700516697563100700,2.5891005859375,1.1889625318080186,-0.26059125659912824,0.1338869673224166
1700516697573110500,2.599110595703125,2.090099470871687,-1.7806772556081414,-0.09968060020748526
1700516697583121700,2.60912158203125,-1.101744851604104,0.6685973263420164,-0.15829335003271697
1700516697593131500,2.619131591796875,-1.4563783737301825,0.40207565678060053,0.4123545838085934
1700516697603141600,2.6291416015625,-0.8581400933802127,0.08523761230260134,-0.19183380058482288
1700516697613152500,2.639152587890625,1.802224193766713,-0.05827347140088677,0.2583685025157407
1700516697623162600,2.64916259765625,2.106625073736906,-0.7539077116198837,-0.11113025151528418
1700516697633172500,2.65917236328125,-1.9845476770758628,-0.21038009562268853,0.0750138495279476
1700516697643183400,2.669183349609375,-1.520151465460658,1.9036888643793761,-0.1431241667451337
1700516697653193500,2.679193359375,1.0258125355243681,-0.222210818669945,0.3020595410084352
1700516697663203600,2.68920361328125,1.8045237028807402,-1.5783604933232067,0.006502879087999462
1700516697673214500,2.69921435546875,-0.7068249117970467,0.41459304691776633,-0.09859452200382947
1700516697683224300,2.709224365234375,-1.296061555045843,0.443102955956757,0.41174058009609577
1700516697693234400,2.719234375,-1.170502161487937,0.00021525018587708472,-0.22464604646023362
1700516697703244500,2.72924462890625,1.6648673949092625,0.20192279453128575,0.21818145355600863
1700516697713255700,2.739255615234375,2.137430546367168,-1.0800281098365783,0.03012125322576612
1700516697723265500,2.749265625,-1.643062974858284,-0.31584070400372144,-0.04369494748283177
1700516697733275600,2.759275634765625,-1.4333733457177877,1.9399134394489228,-0.2183629110701382
1700516697743286500,2.76928662109375,0.883296746468544,-0.5969415185377002,0.34147166007291524
1700516697753296600,2.779296630859375,1.8153917183756827,-1.4137639514930544,-0.2148943216441199
1700516697763306500,2.789306396484375,-0.8567261349290609,0.43035782147832213,-0.007137487197108566
1700516697773317600,2.799317626953125,-1.1619348241508007,0.279894507484138,0.22737664046790448
1700516697783327500,2.809327392578125,-1.2793465670883655,-0.23534517166167496,-0.10883954676222056
1700516697793337600,2.819337646484375,2.1144740336716175,0.39901802277565,0.012983254083245991
1700516697803348500,2.829348388671875,1.9126193359404802,-1.2332204834684728,0.03465151706654578
1700516697813358600,2.839358642578125,-2.167557973605394,0.07318535545915365,-0.17860782378688453
1700516697823368400,2.849368408203125,-1.3113672607272862,2.011485368362069,-0.23903390664439647
1700516697833379600,2.859379638671875,1.292988138949871,-0.8247761684387922,0.37070429389588533
1700516697843389400,2.869389404296875,1.6999071441084146,-1.2253291456967592,-0.30226529271360486
1700516697853399600,2.879399658203125,-1.1261983248591423,0.6490699113123118,0.0009514555059373378
1700516697863410400,2.889410400390625,-1.408025553971529,0.27999621429294347,0.24643464788757263
1700516697873420500,2.899420654296875,-1.0334545747101307,0.034871991416811944,-0.16851736853569746
1700516697883430400,2.909430419921875,2.347081597062945,0.26666721551194783,0.09887976868599653
1700516697893441500,2.919441650390625,1.63659874728024,-1.1529980689793824,0.02918868508338928
1700516697903451400,2.929451416015625,-2.3237071512162686,0.20113310545831917,-0.16145342149883507
1700516697913461500,2.93946142578125,-1.0805851591974496,2.0294671613849697,-0.20057810192406175
1700516697923472600,2.94947265625,1.5991963606029749,-1.1698514424942432,0.3837201350744813
1700516697933482800,2.959482666015625,1.4238433008283375,-1.1115487449988721,-0.3389141210772097
1700516697943492600,2.96949267578125,-1.2969237248331307,0.5405635054945945,0.16685111582390963
1700516697953503500,2.97950341796875,-1.1695534824609757,0.27675167941376566,0.1380772951517254
1700516697963513600,2.989513671875,-0.8689251067668199,-0.0002234334923326969,-0.15883859935794026
1700516697973523700,2.999523681640625,2.5189322016745805,-0.040417496714740986,0.14051193842012435
1700516697983534600,3.00953466796875,1.2208008546173572,-0.9591116467136889,-0.07383085028845816
1700516697993544700,3.019544677734375,-2.151877004870772,-0.05413549481332302,0.019130634264461696
1700516698003554600,3.029554443359375,-0.8246779687613248,1.9531262645043432,-0.34122444384619594
1700516698013565400,3.0395654296875,1.710454841607809,-1.2521908491373062,0.45235323405675587
1700516698023575600,3.049575439453125,1.143739242246747,-1.0106612166870386,-0.42573158644977954
1700516698033586400,3.05958642578125,-1.26928577632308,0.3291571355640888,0.3274161005830392
1700516698043596500,3.069596435546875,-1.002890509620309,0.36060236740261314,0.04400741096548736
1700516698053606400,3.0796064453125,-0.9725947400778532,0.04197743950784206,-0.21935696360878645
1700516698063617500,3.089617431640625,2.7267753261655567,-0.10701287932433187,0.24155790869668126
1700516698073627400,3.09962744140625,0.8666922331482172,-1.0073987808249891,-0.18051650695241986
1700516698083637500,3.109637451171875,-2.2297534407556054,0.41152701041065154,-0.02623571702931076
1700516698093648400,3.1196484375,-0.7108060903877019,1.8692349522441625,-0.3172752303188667
1700516698103658500,3.129658447265625,1.7309838348954916,-1.3965103266142307,0.39205545375403017
1700516698113668400,3.13966845703125,0.8517208739876747,-0.4901382633760571,-0.5178361619124189
1700516698123679700,3.1496796875,-1.1467425157159565,0.5308906180683524,0.33515159020591523
1700516698133689600,3.159689697265625,-1.2906085503369569,0.3218894095834344,-0.0020116686159744857
1700516698143699700,3.16969970703125,-0.6201660345196723,0.3417434992842376,-0.3027004692604765
1700516698153710600,3.179710693359375,2.9540467892259357,-0.15056728582531212,0.21200002497471868
1700516698163720700,3.189720703125,0.2070160260170698,-0.8778292017776519,-0.24103856099769472
1700516698173731600,3.199731689453125,-2.12110835711956,0.8537217654813081,0.025580504523590206
1700516698183741700,3.20974169921875,-0.541838347736001,1.610016006911546,-0.31916382054444403
1700516698193751600,3.21975146484375,1.9003414536476133,-1.7780320017963647,0.512345126748085
1700516698203762400,3.229762451171875,0.44817514465451236,-0.22526392263025044,-0.5648922563914209
1700516698213772500,3.2397724609375,-1.074416699695587,0.5118259251795709,0.4604826914332807
1700516698223782700,3.24978271484375,-1.4500105922639368,0.05418181817308068,0.04090849510207772
1700516698233793500,3.25979345703125,-0.1811538550078869,0.21943192854113874,-0.22072890954911709
1700516698243803400,3.269803466796875,3.1924545633286234,-0.532630958929658,0.35836331977155056
1700516698253814500,3.279814453125,-0.33540275195538993,-0.9458760983698069,-0.19745989683829246
1700516698263824400,3.289824462890625,-1.9156570962011814,1.1402706162881104,0.14165080625694243
1700516698273834500,3.29983447265625,-0.21569617607891559,0.8775342374190688,-0.18342859500683842
1700516698283845400,3.309845458984375,1.9352654675126075,-1.9696077359668909,0.5135245823236182
1700516698293855500,3.31985546875,0.16798983753025531,0.03122413643375039,-0.4250629664732143
1700516698303866600,3.32986669921875,-0.913153540071845,0.5219683298137039,0.5411295053469016
1700516698313876700,3.339876708984375,-1.565407488247752,-0.1285975922100246,0.02992083528283983
1700516698323886600,3.349886474609375,0.5685767170578241,0.16028211269713938,-0.04498582754358649
1700516698333897500,3.3598974609375,3.0496950286448,-0.7001800669550895,0.2732896658590063
1700516698343907600,3.369907470703125,-1.2297545609235763,-0.5162798358485102,-0.2058602070454508
1700516698353917700,3.379917724609375,-1.7748685693293809,1.8007739949584005,-0.06380242742281407
1700516698363928600,3.389928466796875,0.3427256421893835,-0.0006253653567284346,0.15188399444706738
1700516698373938700,3.399938720703125,2.0614450387954713,-1.716771477408707,0.08795896355789154
1700516698383949600,3.409949462890625,-0.5177291578739881,0.5091489610552787,-0.2872264212748036
1700516698393959400,3.41995947265625,-1.2231991479307411,0.587523044263944,0.3947412222392857
1700516698403969500,3.429969482421875,-1.4661346285909413,0.018756430657207966,-0.2875749424515292
1700516698413980400,3.43998046875,1.8357517848372458,0.019051833407208323,0.08704809579066931
1700516698423990500,3.449990478515625,2.0433985099732874,-0.8179428883526474,-0.07979330235682427
1700516698434001400,3.46000146484375,-1.9269547352850436,0.041662601405009624,-0.109986853633821
1700516698444011500,3.470011474609375,-1.4082114319324492,1.9845615594707429,-0.36436931872069833
1700516698454022000,3.48002197265625,1.3313777830988167,-0.9756614341720938,0.43252420573197303
1700516698464032800,3.49003271484375,1.5500573589026927,-1.0935125914402306,-0.4258252195499837
1700516698474043000,3.50004296875,-1.1181564727008342,0.49754349813126025,0.07563048358894885
1700516698484054000,3.510053955078125,-1.2101380063056946,0.49440775738880033,0.17892116405237465
1700516698494064000,3.520064208984375,-0.9277262553036212,0.08233166172802447,-0.3300143003826961
1700516698504074000,3.530073974609375,2.7583658116936682,-0.2784328374337405,0.16970639565717427
1700516698514085000,3.540085205078125,0.7661708347350359,-0.8254149047337472,-0.2575741007350385
1700516698524095000,3.550094970703125,-2.2321593328535556,0.44290641047134993,0.16217983607724307
1700516698534106000,3.560106201171875,-0.7030582527399063,1.6875221481792628,-0.4473922506485134
1700516698544116000,3.570115966796875,2.0832290005803107,-1.5825307647451758,0.5268195692371577
1700516698554126000,3.5801259765625,0.5354074379056691,-0.5441540773324668,-0.6009119200060143
1700516698564137000,3.590136962890625,-1.3127064003765583,0.5213290820620954,0.41779991666767746
1700516698574147000,3.60014697265625,-1.0395061298340558,0.38733401472270484,0.0744711209533736
1700516698584158000,3.610157958984375,-0.170308635866642,-0.13739113951846957,-0.15962065311372278
1700516698594168000,3.62016796875,3.052702978289127,-0.2906147120062262,0.17977372576110065
1700516698604178000,3.630177978515625,-0.6043547174036502,-0.7746117692135274,-0.15650164431035518
1700516698614188800,3.640188720703125,-2.092701177802682,0.9762820502884686,0.18707239486929028
1700516698624199000,3.650198974609375,0.07577566421329975,1.1524446728803217,-0.21276889045536518
1700516698634210000,3.6602099609375,2.278932189944386,-1.8811654824040829,0.43707171296849845
1700516698644220200,3.67022021484375,-0.48618134244382377,-0.006048778644949198,-0.46109589142818
1700516698654230000,3.68022998046875,-1.2506266685605048,0.5530148446582257,0.5703226108770817
1700516698664241200,3.6902412109375,-0.9998217696994542,0.05292728806734085,-0.03207534643560648
1700516698674251000,3.7002509765625,0.703213735562563,0.03433174706026911,-0.03969601403977722
1700516698684262100,3.71026220703125,2.751539765065908,-0.4147143352098763,0.06849007378239184
1700516698694272000,3.72027197265625,-1.6482336554944514,-0.5663787686221301,-0.07751589547675103
1700516698704283000,3.730282958984375,-1.6440362038046121,1.5618978726916015,-0.025146898879297077
1700516698714293000,3.74029296875,0.8776128556132317,0.22917641989886758,0.009021510845422744
1700516698724303000,3.75030322265625,2.2301439013779163,-1.675099012196809,0.04740951102655381
1700516698734314000,3.76031396484375,-1.1329963144361972,0.32825288020074367,-0.20489114281758664
1700516698744324000,3.770323974609375,-1.1914397355765103,0.5738759925097227,0.3181286688104272
1700516698754335000,3.7803349609375,-0.9199088595509528,-0.0018381752125918864,-0.17129669705592096
1700516698764344800,3.7903447265625,1.6369225724071264,-0.027666370886936784,-0.0061511065082624555
1700516698774356000,3.80035595703125,2.074457080581784,-0.6568821194332093,-0.03563212560173124
1700516698784365800,3.81036572265625,-2.0552187116265297,-0.30518567367233335,-0.012769209473766386
1700516698794376000,3.8203759765625,-1.329113345298171,1.8159008369415996,-0.2691004705408588
1700516698804387000,3.830386962890625,1.2845628404319285,-0.47036111136898395,0.21189254601225255
1700516698814397200,3.840397216796875,1.7839970476806162,-1.3996177911102772,-0.21531594458967446
1700516698824408000,3.850407958984375,-1.3894979636341334,0.3616077450528741,0.030292152813263237
1700516698834418200,3.860418212890625,-1.0766489887923,0.5671458074718714,0.20351123276650904
1700516698844429000,3.870428955078125,-1.0180255349099636,-0.09394815750271081,-0.20356124592069536
1700516698854439000,3.88043896484375,2.410891513672471,-0.07418050397634506,0.09301409152299166
1700516698864449000,3.890448974609375,1.3797154052883385,-0.8123216874700039,-0.06064027359746396
1700516698874460000,3.9004599609375,-2.3586738351792094,-0.012523966008424758,0.09309552272874862
1700516698884470000,3.910469970703125,-0.8706026845902204,1.9729396568685769,-0.33781613324005155
1700516698894481000,3.92048095703125,1.8419231669485567,-1.0884086193647236,0.3941930137719959
1700516698904491000,3.930490966796875,1.0458809255629777,-1.0138432077240198,-0.33161892256774006
1700516698914502000,3.940501953125,-1.4897475593686103,0.49956177915111183,0.28813582773730156
1700516698924512000,3.950511962890625,-0.9034183279991149,0.5326115235768258,0.15389427482355386
1700516698934523100,3.960523193359375,-0.7646797193944453,0.0007977262489497661,-0.244363321506232
1700516698944533000,3.970532958984375,3.0732500917553898,-0.13724274402372538,0.16893405957780777
1700516698954544000,3.980544189453125,0.25018589017987247,-0.9075530897162855,-0.11247136392593383
1700516698964554000,3.990553955078125,-2.4272113648325204,0.6455129494830966,0.14403178310934453
1700516698974564000,4.000564208984375,-0.26061551425755025,1.7649879574365912,-0.3678951912919059
1700516698984575000,4.010574951171875,2.116291312226653,-1.8303557710126042,0.46401930459421126
1700516698994585000,4.020585205078125,0.14742694197297096,-0.32165114384815097,-0.5534704794712364
1700516699004596000,4.030595947265625,-1.450239724844694,0.6169404966019094,0.39786669731605795
1700516699014606000,4.040606201171875,-0.9882494053274392,0.27628771516382694,0.11023900176398456
1700516699024617000,4.050616943359375,0.12396949401795863,-0.04256415335461497,-0.2543619702881202
1700516699034627000,4.060626953125,3.029111090299487,-0.4014759373217821,0.1436771609853953
1700516699044638000,4.070637939453125,-0.9394827440708875,-0.632489655650407,-0.19317889505084604
1700516699054647800,4.080647705078125,-1.9734768324851988,1.1827023023694754,0.15682411773037164
1700516699064658000,4.090657958984375,0.4590180257081985,0.8744742653265595,-0.22521274043228476
1700516699074668800,4.100668701171875,2.2223984018176792,-1.9587329984702169,0.3338625367760658
1700516699084679000,4.110678955078125,-0.7920651544481515,0.14728168828338384,-0.4523420185429975
1700516699094690000,4.12068994140625,-1.188819908466935,0.6321146848581731,0.49876624485924836
1700516699104700200,4.1307001953125,-0.9912474180996418,0.08376037935689092,-0.11618654852416366
1700516699114711000,4.1407109375,1.1158435195833445,-0.17818462993875145,0.004050919358618558
1700516699124721200,4.15072119140625,2.440797991636395,-0.5717312355659901,-0.014614143220707773
1700516699134732000,4.16073193359375,-1.7658914821475744,-0.4002136623010039,0.010216054392233491
1700516699144742000,4.170741943359375,-1.5031886402219532,1.7076029593080282,-0.12911514981072394
1700516699154753000,4.1807529296875,1.1612824977219105,-0.1681672399237752,0.1358751089323312
1700516699164763000,4.190762939453125,1.8580133010059594,-1.5916967986278234,-0.03810885444618761
1700516699174774000,4.20077392578125,-1.3473077581584454,0.38455592831149693,-0.09052665862143039
1700516699184784000,4.210783935546875,-0.9623322892606258,0.6480185025632381,0.3323818697642535
1700516699194795000,4.220794921875,-0.9153852446466684,0.008049012551456689,-0.21351463078875094
1700516699204804900,4.230804931640625,2.0970845074534417,-0.1478949978761375,0.14081932386886328
1700516699214815000,4.24081494140625,1.4471189624756573,-0.6909504663169383,-0.15368881537932902
1700516699224826000,4.250826171875,-2.271459662106633,0.02397854921966791,0.1584858038648963
1700516699234836200,4.260836181640625,-0.9096651134341954,1.9764843437381088,-0.3999820089695975
1700516699244847000,4.27084716796875,1.782346942386031,-1.0618585391566158,0.38184560990687455
1700516699254857000,4.28085693359375,1.102509406235814,-1.0090602842964231,-0.3915529475919902
1700516699264868000,4.2908681640625,-1.6652479186594484,0.47452656048536296,0.2210781613782048
1700516699274878000,4.3008779296875,-0.8382914835721254,0.5246738624453544,0.14737148545868695
1700516699284889000,4.31088916015625,-0.589537672021985,-0.024299159476161,-0.2533487015923485
1700516699294899000,4.32089892578125,2.6820272529006,-0.18573460692688823,0.13384411456137896
1700516699304909800,4.330909912109375,0.33134207838773727,-0.8046605782575905,-0.2024833144908771
1700516699314920000,4.340919921875,-2.2908394853591916,0.4273711338177323,0.20431546182148158
1700516699324930800,4.350930908203125,-0.3557511279791593,1.7809161789305508,-0.40635037495773285
1700516699334941000,4.36094091796875,2.161959422945976,-1.6538040029726921,0.45486225773561745
1700516699344952000,4.3709521484375,0.32380408409833905,-0.4828615503713488,-0.5472240228297188
1700516699354962200,4.380962158203125,-1.6275708066940306,0.5138334656096994,0.4368744002981111
1700516699364973000,4.39097314453125,-0.7452151404678821,0.35904008652195335,0.024575017275474963
1700516699374983200,4.400983154296875,-0.04523381095528602,-0.05307239562645554,-0.17590773451533168
1700516699384994000,4.410994140625,2.8121225363224744,-0.15911416489630936,0.059928216337971386
1700516699395004200,4.421004150390625,-0.5458978522598743,-0.7731726763211191,-0.12089026923570781
1700516699405015000,4.43101513671875,-2.043055980145931,0.7222083588898182,0.16748923106435684
1700516699415025000,4.44102490234375,0.034115620091557504,1.4639898716472088,-0.3264891949964687
1700516699425036000,4.4510361328125,2.325744210001826,-1.7419877517297864,0.4038109561406076
1700516699435046000,4.4610458984375,-0.33585224928855895,-0.18771394417583942,-0.48580640818420795
1700516699445057000,4.47105712890625,-1.488770823290944,0.5062929871022701,0.4839239189058542
1700516699455066400,4.48106640625,-0.7424930220276117,0.22884002755135296,-0.03860167946442961
1700516699465077500,4.491077392578125,0.2085544876307249,0.14996186727806926,-0.10529168155491352
1700516699475087400,4.50108740234375,2.927964253464341,-0.3003706015408039,0.047021753817982966
1700516699485098500,4.511098388671875,-1.1080547654032706,-0.8364267126135527,-0.0470712555155158
1700516699495108600,4.521108642578125,-1.8891461058944463,1.1878336739085613,0.038947278031706806
1700516699505119500,4.531119384765625,0.4582265830695629,1.1176571448765695,-0.19127415740806608
1700516699515129600,4.541129638671875,2.1177368348598478,-1.942657039068639,0.3386589407397434
1700516699525140500,4.551140380859375,-0.6424310578197241,0.05331321864500641,-0.3840000845270231
1700516699535150600,4.561150634765625,-1.264749886459112,0.5375729453764856,0.44369105804301795
1700516699545161500,4.571161376953125,-0.9798428115099668,-0.046794338270276785,-0.0018443126924335956
1700516699555171600,4.581171630859375,0.5421469752937556,0.40236587189882994,-0.13442648102659732
1700516699565182500,4.591182373046875,2.737439343520999,-0.5974995908118784,0.10948127873186021
1700516699575192600,4.601192626953125,-1.246120589312911,-0.7110891451127827,-0.11898348576631396
1700516699585203500,4.611203369140625,-1.640766972875595,1.552663011356443,-0.03757573395017534
1700516699595213300,4.62121337890625,0.47841947627067566,0.4879615038588643,-0.06779200851563363
1700516699605224700,4.631224609375,1.961353848493099,-1.9081990352801979,0.18455463989470153
1700516699615234600,4.641234619140625,-0.5199497565329074,0.3030285687036812,-0.27673750475794073
1700516699625245700,4.65124560546875,-1.051395305070281,0.4614259636327624,0.35230153551455584
1700516699635255600,4.661255615234375,-1.247217152377963,-0.06299713892191648,-0.0662876318346709
1700516699645266400,4.671266357421875,0.8524930274039506,0.3772901750922203,-0.0852091168604791
1700516699655276500,4.681276611328125,2.7583874390035867,-0.7479698460035026,0.08775017964541912
1700516699665287400,4.691287353515625,-1.387523448690772,-0.5433350160345435,-0.09157346426062285
1700516699675297500,4.701297607421875,-1.2883873671561479,1.9061174067005513,-0.19509316770695148
1700516699685308400,4.711308349609375,0.3224292886137962,-0.0395237627454102,0.21629479955919087
1700516699695318500,4.721318603515625,1.3989824158161879,-1.8538747398965059,-0.03441639313641935
1700516699705329400,4.731329345703125,-0.34818683020472524,0.41069472430497406,-0.18046046591624618
1700516699715339500,4.741339599609375,-0.6039607496500015,0.5884381863474846,0.35124515832941977
1700516699725350700,4.7513505859375,-1.6799211716562508,0.11283245232328772,-0.14873517502732575
1700516699735361500,4.761361572265625,1.0008388377875088,-0.15654314536452293,0.10195826281588524
1700516699745371600,4.77137158203125,2.306719191536307,-0.666588470737636,0.0693127152768895
1700516699755382500,4.781382568359375,-1.0151005873739718,-0.33108518101722,-0.1194894259944558
1700516699765392600,4.791392578125,-1.0301730688214301,2.087369169124961,-0.31057346765790134
1700516699775403500,4.801403564453125,0.38544834710657594,-0.97190120485574,0.3735807626476511
1700516699785413400,4.811413330078125,0.8075257584303617,-1.2345580156825482,-0.15883260800857096
1700516699795424500,4.821424560546875,0.07397592131495476,0.3891510740820318,-0.14917415096648037
1700516699805434400,4.831434326171875,-0.699968470031023,0.5687473974496126,0.38632962345313276
1700516699815445500,4.841445556640625,-1.351857092025876,-0.013300795599818229,-0.40697347529213873
1700516699825455400,4.851455322265625,1.7470038263261318,-0.3262541075989604,0.2973501942737028
1700516699835466500,4.861466552734375,1.4018506647288798,-0.6610638620972633,-0.19119071690831332
1700516699845476400,4.871476318359375,-1.2418711151748896,0.2674438989728689,0.13676464165057986
1700516699855487500,4.881487548828125,-0.9500497307926415,2.0351570435896513,-0.4501085969351232
1700516699865497600,4.89149755859375,0.7096545822650194,-2.2908257490947843,0.604365019601956
1700516699875508500,4.901508544921875,0.9888497093081474,-0.0038999300479888913,-0.44486949070524423
1700516699885518600,4.9115185546875,-0.5353869796395302,0.654763446778804,0.21390308211706577
1700516699895529500,4.921529541015625,-1.4110919558048247,-0.12749810653552412,0.32561376386880875
1700516699905540400,4.931540283203125,-0.7409820329427719,0.7701188417084515,-0.32961664283461867
1700516699915550500,4.941550537109375,2.684913037469983,-0.8093461057253182,0.37936120921261607
1700516699925561300,4.951561279296875,0.2488128482609987,-0.43222266550213095,-0.34953243612740187
1700516699935571500,4.961571533203125,-1.8054232820689677,1.3396857388474046,0.07956047998163848
1700516699945582300,4.971582275390625,-0.6659072104752063,0.7492072788439691,-0.35987398006282745
1700516699955592400,4.981592529296875,1.8441659774392842,-2.2220023882374167,0.4407534702211618
1700516699965603600,4.991603515625,0.39646307759582994,0.7684899253323674,-0.6673185385778546
1700516699975613700,5.00161376953125,-1.220062603470683,0.513896740104258,0.39272809231858696
1700516699985624600,5.01162451171875,-1.4746481899142265,-0.18738398156911135,-0.12381390159744769
1700516699995634400,5.021634521484375,0.7702239095181226,0.4114430584542453,-0.0439314231198281
1700516700005645600,5.0316455078125,2.8880425774425267,-1.0645400333255528,0.09288644655533135
1700516700015656400,5.041656494140625,-1.2589900077581404,-0.05122223771512508,-0.15986900185160338
1700516700025666600,5.05166650390625,-1.796463146021962,1.9517771879829464,-0.1385227373642847
1700516700035677400,5.061677490234375,0.4604869292169809,-0.7198420681498945,0.15856248583029955
1700516700045687600,5.0716875,2.167036580079794,-1.5201352449782193,0.10130436548441647
1700516700055698400,5.081698486328125,-0.671814388692379,0.5379148906819522,-0.2257437055038288
1700516700065708300,5.091708251953125,-1.4065753551632165,0.6038942602850497,0.40928306740876286
1700516700075719700,5.1017197265625,-1.4451362642258405,-0.07114391275942325,-0.31255178199354555
1700516700085729500,5.1117294921875,2.2647820840388535,-0.16566314814835786,0.2141673225438222
1700516700095740700,5.12174072265625,1.645451915821433,-0.6980648283667862,-0.21306053034570066
1700516700105751600,5.13175146484375,-2.1565818215608594,-0.11767726200595498,0.21647117903940377
1700516700115761400,5.141761474609375,-1.1215367627888917,2.410634031780064,-0.552494035654515
1700516700125772500,5.1517724609375,1.6017665033519266,-1.8514358223117886,0.6043661886457353
1700516700135782400,5.161782470703125,1.255921267837286,-0.5990246084220707,-0.45702824013046917
1700516700145793500,5.17179345703125,-1.2569307371407747,0.6978115842580795,0.2844763188490644
1700516700155803400,5.181803466796875,-1.194862695762515,0.20547522631585596,0.23546784819327293
1700516700165814300,5.191814208984375,-0.5956149461090564,0.16188918256759643,-0.22922193954102693
1700516700175824400,5.201824462890625,2.9830256309509275,-0.2725217867590487,0.26550540519095955
1700516700185835500,5.21183544921875,0.09607961657345294,-0.6926125543102621,-0.28422365926224735
1700516700195846700,5.2218466796875,-2.1675369308173655,0.6885752616181969,0.2821556573491543
1700516700205856500,5.2318564453125,-0.5088631298512221,1.8087569565363226,-0.48287181603703644
1700516700215867400,5.241867431640625,2.2404081057608125,-2.332001809091866,0.5550650917189195
1700516700225877500,5.25187744140625,0.4394558316260576,0.09286065452694893,-0.6496484418526292
1700516700235888400,5.261888427734375,-1.5551351005584,0.7079295120380819,0.39717418500725177
1700516700245898500,5.2718984375,-1.1972475450724362,-0.03143018039986491,-0.042499052229151124
1700516700255909400,5.281909423828125,0.12576865239441395,0.33372853513285516,-0.19021051023192703
1700516700265920500,5.29192041015625,3.207030785691738,-0.4085144576564431,0.0871627716789022
1700516700275930400,5.301930419921875,-1.0609411320507525,-0.8476729137711226,-0.1540721521411091
1700516700285941500,5.31194140625,-1.9760276860117911,1.2549611906334757,0.08854344891496002
1700516700295951600,5.32195166015625,0.32878421059846874,1.071827413854748,-0.24169519827552138
1700516700305962500,5.33196240234375,2.106130568218231,-2.375282732413709,0.4398317887989804
1700516700315972600,5.34197265625,-0.42591129039824005,0.40160862379074097,-0.5286070737084374
1700516700325983500,5.3519833984375,-1.3362941967129707,0.6575066080071031,0.43597741492576897
1700516700335994400,5.361994384765625,-1.016131683987379,-0.3232398743443191,-0.06104235159233212
1700516700346004500,5.37200439453125,1.0714321309268473,0.32224750230610366,-0.07652176987286656
1700516700356015400,5.382015380859375,2.6764292867630717,-0.8960410772293805,0.03291512172799557
1700516700366025500,5.392025390625,-1.5987942095428704,-0.3337256125234067,-0.15139759916961193
1700516700376036400,5.402036376953125,-1.638950278842449,1.8167938402585684,-0.11590225169006735
1700516700386047500,5.412047607421875,0.7319236972182989,-0.15756664319336414,-0.0417117012437433
1700516700396057600,5.4220576171875,2.3738082759469745,-1.917936731570959,0.21810948429834096
1700516700406068500,5.432068359375,-0.9854366859942674,1.0006710800051688,-0.3984459219761193
1700516700416078600,5.44207861328125,-1.7778683356672524,0.3063582976482808,0.5327403741208836
1700516700426089500,5.45208935546875,-0.8377157295107841,-0.1254600248366594,-0.3402442006371915
1700516700436099600,5.462099609375,1.7961849136024712,0.19616949170157313,0.2373018221547827
1700516700446110500,5.4721103515625,2.204571653226018,-0.9873393047451973,0.10310451024156063
1700516700456122400,5.482122314453125,-1.9850275695472954,-0.19949600577577947,0.11003935100603848
1700516700466132500,5.492132568359375,-1.2317968804061412,1.54650960329324,-0.12938249551001935
1700516700476143600,5.5021435546875,1.5689812550812958,-0.7583645448982715,0.02882840040363371
1700516700486153700,5.51215380859375,1.815320406705141,-1.712191894533485,-0.07425046394001691
1700516700496164600,5.52216455078125,-0.9683142862796783,0.713659433992207,-0.32123996923137454
1700516700506175500,5.532175537109375,-1.0998071615397929,-0.71961249717772,0.36126565361693497
1700516700516185600,5.542185546875,-1.6041525217056274,-0.1392161629885435,0.1173210689794272
1700516700526196500,5.552196533203125,2.403095745229721,-0.46400779681950804,0.6425909976217895
1700516700536206600,5.56220654296875,1.0975994223624468,-1.7566522368982433,-0.05764693700037896
1700516700546217500,5.572217529296875,-2.6878940991073845,1.069293292267248,0.117644346117042
1700516700556228400,5.582228271484375,-0.8109387817442417,1.216151859767735,-0.426673032018356
1700516700566238500,5.592238525390625,1.5642144790709018,-1.177573561178893,0.03936502851974219
1700516700576249600,5.60224951171875,0.8426075932055711,-1.260446782437712,0.20581896171960978
1700516700586259700,5.612259765625,-1.0390285754501818,0.17432985420674085,-0.782297209149599
1700516700596270600,5.6222705078125,-0.5293798481792211,0.6836972072530537,0.3448825644949451
1700516700606280400,5.632280517578125,-1.8762217423915861,-1.3432370015881956,0.7018626132145523
1700516700616291600,5.64229150390625,1.4039157805651425,2.2694705341160297,-1.2687009621724485
1700516700626302500,5.652302490234375,2.6343852117598057,-1.5572919863313435,-0.22088263880610465
1700516700636312600,5.6623125,-1.217927345007658,-1.1271053567014635,1.532905294702202
1700516700646323500,5.672323486328125,-0.6469938356906175,3.0838366599604488,-1.5844088335767388
1700516700656333600,5.68233349609375,0.09368775300085544,-0.36502296032384035,0.14492752637267112
1700516700666344400,5.692344482421875,1.0434732798993587,-1.713293279904127,0.6493405449472367
1700516700676355600,5.70235546875,0.7717465890407562,0.6560347818888723,-0.5686536912841722
1700516700686365700,5.71236572265625,0.20400690732896326,-0.2862025946523994,0.24513039688859134
1700516700696376600,5.72237646484375,-3.500897996687889,-1.411768832153082,0.5222803914375603
1700516700706387500,5.732387451171875,1.873458122897148,4.00959395327866,-2.003108000639081
1700516700716397600,5.7423974609375,2.0808979272842407,-4.246097939586639,0.9283608999453484
1700516700726408400,5.752408447265625,-3.0966449958682056,0.1743470976024866,1.850078416353464
1700516700736418600,5.76241845703125,0.5657593215495348,2.804299295350909,-0.7370479083642363
1700516700746429400,5.772429443359375,1.0696452475100755,-5.62894287507236,0.01048420380912721
1700516700756440300,5.7824404296875,-1.3981880505681037,-0.15931648253537714,0.20472765935156492
1700516700766450400,5.792450439453125,-1.642106112524867,-0.38027182125151154,-0.4611535764321685
1700516700776461600,5.802461669921875,1.7550199595212936,4.280304452832043,-1.0687323704488574
1700516700786471700,5.8124716796875,2.745730786526203,-4.302894762563705,0.3315848376350477
1700516700796482600,5.822482666015625,-2.6350024668753145,-4.039978862409294,0.5164784636931493
1700516700806493400,5.832493408203125,0.6807844616115093,4.219926264236867,-0.631724735692516
1700516700816503600,5.842503662109375,0.16378244896829128,-5.4725055281698705,-0.7648607750497758
1700516700826514400,5.852514404296875,-3.313932825052738,-3.6959810083270073,0.2846384140755981
1700516700836524500,5.862524658203125,0.43505321275293823,5.132022696471214,-1.2564518675826488
1700516700846535400,5.872535400390625,5.12831799673438,-1.2956705099016428,-0.04002743795122951
1700516700856546300,5.88254638671875,-2.0110078139781953,-5.617070650970936,1.362961254364252
1700516700866556400,5.892556396484375,0.9403858303904533,0.5088360226485877,-0.0937279754133895
1700516700876567600,5.902567626953125,0.7715572039484977,-3.693246907187998,-0.15651983755417168
1700516700886578400,5.912578369140625,-5.229639021092653,-4.024920701748132,0.5850722901109605
1700516700896588500,5.922588623046875,0.5466173987060785,0.24819281666651366,-0.5381509644601494
1700516700906599400,5.932599365234375,2.289485148140788,-5.236180405560136,0.7641887210071087
1700516700916609500,5.942609619140625,-0.0698345837265253,-2.7945161524832245,0.3802896857017651
1700516700926620400,5.952620361328125,0.45812487626075743,-6.386081677567958,0.08711093189381063
1700516700936631600,5.962631591796875,0.9667021749079227,-0.22225093148462474,0.1436109638813883
1700516700946641400,5.972641357421875,0.5168775094807148,0.5857371106952428,0.42568047731705005
1700516700956652300,5.98265234375,1.162911560228467,-7.474055777972937,-0.29057014221213756
1700516700966663700,5.99266357421875,-1.9382091197490692,-0.5975999093811959,-0.05693312617521733
1700516700976673500,6.002673583984375,1.5655705698549747,-4.132970157578587,0.5816788482803851
1700516700986684700,6.0126845703125,-2.76735225122571,-7.299090256211161,-0.9802897515598684
1700516700996694500,6.022694580078125,2.801924967435002,2.7666385499984023,0.1546791050583124
1700516701006705400,6.032705322265625,3.321621625989675,-3.5431244425207375,-0.0564286837844178
1700516701016716500,6.042716552734375,-3.7785102384537455,-4.098334897527098,0.30406046903468664
1700516701026726400,6.052726318359375,4.256108461469411,-3.004298720604181,-0.1793453077485785
1700516701036737500,6.062737548828125,-3.7813714731037615,-7.001055404141545,-0.9534436840798706
1700516701046748400,6.07274853515625,0.2740583486765623,0.5156967021983117,0.280908214571327
1700516701056758500,6.082758544921875,1.7163608507812023,-5.409750673571229,-0.40910979320108887
1700516701066769700,6.092769775390625,-2.696785846093297,-6.1952978244274854,-0.350915634114109
1700516701076780500,6.102780517578125,2.2217869919210673,-4.250196607077122,0.15118655023481695
1700516701086790700,6.112790771484375,-0.7035130107700824,-5.602215027144551,-0.5098517390297725
1700516701096801500,6.122801513671875,3.8431016608297823,0.14154197558760642,0.15201467162203042
1700516701106811600,6.132811767578125,-0.9697007722020149,-6.750124248552322,0.22918460320532322
1700516701116822500,6.142822509765625,1.1127858855783939,-3.687849139797687,0.47431689979005603
1700516701126833400,6.15283349609375,-0.1179237841129303,-6.911233678919077,0.37139234922528264
1700516701136843500,6.162843505859375,-2.1863158655673263,-5.722193990221619,-0.8908654281571506
1700516701146854400,6.1728544921875,2.977528787100315,-0.6297317352443933,0.5883437860623002
1700516701156865500,6.182865478515625,-0.13839081808030604,-5.494724374240636,-0.14891827650927006
1700516701166875600,6.192875732421875,4.982204475447535,-3.508909453707933,0.30976200514454394
1700516701176886500,6.202886474609375,-2.7687492585420608,-7.655652700573206,-0.24356771414913236
1700516701186897400,6.2128974609375,-0.8025684282839298,-4.14245870141387,-0.6516830164201557
1700516701196907500,6.222907470703125,0.9750538236677646,-5.539428608363867,0.1859512453522533
1700516701206918400,6.23291845703125,-3.247006822249293,-6.554396509268879,-0.08435030807405709
1700516701216928500,6.242928466796875,4.496684227260947,-2.491071550324559,0.16507829746510833
1700516701226939400,6.252939453125,2.0095324807286263,-2.8298183520108458,-0.8969760199919342
1700516701236950300,6.2629501953125,8.195142439356445,0.4855331076681614,0.10339359284862876
1700516701246960400,6.27296044921875,0.3933300402671098,-3.7042104920119043,0.6521509261928499
1700516701256971500,6.282971435546875,-3.151839059823751,-5.7490171152174465,1.2225310394108295
1700516701266982700,6.292982666015625,-2.6273107433289287,-5.573408034855127,0.03281936973594129
1700516701276992500,6.302992431640625,-4.540877004730701,-5.256658545443416,-1.570258435410261
1700516701287003400,6.31300341796875,3.3461066634267564,-3.938992769093811,0.14739968863986433
1700516701297014500,6.3230146484375,-0.6608516806513071,-8.534315357500315,-0.3654368748869747
1700516701307024400,6.3330244140625,3.582857317972183,-5.59002073148191,-0.23768753353673963
1700516701317035500,6.343035400390625,1.4782996981590986,-5.525353321260214,0.20282471180707215
1700516701327046400,6.35304638671875,2.694794380015135,0.5633261030532419,-0.208056146187149
1700516701337056500,6.363056396484375,2.529093530204892,-4.412113262173533,1.1122897726245224
1700516701347067600,6.373067626953125,0.5699620339363813,-3.1724975247099994,-0.5343844150008633
1700516701357078500,6.38307861328125,-1.0820283437430858,-6.47136575936079,1.185755771655962
1700516701367088600,6.393088623046875,-3.618661621803045,-5.853706739225983,-1.3554315895117819
1700516701377099500,6.403099609375,0.8953741377532481,-3.667964581893384,0.8730990314505994
1700516701387109600,6.413109619140625,1.05294487259984,-5.118166020554304,0.6555128038413822
1700516701397120500,6.42312060546875,2.9934044016242027,-3.985465181933343,0.049809704036079344
1700516701407131400,6.43313134765625,1.8217980782866476,-6.364670056226849,0.3977873119369149
1700516701417141500,6.4431416015625,0.5961842704296112,-1.5745793673492967,-0.057570583828538656
1700516701427152400,6.45315234375,1.5851391936779022,-5.604497585123777,1.0499990284062921
1700516701437163500,6.46316357421875,-2.0770874290853736,-4.676687450928986,-0.2884575705049559
1700516701447173600,6.473173583984375,2.691451499328017,-3.4221377637058494,1.324202484641969
1700516701457184000,6.48318408203125,0.19369535667300222,-5.837407930853963,-0.46386283539086576
1700516701467195100,6.493195068359375,5.0725049240976565,0.2814608800180256,-0.5277628779692575
1700516701477205000,6.503205078125,-0.3652747431278229,-5.044264333519339,0.7007193614635616
1700516701487215900,6.5132158203125,-0.6030266836702823,-6.590366817316412,-0.09994604621063917
1700516701497227000,6.52322705078125,-1.3552169238477945,-4.139149722996354,1.3296882225766777
1700516701507236900,6.53323681640625,0.039299160209298134,-0.7054816804945468,-1.2737898097440599
1700516701517248000,6.543248046875,4.790345102030039,-3.2152187683224676,0.3360877020122483
1700516701527259100,6.553259033203125,-1.0395447082787752,-7.651413747829198,-0.31416170140821487
1700516701537269000,6.56326904296875,1.8683394647091627,-2.663263515719771,0.12413484064750373
1700516701547280100,6.573280029296875,-0.30546880146265026,-3.252767577733099,0.8637126328155398
1700516701557291000,6.583291015625,0.30243863998651505,-3.3284833284527062,1.090727052374929
1700516701567301000,6.593301025390625,-1.2780623724967242,-5.0216900981396435,1.041557217144966
1700516701577312000,6.60331201171875,-1.3600655329227447,-1.1487995943762361,0.7406671948399395
1700516701587323000,6.613322998046875,-1.7969868776351212,-4.95964719120264,1.6892340666636823
1700516701597333000,6.6233330078125,-1.9823194796323775,-1.408122584605217,-2.0753905620396136
1700516701607343900,6.63334375,3.7782723380446432,-4.809873978364467,0.8581835671957582
1700516701617355000,6.64335498046875,-1.5612082829922436,-2.6214421435564756,-3.7601770016446707
1700516701627365000,6.653365234375,-0.009068857118487358,-4.564464508806169,-0.005048077169805765
1700516701637376000,6.6633759765625,1.0047989735901355,-1.4566855399832128,-1.8989951536051928
1700516701647387100,6.67338720703125,4.428265355551242,-4.694024954698979,0.3770309031015262
1700516701657397000,6.68339697265625,0.4605138172239065,-1.7820872685365379,-1.079092947878316
1700516701667408000,6.693407958984375,-0.05745850175619125,-3.9098052530542016,1.0697186780724675
1700516701677419000,6.7034189453125,0.9159276809602975,-1.2378224243059754,1.0364836402077227
1700516701687428900,6.713428955078125,5.14637212434113,-0.7835974780932068,0.3019856355220079
1700516701697440000,6.72343994140625,-2.3119459862738845,-5.982277005037665,1.0676868069186807
1700516701707451100,6.733451171875,3.388673300999403,-3.98488387491405,0.8239154599562287
1700516701717461000,6.7434609375,-2.2829455172389745,-1.95322563322559,0.2594242951789871
1700516701727472000,6.75347216796875,2.828139605143666,-0.9040556029893457,-0.717821083716303
1700516701737483000,6.76348291015625,-4.898802554139494,-5.329596940404176,0.33046120389997957
1700516701747494000,6.773493896484375,-1.3813760319769381,-3.261688550813496,-0.635531142238155
1700516701757504000,6.78350390625,-2.1259224794030187,-1.1441033993840217,0.10593509402498602
1700516701767515000,6.793514892578125,1.4488234283059835,-2.5453745106592773,-0.3275288402425125
1700516701777526000,6.803526123046875,0.8948866464972496,-4.640182597613334,-1.000529041185975
1700516701787536000,6.813535888671875,-2.3226123417168854,-2.7022920422941445,-0.5966996360732242
1700516701797547000,6.823547119140625,-0.17353987287282943,-0.31868893304169177,0.8784879579473286
1700516701807558100,6.83355810546875,0.522820928055048,-4.083493302226066,0.5731922845618799
1700516701817568000,6.843568115234375,2.7262486719429493,-3.3425147764146326,-0.28321166920810936
1700516701827579100,6.8535791015625,0.21790216169059276,-3.0962521971583365,-0.06193776606209576
1700516701837590000,6.863590087890625,2.0354478432297705,-0.047361909025162456,0.5857038660127669
1700516701847599900,6.873599853515625,1.5340519805192947,-2.853697824770212,0.3782440782835707
1700516701857611000,6.883611083984375,2.6145523840427396,-4.417361099699139,-0.255372170243971
1700516701867622000,6.893621826171875,-0.02182312475144863,-2.3898738600850105,0.10782733751237392
1700516701877632000,6.903632080078125,0.7569085008710622,1.567376304102689,0.642257747079432
1700516701887643100,6.91364306640625,1.1834855617016553,-2.5840058546096083,0.4280577278424054
1700516701897654000,6.923654052734375,0.23256898494660852,-5.854042839312553,-0.6382590328320861
1700516701907664100,6.9336640625,-1.256948857319355,-3.9567140114843844,0.9772595170184969
1700516701917675000,6.943675048828125,0.10512509281635284,2.3308833264559508,-0.4009251715712249
1700516701927686000,6.953685791015625,1.6154150894761083,-5.9667000811994075,0.9897412513203918
1700516701937697000,6.963697021484375,0.115675128403306,-4.082025567761064,-0.8021093594048172
1700516701947707000,6.973706787109375,-0.42800972398221493,-2.3067434491947294,0.7839395695291459
1700516701957718000,6.983718017578125,1.6414958716720343,0.6724288673289119,0.6998857601836324
1700516701967729200,6.993729248046875,2.004030960702896,-5.636025526809692,1.1583191909369082
1700516701977739000,7.003739013671875,-2.5274960318803785,-2.8232249450951814,-1.401044901303947
1700516701987750100,7.013750244140625,0.30708325092196465,-1.3401324597015976,2.003009362570196
1700516701997761000,7.023760986328125,2.4162895733237266,-0.7742235005483031,-0.0792561267402023
1700516702007771100,7.033771240234375,2.697371537026763,-4.246957771286368,-1.2472342496432363
1700516702017782000,7.043781982421875,-2.56044845341146,-4.054354301503301,-0.6286071881938725
1700516702027793000,7.05379296875,0.27678046711683274,2.009475928235799,0.4923571084693074
1700516702037803000,7.063802978515625,2.3745208081305025,-5.873897878861427,1.0458870630428194
1700516702047814000,7.07381396484375,-2.019979055941105,-3.3207790376856923,-1.7705366776049136
1700516702057825000,7.083824951171875,-3.0458412758260964,-2.4316926018998024,1.1513736826479435
1700516702067836200,7.093836181640625,0.8231354154944419,-0.8156519278712571,0.5908647924399003
1700516702077846000,7.103845947265625,3.0846891851365563,-4.316935562875867,-0.2326321498433128
1700516702087857000,7.11385693359375,-1.7263573441386222,-3.916603534892201,-0.572388274702616
1700516702097868000,7.123867919921875,-0.34626199962198734,1.039280504384637,0.4256339347615838
1700516702107878000,7.1338779296875,2.0658102482676504,-4.610813003005087,1.3349658707186578
1700516702117889000,7.143888916015625,1.204820026153326,-1.7629241567745804,-2.1420210890278217
1700516702127900000,7.15389990234375,-0.9860328983217477,-3.872492590487003,1.4337468552052974
1700516702137910000,7.163909912109375,2.3072610433280465,2.5389921161457893,0.23644045608509331
1700516702147921200,7.173921142578125,0.1640507445156574,-5.274741899144649,-0.053523025470785794
1700516702157932000,7.18393212890625,-0.4714262563824653,-3.6577702278763056,-1.6828234689690171
1700516702167943000,7.19394287109375,-1.0419412480264902,1.0019077821932731,0.7752446602895855
1700516702177953000,7.203953125,3.910129954963922,-3.026719811248779,-0.04384290458615869
1700516702187964000,7.2139638671875,-0.15824293501973152,-5.088302212688326,-1.168390868422389
1700516702197975000,7.22397509765625,-2.308953234198689,-4.456256063021719,0.7609388523656875
1700516702207985000,7.23398486328125,0.3700666535794735,0.8047673996329308,-0.19188154871668667
1700516702217995800,7.243995849609375,1.9771856238752603,-3.4001658781334756,0.3704956195812672
1700516702228007200,7.254007080078125,-2.8250965841859577,-4.957072372278571,0.041277730273269114
1700516702238017000,7.26401708984375,-1.1924784309744834,0.5301213141962886,1.0528336673103271
1700516702248028200,7.274028076171875,3.382238884037733,-3.7626124120980498,0.8449971186906099
1700516702258039000,7.2840390625,16.82733072658777,-3.3517341479197142,0.6510961564429104
1700516702268050000,7.2940498046875,-22.544261097192763,-5.56588699170053,-1.8950972693838177
1700516702278060000,7.30406005859375,-13.171205927830934,5.982206277889013,0.41039289181418714
1700516702288071000,7.31407080078125,10.199315438878536,-1.6141108750097453,0.15828282863870263
1700516702298082000,7.32408203125,3.29052330789268,-6.7307093539863825,0.7166207680158316
1700516702308092200,7.334092041015625,5.689015943241119,-2.035828951501846,-0.01050451594479382
1700516702318103000,7.34410302734375,1.5319091232717037,-3.2110549266412853,-0.15455197154730557
1700516702328114000,7.354114013671875,-3.890505217039585,-2.2091171877011657,-0.6631728901404887
1700516702338125000,7.364125,-2.8236645055562257,-1.9539083547927438,0.50653556368649
1700516702348135000,7.374135009765625,2.940129907554388,-2.1290230757668613,-0.6474026356872171
1700516702358146000,7.38414599609375,3.243471049338579,-2.146037923453748,0.7535225847598165
1700516702368157000,7.394156982421875,1.1333955428868532,-4.176584258377551,1.699709429579228
1700516702378168000,7.40416796875,-0.34918402454853054,1.0764362228244542,-0.29003519508522
1700516702388178200,7.41417822265625,-1.7149878088623285,-3.8384687403321265,0.09488054298199712
1700516702398189000,7.42418896484375,-2.736515798935294,-3.7461324019402262,-1.312006289283186
1700516702408200000,7.434199951171875,-1.9220529347181319,-0.2046058961354196,-0.3729110832251608
1700516702418210000,7.4442099609375,2.3477111271381377,-3.338321708638966,0.8540448599558323
1700516702428221000,7.454220947265625,0.4261965370804071,-2.941555848704278,-1.1619199919078498
1700516702438232000,7.464232177734375,0.9752700967669486,-4.621123676878214,-0.1736268570365384
1700516702448243000,7.474242919921875,2.834351903787255,0.8741172685824334,0.3076461455017328
1700516702458252300,7.484252197265625,1.15341307952106,-2.322997541642189,2.1507588144958016
1700516702468263200,7.49426318359375,-0.629842209881544,-5.754170260196924,-0.5863497627008706
1700516702478274300,7.5042744140625,0.6483148551613092,2.9149411057621237,-0.7089126047912985
1700516702488284400,7.514284423828125,2.324399809655547,-3.546232345408201,1.6932959092751145
1700516702498295300,7.52429541015625,0.18554244535565376,-4.34730118278414,0.36464272883459925
1700516702508306200,7.53430615234375,-0.7159744329363107,-1.4852917490035296,-0.33492348053846505
1700516702518317300,7.5443173828125,3.02345467197299,-0.3781106976948678,0.20934136369209735
1700516702528327200,7.5543271484375,0.2101578311741352,-3.608905659203231,-0.2564068835865706
1700516702538338300,7.56433837890625,-3.237038385942578,-3.519741813367605,-0.27121980078238994
1700516702548349200,7.57434912109375,-1.3077712820619345,-0.32105902317389845,-0.6768538441643118
1700516702558360300,7.5843603515625,1.25214642547369,-3.593575988124311,0.5828397452859208
1700516702568370400,7.594370361328125,-1.1702262671560049,-3.4496208139151334,-0.7241276365146041
1700516702578381300,7.60438134765625,0.34373335792720316,0.8209925582468509,0.43015082766413687
1700516702588392200,7.61439208984375,2.3715140275299547,-4.761733047790825,1.7278230327770112
1700516702598402300,7.62440234375,0.6680027214497327,-2.834623706465959,-1.4805641359597443
1700516702608413200,7.6344130859375,-0.1471767666041851,-1.8682136463724075,0.6123907243430614
1700516702618424000,7.644424072265625,3.742298522865772,-0.6557889904342591,1.0426661282349377
1700516702628435200,7.654435302734375,1.9580308415502308,-2.5346131704092025,0.919258725079149
1700516702638445000,7.664445068359375,-1.21029582721591,-4.62998122933358,1.0517950449775904
1700516702648456400,7.67445654296875,-1.6410440362513063,2.294147879254818,0.281338678410463
1700516702658467300,7.68446728515625,0.23425416155457496,-3.0702722449883817,1.3736315553300082
1700516702668478200,7.694478271484375,-1.9352286426335572,-5.07184733697176,-1.1165106051899492
1700516702678488300,7.70448828125,0.04995674782395362,1.0003297192215919,-0.8370783814553171
1700516702688499200,7.714499267578125,2.7936843778342006,-3.7314188169330356,0.8414712826520204
1700516702698510000,7.724510009765625,-0.8012497469007969,-3.0397642939999696,-1.4358632628373802
1700516702708521500,7.734521484375,-2.4057184949487445,-2.977420650550723,1.0349534349657594
1700516702718531000,7.744531005859375,0.8505442314237356,-1.6022905272260308,0.6714105571318417
1700516702728542200,7.754542236328125,1.1960557049393654,-0.7436343010172247,0.436739193078503
1700516702738553300,7.76455322265625,0.5407242490142583,-5.348623712435365,1.2359111838571726
1700516702748563200,7.774563232421875,2.4333465065866706,1.2388272174343467,-1.1499332745812834
1700516702758574300,7.78457421875,3.1818577659904954,-2.9443291128098963,0.9607841830357908
1700516702768585200,7.794585205078125,0.7146931609541177,-2.105356661236286,0.9027046267718076
1700516702778596000,7.80459619140625,-1.6359855838179587,-2.4830495719105006,0.847197551344335
1700516702788606200,7.814606201171875,0.9043535630226135,-0.005772299791127443,-0.6252588276140392
1700516702798617300,7.824617431640625,1.2275772168844938,-2.409038433151692,0.46894832196161146
1700516702808628200,7.834628173828125,1.892059362992644,-4.043777962431311,-0.028240736708790064
1700516702818639400,7.844639404296875,3.2396225572168826,1.6949536133542655,-1.275631199827045
1700516702828649200,7.854649169921875,2.424394553846121,-4.618227955436706,0.02281268377806991
1700516702838660400,7.864660400390625,0.999393315154314,-3.935524800722301,-0.2924715188540518
1700516702848671200,7.874671142578125,0.1285235040605068,1.4771085886783897,0.14531930216923356
1700516702858682000,7.88468212890625,2.2024662053793667,-3.8472833304286,1.3587173331841826
1700516702868692200,7.894692138671875,-0.7296393856734037,-2.6077123088896275,0.79056673258394
1700516702878703400,7.904703369140625,-3.9079385823994874,-2.0025437908850607,1.0125643468946217
1700516702888714200,7.91471435546875,-0.11606909615695477,-1.177144229850918,0.6626594607256352
1700516702898725400,7.924725341796875,-2.6606653159201143,-1.9681344485439358,-0.4977138862621039
1700516702908735200,7.9347353515625,-3.6236090150773523,-4.448736773432791,0.6066335125232115
1700516702918746000,7.94474609375,-1.4071160379111767,1.5765702489055693,0.5247443338656798
1700516702928757200,7.95475732421875,-0.10582535004019737,-5.367774403107166,1.172415959220007
1700516702938768100,7.96476806640625,-0.39750411108136174,-2.8476524071261284,-0.7658844190090894
1700516702948778200,7.9747783203125,2.970812046065926,2.867975940969586,0.1643975851919502
1700516702958789400,7.984789306640625,2.226339248397946,-5.870026590386033,1.2318027256250381
1700516702968800300,7.99480029296875,-0.20793781703710554,-1.9150256664298473,-1.5977873705878853
1700516702978811400,8.004811279296876,-0.3983557594746351,-0.9828389245860278,2.5526535617515442
1700516702988821200,8.0148212890625,2.888134931901097,-1.1193747624494135,1.659134842606634
1700516702998832000,8.02483203125,-0.5700666633546352,-2.5917291423380373,0.2123277590917423
1700516703008843300,8.03484326171875,-2.409199907323718,-4.049921579752862,0.5368066006464883
1700516703018854100,8.044854248046875,-0.18000585401654243,2.7703111010313033,-0.5014122658560052
1700516703028864300,8.0548642578125,4.124651242044568,-4.505370222541689,0.6086620226761326
1700516703038875400,8.06487548828125,2.363016832819581,-3.2405887719005344,-1.945111738744378
1700516703048886300,8.07488623046875,0.3602139526069164,-0.5820289038270712,1.5966943146541714
1700516703058897200,8.084897216796875,0.7473603358030318,-1.16617874533087,-0.08926442013327032
1700516703068907300,8.0949072265625,0.20007716666460035,-3.300869929862022,-1.0321399119149892
1700516703078918100,8.104918212890626,-0.8659434606075286,-3.2987843557596204,0.10693601469583809
1700516703088929300,8.11492919921875,2.281024193787575,2.2065927837900814,-0.36199513693526386
1700516703098940200,8.124940185546874,1.9522686247617005,-3.5068946067541837,0.5139760524181649
1700516703108950000,8.134949951171874,-0.5099632000476122,-4.423891670511662,1.8012866206556557
1700516703118961400,8.14496142578125,-1.6260849520504475,1.457857067980617,1.3485827465303242
1700516703128972300,8.15497216796875,-1.9396838684767483,-2.431184213986248,0.7693580864690244
1700516703138983200,8.164983154296875,-4.172709462770819,-1.6441420022666453,-1.0675859768927096
1700516703148993300,8.1749931640625,-3.124923580369353,-1.9199948331445453,1.6978469967082142
1700516703159004200,8.185004150390625,2.362162846338749,-2.362653990856558,1.4209909801371394
1700516703169015300,8.195015380859376,0.360632470279932,-1.8358387324683367,-0.9623262979112565
1700516703179026400,8.2050263671875,-1.5876339331030844,-3.7588288019061085,0.32820509553626176
1700516703189037300,8.215037353515624,1.6059773990452288,0.30026041916459795,0.2101881532471627
1700516703199047400,8.22504736328125,2.7534447219043967,-1.2244669759094715,1.471728503075242
1700516703209058300,8.235058349609375,-0.6756073512345552,-4.4716786730811,0.8927477347724139
1700516703219069200,8.245069091796875,2.8830262105852364,1.7495426971539854,0.5993013795368373
1700516703229080300,8.255080322265625,2.8180343907147645,-3.0422359448105096,2.905069700089097
1700516703239090200,8.265090087890625,-0.6180167475312948,-1.077868155323714,-0.5197026864366605
1700516703249101000,8.27510107421875,-4.803287001189589,-3.470313765592873,1.7553243492953479
1700516703259112400,8.285112548828126,-0.4219049773663282,0.6733131028175353,-1.1365288724765181
1700516703269123300,8.295123291015624,2.227695339182019,-1.4057437266446648,-1.1248439145755023
1700516703279133400,8.305133544921874,1.8750217189520597,-5.591875419437885,-0.13808010816331953
1700516703289144300,8.315144287109375,2.4481506924867626,2.384271802294254,-1.8740208713464437
1700516703299155200,8.3251552734375,0.8024614607781171,-3.219076905055344,0.46473563617002217
1700516703309166000,8.335166015625,-2.795297073727846,-3.7575884464561935,0.029162600794062018
1700516703319176200,8.34517626953125,-5.356998742070794,-0.4584900563113391,0.8672467982910573
1700516703329187000,8.35518701171875,0.17927344808876514,-0.4641773081675172,1.7518045046061277
1700516703339198500,8.365198486328126,-0.29832360588312146,-2.2433736775681377,1.1750235113698988
1700516703349209300,8.375209228515626,-0.9297276582539081,-5.011073427057266,-0.30088680743463336
1700516703359220200,8.38522021484375,2.4494413168191906,3.417926868012547,0.2861238303277641
1700516703369230300,8.395230224609374,1.582964772248268,-4.675719482679665,0.26576303321383893
1700516703379241200,8.4052412109375,-2.5194267071932552,-4.169449584192037,-1.9602114004597067
1700516703389252000,8.415252197265625,1.5234668736189603,4.288826489722728,0.04180222907140851
1700516703399263200,8.42526318359375,4.701318911099434,-4.888880295062065,2.491953593856096
1700516703409273000,8.435273193359375,-0.5937725331127643,-2.376473257372528,-1.390191060464829
1700516703419284200,8.4452841796875,-0.34254560944736,-0.39940322270095346,0.9345344740137457
1700516703429295400,8.45529541015625,3.1275913382738825,0.6424976933151483,0.34191118400134146
1700516703439306200,8.46530615234375,2.612707048436999,-1.9414960324652493,0.9936188964713364
1700516703449317000,8.475317138671874,0.04684124615192413,-4.151144988955557,1.0050880196645855
1700516703459327700,8.48532763671875,1.5077315443485975,3.6980981466114518,-0.5631789862001314
1700516703469338600,8.495338623046875,0.7242430795878172,-3.5065777958899735,0.6911947964668274
1700516703479349800,8.505349853515625,-1.7619623260051012,-3.2224814528018233,-0.9028123249299824
1700516703489361000,8.51536083984375,-2.705923676794767,-1.730559472003579,-0.21517967792414128
1700516703499370800,8.525370849609375,1.1771242099761963,-0.23072218803614378,-0.7047060199469327
1700516703509382000,8.5353818359375,-0.18597849868535996,-1.4774024570584297,-0.6144011873826384
1700516703519392800,8.545392822265624,-1.971484781885147,-4.913715461111068,0.07682948411516845
1700516703529403600,8.555403564453124,0.45986558244824405,2.8380472511738537,-0.506313372303173
1700516703539414500,8.56541455078125,2.0775129610210654,-2.860909071323275,0.8258709779381751
1700516703549424600,8.575424560546875,0.755873897126317,-4.228260669600964,-0.9308707638744265
1700516703559435800,8.585435791015625,0.17288930000960825,2.079764393209666,0.6794006060376763
1700516703569447000,8.595447021484375,2.188848014393449,-2.3755697326615453,1.3708042229495943
1700516703579457800,8.605457763671875,0.5154039297968149,-3.9025866999775167,-0.47523540287446225
1700516703589467600,8.615467529296875,-0.8266308563947677,-1.3764021890871225,0.772291363441944
1700516703599478800,8.625478759765626,2.4257284327983855,2.231143726070225,0.568595385225676
1700516703609489700,8.63548974609375,0.4463315626144409,-4.943659348475933,-0.35477705878261473
1700516703619500500,8.64550048828125,-0.7695248213380574,-2.5087565523579713,-0.27725575647838413
1700516703629512000,8.655511962890625,0.9163193106263875,2.5827128921896216,0.8291998300999402
1700516703639521800,8.665521728515625,3.2165450484901665,-3.693761870972812,1.1687781141743063
1700516703649532700,8.67553271484375,1.1117571270525455,-1.720763323523849,-0.8752274217814207
1700516703659543800,8.685543701171875,-0.6031172845631837,-1.2798939718380569,2.616722421558201
1700516703669554700,8.6955546875,-0.8415151217937469,0.3747380063913762,0.7543334627512842
1700516703679565600,8.705565673828126,-2.1409476145774127,-1.2899405879475176,0.04546403951458633
1700516703689575700,8.71557568359375,-1.0826964522629976,-3.6476971621513363,0.6453703261420131
1700516703699586800,8.7255869140625,-0.9623334583044052,2.295296464768052,-0.46020650484040376
1700516703709598000,8.735597900390625,0.5263970329761505,-2.7610756551742552,0.347779528045468
1700516703719608800,8.74560888671875,-1.589714246508479,-5.680806917822361,-1.8550889379918574
1700516703729618700,8.75561865234375,-1.1371271306306123,0.34744974810183044,-0.7556291285850107
1700516703739629800,8.7656298828125,2.9351339989632366,0.10893339905813336,1.52765468069762
1700516703749640700,8.775640625,-0.4149222788721323,-4.548108125028014,-1.0059409832321107
1700516703759651600,8.785651611328126,-3.2171699023902414,-1.9887106419742107,0.49572337003201244
1700516703769663000,8.7956630859375,2.957851442205906,3.0161306126952168,0.8059636236801743
1700516703779672800,8.8056728515625,2.6116379579007623,-4.423648801666498,0.3728036773279309
1700516703789683700,8.81568359375,-1.2665250794380902,-3.2994521720185874,0.05731752238292247
1700516703799694800,8.82569482421875,0.42685353968441486,2.603960847401619,1.184907411198318
1700516703809705700,8.835705810546875,1.8297411462455986,-2.7217273951262233,1.3694693210840225
1700516703819716600,8.845716552734375,-1.4704074836045502,-0.42320144691765305,-0.056464449217543004
1700516703829726700,8.855726806640625,-4.23350850712657,-3.5217028843075036,0.45009149966984985
1700516703839737600,8.865737548828125,-0.32485856158733367,1.910986620172113,-0.7016383029393851
1700516703849748700,8.875748779296876,1.3177186755806207,-1.746798366881907,0.16674254088290036
1700516703859759900,8.885759765625,-1.920965724003315,-4.758602640810609,-1.7701082230597733
1700516703869770800,8.895770751953124,-0.7207365327715873,3.3945296258121727,-1.1063324716553091
1700516703879780900,8.90578076171875,1.4931027150154113,-4.233753421798348,0.8626275409925729
1700516703889791700,8.915791748046875,0.5087929872244596,-2.5593559819996354,-1.6337851511642336
1700516703899802600,8.925802734375,0.05347615412175655,-0.598813303758949,1.203503098335862
1700516703909813800,8.935813720703125,2.9894015957236286,-0.33917584075331686,0.7576704251542687
1700516703919823600,8.94582373046875,0.4140601090848446,-2.6777204956173897,-0.023224442916736004
1700516703929834800,8.955834716796875,-0.30700375594496726,-3.2716528954669832,0.7229547202777117
1700516703939846000,8.965845947265626,0.40412265243828294,3.073662179687619,-0.13630491518434137
1700516703949856800,8.975856689453124,-0.010846972706913947,-1.9105537817128002,0.6058628204116597
1700516703959867600,8.98586767578125,-3.3273037632793185,-4.230398850673437,-0.1606366252232343
1700516703969878800,8.995878662109375,-1.7127064199268818,-0.6634333677075803,-1.2581212620995939
1700516703979888600,9.005888671875,3.269311008515954,1.6630512853980064,-0.6100159580357373
1700516703989899500,9.0158994140625,-0.051425066810846326,-3.6275630134001373,-1.5347881858393548
1700516703999911000,9.025910888671875,-4.013091147744656,-4.030001950535178,-0.8507219260782003
1700516704009921800,9.035921875,0.22532734325528145,4.828029228258132,0.2042866375857964
1700516704019932700,9.0459326171875,0.4546440484076738,-4.353056969831884,0.43903899445347483
1700516704029942800,9.05594287109375,-1.9228028763025997,-2.350381953782588,0.312194602586329
1700516704039953700,9.06595361328125,0.9406722461163997,2.324880871170759,0.928508710918203
1700516704049964500,9.075964599609375,2.6290976267457005,-3.5502120626941323,0.7992845112424344
1700516704059976000,9.085975830078125,1.2563555676013232,-0.5088467632383108,-0.9325004839681088
1700516704069986800,9.09598681640625,1.1127250953018664,-2.509839379158616,-0.02351677692681551
1700516704079997000,9.105996826171875,2.875505167430639,1.98961635864228,-1.091123796607554
1700516704090007800,9.1160078125,2.692382058176398,-1.4635558641441166,-0.3371095558732748
1700516704100018700,9.126018798828126,-1.9664128854483365,-4.945753105884791,-0.822413530960679
1700516704110029800,9.13602978515625,-0.8431675651758909,4.8574400316596025,-0.4539508054465055
1700516704120040700,9.146040771484374,0.518908138525486,-2.566069215902686,0.02497870270553976
1700516704130050600,9.156050537109374,0.15105156221091745,-4.300288087196648,-0.18326460008416323
1700516704140062000,9.16606201171875,-0.1589969682574272,-1.3985109989121556,-0.07288885673061013
1700516704150072800,9.17607275390625,2.191857717603445,1.994639885892719,-1.1009190683044492
1700516704160083700,9.186083740234375,-1.0366145000457763,-3.208199829471111,-0.8431853930935264
1700516704170094800,9.1960947265625,-2.598383924052119,-3.9780370777592062,-0.9845022546883672
1700516704180104700,9.206104736328125,-0.7650298480063676,2.6538354699000717,-2.0167472344130277
1700516704190115600,9.216115478515626,0.6159504626512528,-1.7616335324421524,0.028177900605648756
1700516704200126700,9.226126708984374,-0.6949304758638143,-4.284557141840458,-0.6590780220422894
1700516704210137900,9.236137939453124,-1.7835855442702768,-0.48353754993677134,-0.30468612665235995
1700516704220148700,9.246148681640625,2.323821132984757,1.18922571278885,0.850945724896714
1700516704230158800,9.256158935546875,1.5317892962843178,-3.8592823957800864,-0.24338735261354594
1700516704240169700,9.266169677734375,0.8404074528127908,-1.2330712842561304,-0.8797057362392544
1700516704250180600,9.2761806640625,3.1844746704906224,1.734647618100047,-1.4647098564848302
1700516704260191700,9.286191650390625,3.274034529906511,-2.46899737342149,0.1556983651034534
1700516704270202600,9.29620263671875,1.0163859510093927,-1.800541209115833,-0.2246445486228913
1700516704280213800,9.3062138671875,0.5629197142094373,-2.378452448491007,-0.3805286455567926
1700516704290223900,9.316223876953124,5.584816733098029,3.358155997660756,-2.0510688984706995
1700516704300234800,9.32623486328125,-2.598857386782765,-2.804005280840397,-0.18266539208199828
1700516704310245600,9.33624560546875,1.2970990814000367,-3.6372435726761814,0.3432041829539463
1700516704320256800,9.3462568359375,2.683260009565949,1.9797531362757086,-0.8779517321787774
1700516704330267600,9.356267578125,6.5709519227504725,-0.08631737036332487,-0.45574444739762693
1700516704340277800,9.36627783203125,-0.6968401088774204,-3.4367984494820236,-0.30792397606242444
1700516704350289000,9.376288818359376,-0.7522276495784521,-1.3658844483345747,-1.1617723270654678
1700516704360299800,9.3862998046875,-0.7420949626207352,1.3744354190587997,-1.6076196132943033
1700516704370310700,9.396310546875,-3.155999102112651,-1.3241127605319023,-2.1060978349924087
1700516704380321800,9.40632177734375,-2.59662918933928,-4.633668101152778,-0.43469731198735534
1700516704390332700,9.416332763671875,-3.2971424337714907,2.9952707800179716,-1.0244786565721034
1700516704400342800,9.4263427734375,-2.1499486671566963,-2.1545959084406494,-0.6822074801519513
1700516704410353700,9.436353759765625,-2.183843922495842,-4.118086476701498,-0.9194470872581004
1700516704420364800,9.44636474609375,-1.4651362652033566,0.8536490655712783,0.7356907946668565
1700516704430376000,9.4563759765625,1.5921242302596568,-2.1197448136813937,0.9154023419119417
1700516704440386800,9.46638671875,0.4540414063394069,-2.003512197525799,-1.095472931727767
1700516704450396700,9.476396728515626,1.9834008451282976,-2.426378713400662,0.569851741962321
1700516704460411100,9.4864111328125,3.5741041026741263,2.0256841357149185,-0.9041014148924499
1700516704470422000,9.496422119140625,1.6449568257808684,-2.733048415085673,0.797017808419466
1700516704480433000,9.506432861328125,1.2840449540376662,-4.5177842984348535,-2.2134739216059445
1700516704490444000,9.516444091796876,1.275908409333229,1.4552309572607278,1.2827701117962598
1700516704500455200,9.526455078125,2.934357169371843,-0.6564119446381926,-0.07357607180979102
1700516704510465000,9.536465087890624,-4.576181542345881,-2.6201310609579083,-0.13108655948154627
1700516704520476200,9.54647607421875,3.1115941431969403,-2.1182811708696185,-1.772858106289804
1700516704530487000,9.556487060546875,-1.3543161756157873,2.5510434962064026,0.15211813199650495
1700516704540498000,9.566497802734375,-0.7040858422219752,-0.5036826584734022,-0.20361936931610106
1700516704550509000,9.576509033203125,-3.4826924779117103,-4.535931365022063,-1.1632279327012598
1700516704560520000,9.58652001953125,-1.8318705594897269,1.520139044370502,-0.058884515971317886
1700516704570530000,9.596530029296876,2.3772014255166054,0.8994203444041311,0.361555722604692
1700516704580541200,9.606541259765624,-0.542452095720172,-4.2093250829845665,-0.4970097565807402
1700516704590552000,9.616552001953124,-0.36917759578526016,-0.2822200278222561,1.2584884879767895
1700516704600563000,9.62656298828125,0.578873654666543,-0.5706226898021995,1.230574791265279
1700516704610574000,9.636573974609375,0.5565536863088607,-0.6597858049854636,0.46444743034578856
1700516704620585000,9.6465849609375,-3.7100580489963293,-3.9996217175796627,0.28325952693782747
1700516704630595000,9.656594970703125,-2.267168686914444,3.3719670808702706,-0.5066750452224165
1700516704640606000,9.66660595703125,0.18150223005414007,-2.5770845309138295,1.338133248708397
1700516704650617000,9.6766171875,-2.5136972236305475,-3.50551192022413,-1.4319791148804126
1700516704660628000,9.6866279296875,-0.2995972790807485,2.785492595811188,0.050652876861952245
1700516704670639000,9.69663916015625,0.580701454615593,-2.70869723316133,-0.02248301343228668
1700516704680649000,9.70664892578125,-1.3067068677008151,-2.466798694333434,-0.38215189937707034
1700516704690660000,9.71666015625,-1.3991624485582113,-2.2648566105797885,-0.2690200622484088
1700516704700671000,9.7266708984375,2.9957880818903444,3.700852998277545,-0.909259455242753
1700516704710682000,9.73668212890625,3.393901849302649,-2.5928660374134775,0.38095541960150003
1700516704720693000,9.74669287109375,0.4722796583414077,-4.408028038686513,-0.03327233766783028
1700516704730704100,9.7567041015625,0.9400579136103391,-2.724346637713909,0.6228520587332547
1700516704740714000,9.7667138671875,5.63621549642384,1.1425431643299757,-0.11625712954234331
1700516704750725000,9.77672509765625,-0.5900146418839692,-0.2848947999894619,0.49076498043965544
1700516704760736000,9.786736083984374,1.6673615498125551,-2.0752000079035757,0.9840415783740579
1700516704770747000,9.796746826171875,-0.5081687178462744,1.3238909344747662,0.14245740993209183
1700516704780758000,9.806758056640625,2.822962494766712,-0.6815816033385693,0.4684225810544565
1700516704790769200,9.81676904296875,-4.206155220776796,-2.2539127533696592,-0.26046426921859384
1700516704800779000,9.826779052734375,-2.6203151853531597,0.5371230096518993,0.521533445527777
1700516704810790100,9.8367900390625,2.8653169508934018,0.041476065856963396,-0.7172094546239822
1700516704820801000,9.846801025390626,-2.63064660975337,-1.6127474777020514,-0.44133013759795575
1700516704830812000,9.85681201171875,-1.1126222194492816,-2.767029010620713,-0.8745695423945784
1700516704840823000,9.866822998046874,0.5647299785017967,1.0578731227822602,-0.39739279619399454
1700516704850834200,9.876834228515625,1.3744056084424257,-1.4881512300878763,0.043767683925479646
1700516704860845000,9.886844970703125,-0.551885109975934,-3.75295143430531,0.4438521668888628
1700516704870855200,9.896855224609375,-0.3959884458214044,1.4621554958268999,0.20558219382166862
1700516704880866000,9.906865966796875,2.049354203507304,-1.9051516304083167,0.20158567153140902
1700516704890877000,9.916876953125,-0.40590427515804767,-1.9111039629414677,-0.27983269429430363
1700516704900888000,9.92688818359375,-1.5197680191010237,-2.3457411422394214,0.8712898631367831
1700516704910899000,9.93689892578125,0.8949562046021222,0.8399741759620606,-0.47098158135488627
1700516704920910000,9.94691015625,0.5780518168896437,-1.485179666931182,0.5826582877717912
1700516704930920200,9.956920166015625,-1.1823416523635386,-3.114185328733921,-0.39418760694451627
1700516704940931000,9.96693115234375,-0.7513689869225024,2.6978210343599316,-0.229465246777609
1700516704950942000,9.97694189453125,1.5919763462215661,-1.8468059705540536,0.21958105468824504
1700516704960953000,9.986953125,0.16426701761484144,-1.9866408499628305,-0.732417252888903
1700516704970964000,9.9969638671875,-2.162346960958838,-0.6189033211074769,0.2390815086457878
1700516704980975000,10.00697509765625,0.3966957173079252,1.0767694003015755,-0.36389212966300544
1700516704990986000,10.016986083984374,0.11644903538525103,-2.9052096930816766,0.24379027085863053
1700516705000996000,10.02699609375,-0.55219081492424,-2.2132215542800724,-0.34217399965599177
1700516705011007000,10.037007080078125,0.30177929929494857,3.281429900854826,0.3810679400652647
1700516705021018000,10.04701806640625,1.3617729213625192,-2.452148529951274,0.7731495146412402
1700516705031029000,10.057029052734375,-2.026080295425653,-2.9527859755098818,-0.0895451733034104
1700516705041040000,10.067039794921875,-3.7023546350121497,0.23841858775764702,1.40875094563663
1700516705051051300,10.07705126953125,1.1505044985979795,0.7272250180080533,-0.7711173512265086
1700516705061061000,10.08706103515625,1.1611065566331147,-2.769058470621705,-0.3449016710542142
1700516705071072000,10.097072021484376,-0.5615040021926164,-2.612851425343752,-0.14506737323477864
1700516705081083100,10.107083251953124,-0.7866612495779991,3.219384071308374,0.133496177906543
1700516705091094000,10.117093994140625,-0.8269821540504694,-4.0030703967288135,1.3775452216424047
1700516705101105000,10.12710498046875,-1.3496446766734123,-0.822575735785067,-1.0717721765361725
1700516705111116000,10.137115966796875,0.12602701106965541,0.5272326070174574,1.748748916427791
1700516705121127200,10.147127197265625,2.2811861063510177,0.13156988601908087,0.04199899375252426
1700516705131137000,10.157136962890625,-0.08847206417918205,-3.4588843168228864,0.37941929607540364
1700516705141148200,10.167148193359376,-2.1588176177889107,-1.1595320007927714,0.5133424672223628
1700516705151159000,10.177158935546874,-1.0257003073215485,2.8305414055883884,-0.09528357082493602
1700516705161170000,10.187169921875,0.06891220818459987,-2.9310575433045623,1.6736984977491198
1700516705171181000,10.19718115234375,-0.06716156512498855,-2.426122400552034,0.04947400580830872
1700516705181192200,10.207192138671875,0.4206728052228689,2.5964450649440285,1.7672447964526712
1700516705191203000,10.217203125,1.6662474510908125,-1.4293869064301252,0.04085223487019539
1700516705201213200,10.227213134765625,-0.013354571613669394,-3.5941660629719494,-0.7764800473034381
1700516705211224000,10.23722412109375,0.0588245294123888,-0.6925831820853054,0.06436155914291739
1700516705221235000,10.24723486328125,2.3406074326127766,3.4200223789870736,-0.46498789389804
1700516705231246000,10.25724609375,1.5150421596229076,-3.6638130151718853,0.029181378559768198
1700516705241257000,10.267257080078124,0.7243079615175724,-3.6766456087380646,-0.16026698819324373
1700516705251268000,10.27726806640625,-0.1421188986927271,2.4804309138447045,0.8478161216340958
1700516705261279200,10.287279296875,1.8850725728452205,1.0529182768538594,-0.029529461345076558
1700516705271289000,10.2972890625,-0.5925766013264656,-3.1876416100889444,0.18934315281286834
1700516705281300000,10.307300048828125,1.548902343648672,-0.6365655267871916,-0.3113752490274608
1700516705291311000,10.31731103515625,0.3889098857372999,2.1274549496673045,0.8596674490779638
1700516705301322000,10.327322021484376,-0.0463894107311964,-1.5072292939148841,0.7605083519939333
1700516705311332900,10.337332763671874,-2.629724234211445,-3.9022318951904773,-0.5606567377135158
1700516705321344300,10.34734423828125,-1.2659616003364325,3.562592820839584,0.07917962743788957
1700516705331355100,10.357355224609375,0.126855863109231,-2.0751254813626407,1.7279919596031308
1700516705341365000,10.367364990234375,-0.616358458930254,-3.027298195658624,-0.459067052481696
1700516705351376100,10.377376220703125,0.9053016575276851,0.8945850332021713,1.0340090667877346
1700516705361387000,10.387386962890625,0.00981295348405838,0.2549330847069621,0.7102665766835212
1700516705371398000,10.39739794921875,-1.4842922165721655,-2.9372394468098877,0.5232241020284593
1700516705381409000,10.407408935546876,-1.8354273751884698,-2.566459092003107,-0.21388671550415456
1700516705391420200,10.417420166015624,0.04500058672130108,4.521303120210766,-0.43623803862333294
1700516705401431000,10.42743115234375,2.1554390812665223,-4.465021845540404,1.2807400672733782
1700516705411442000,10.43744189453125,1.478213188919425,-2.239921637418121,-1.3450832139767706
1700516705421452000,10.4474521484375,-0.29050270299911496,0.11661372442767023,0.6461592845626175
1700516705431463000,10.457462890625,1.0188087942421435,1.0950757491037248,-1.1918892329096793
1700516705441474000,10.46747412109375,-0.9205430658012628,-2.4222062500216066,-1.0377565827529878
1700516705451485200,10.477485107421876,-2.242410677754879,-1.7635425809338687,-0.7694996868968009
1700516705461492200,10.4874921875,1.104814760568738,3.5178193208724258,0.6307716727513819
1700516705471503400,10.49750341796875,2.104386939421296,-1.660280651640892,0.11675576324686407
1700516705481514200,10.50751416015625,-0.020456512573361396,-3.637261108332872,-0.8848011596821248
1700516705491525000,10.517525146484376,0.48351826071441173,1.6913463826425372,1.5374066977746783
1700516705501535200,10.52753515625,1.6648714865624903,1.54808576656878,0.08774835301451385
1700516705511546000,10.537546142578124,1.434179985925555,-2.8631597728595137,0.9913078430499881
1700516705521557200,10.54755712890625,-2.9516654470473527,-1.4840800351262091,0.04152019725963473
1700516705531568400,10.557568359375,-0.3085322806864977,2.159436772600561,0.49026218201667066
1700516705541579300,10.567579345703125,0.9360422482281923,-1.4709164560399948,-0.7894623515386134
1700516705551590100,10.577590087890625,-1.7481044810444115,-3.591820376628637,-1.8740384070031344
1700516705561601300,10.587601318359376,-0.29761048917770383,1.6701067568674683,-0.6028608255840837
1700516705571612400,10.5976123046875,2.2824510117202994,-0.8936842849701643,-0.15043701050914823
1700516705581622300,10.607622314453126,-0.8548141638278961,-1.8593202919512986,-1.0116551230952142
1700516705591633400,10.61763330078125,-2.918333086287975,-1.580458050124347,1.5205948253139852
1700516705601644300,10.627644287109375,0.4653156645476818,2.4164237210974098,-0.05094206906687468
1700516705611655200,10.6376552734375,2.138433001407981,-2.050950240527093,0.9847830443911254
1700516705621666300,10.647666259765625,-1.2776233965575694,-2.8865768888041377,-0.3444173216033727
1700516705631677200,10.65767724609375,-0.6575625759780407,2.1071867992728945,0.029170016915537417
1700516705641688300,10.667688232421876,1.9247557639360426,-1.5549958382181823,0.47696368797179306
1700516705651699200,10.67769921875,0.08824585420787334,-2.0751218281008303,-0.7342521401658654
1700516705661709300,10.687709228515626,-0.9814981775015592,-1.5914456003457307,0.2189157226473093
1700516705671720200,10.69772021484375,1.6941297297507523,3.1586960861116644,-1.5937787194684148
1700516705681731300,10.7077314453125,1.5538497369229793,-2.634253402073681,0.11205945865679531
1700516705691742200,10.7177421875,-0.41425358583033084,-2.961078587558865,-0.9167321292109787
1700516705701753000,10.727753173828125,2.865005400726199,2.825562155871093,-0.26427071229685095
1700516705711764200,10.73776416015625,3.537502510985732,-0.6214791629448533,-0.12828940304368733
1700516705721775400,10.747775390625,-0.8909709343582392,-1.7496902889311312,-0.16018482633512465
1700516705731786200,10.7577861328125,2.628801858669519,-1.8082734108030796,0.06352569284066557
1700516705741797000,10.767797119140624,2.081706321057677,2.446051966641843,-0.21875223918128758
1700516705751807200,10.77780712890625,0.7341630005776881,-0.5595362092509866,0.3489361142020672
1700516705761818000,10.787818115234375,-1.209127952480316,-2.890067361268401,-1.0560070366494356
1700516705771829200,10.797829345703125,-0.20752865171432494,2.1768178232513367,-0.5048962355142459
1700516705781840400,10.80784033203125,1.3004764488786458,-0.7936372260704636,-0.42645434776637703
1700516705791851300,10.817851318359375,-1.0435007524281739,-3.1229309452474117,-1.1797454983904958
1700516705801862100,10.827862060546876,-2.549342537507415,1.2229163854666054,0.4935465009169653
1700516705811873300,10.837873291015624,-0.7592074254631995,-0.8524204005591571,0.11169289036672561
1700516705821884200,10.84788427734375,-0.9015589638680219,-1.4816177366659045,-1.237058454196155
1700516705831895300,10.857895263671875,-1.5088614251613617,-2.470875734513998,0.5188764282129704
1700516705841905400,10.867905517578125,0.36431729627251624,3.980430110375583,-0.7183921616025268
1700516705851916300,10.877916259765625,1.7005121242642403,-4.58018522502929,0.3887608691880479
1700516705861927200,10.88792724609375,0.09001111031472682,-1.7989942719347773,-1.1335692189533262
1700516705871938300,10.897938232421875,0.4417524181306362,1.8100018420308828,1.0707893029786646
1700516705881949200,10.90794921875,1.6748714870512484,-0.18687047908902168,-0.30292145506739615
1700516705891960000,10.9179599609375,0.420450686904788,-2.9149136332333088,-1.0671779806137085
1700516705901971500,10.927971435546874,-0.05322773231863975,-2.3981819619640707,0.027601562022417783
1700516705911982300,10.937982421875,2.2611136246591803,4.064280067712068,-0.34663130785841495
1700516705921993200,10.9479931640625,0.7801362317234277,-1.4744799937404691,-0.4746191341396421
1700516705932003300,10.95800341796875,-0.8583119428157806,-3.6237788186863065,-1.3881702221617103
1700516705942014200,10.96801416015625,0.4147071748167276,2.3135307712472972,-0.052338784122280775
1700516705952025000,10.978025146484375,2.0286282263427973,0.745592887739092,-1.2750006468385457
1700516705962036200,10.9880361328125,-1.3470067293852568,-3.0925106725424527,-0.3996196419306099
1700516705972047400,10.99804736328125,-3.9120448486745354,-1.3720011776491998,-0.8296760693095624
1700516705982058200,11.008058349609374,0.7700210804224014,3.617708851122856,-0.4867453330021351
1700516705992069000,11.018069091796875,0.07666881366074085,-2.079268134125322,0.37682157119978216
1700516706002080300,11.028080322265625,-0.9649877722054719,-3.105975718793273,0.2451922466110438
1700516706012091100,11.038091064453125,1.2550216886490582,3.549607374799251,0.031066900045424697
1700516706022102300,11.048102294921875,1.2563298486381769,-1.892102325351536,1.5378817679405212
1700516706032112400,11.0581123046875,-2.4770517928004265,-2.684907192251086,-0.7964791714981198
1700516706042123300,11.068123291015626,-2.20598561167717,0.25599852198138834,0.6988220764748752
1700516706052134400,11.078134521484374,0.9849217222094535,1.1769207963585853,-0.6219511643707751
1700516706062145300,11.088145263671874,0.4294336193054914,-3.0446196250766513,-0.9983359150558709
1700516706072156200,11.09815625,-2.4176304665386676,-1.684822387701273,-1.1992652415703982
1700516706082167000,11.1081669921875,0.09908230552077293,2.94838803281188,-0.28642474950309843
1700516706092178400,11.118178466796875,0.1645692154318094,-2.380192570156604,0.18009513973519206
1700516706102189300,11.128189208984375,-2.3573306038767097,-2.8997493818491695,-0.9791592131599783
1700516706112200200,11.1382001953125,0.16238777973949908,1.9641431869506836,-0.03638466100208461
1700516706122211300,11.14821142578125,3.0919588838785885,-0.27344211647436023,0.2340748959975317
1700516706132222200,11.15822216796875,1.487469093042612,-2.232486957372725,1.3369183199606836
1700516706142232000,11.168232177734374,-1.1420938131272793,-3.0788141556233164,1.263739248111844
1700516706152243200,11.1782431640625,2.854781528353691,3.89195015515089,-0.5990515329616144
1700516706162254300,11.18825439453125,3.3173885184645653,-0.78163348454386,0.8844647673346102
1700516706172265200,11.19826513671875,1.4373983634501695,-1.7263924154520034,0.901448781491816
1700516706182276400,11.2082763671875,0.7032184117376804,2.2593014606706796,0.9852418940745293
1700516706192287200,11.218287353515626,0.04413958597779274,-0.45262131040841336,-0.17484507371988148
1700516706202298000,11.228298095703124,-5.749125251767039,-2.764361837238073,-1.9055340538546441
1700516706212309200,11.238309326171875,-6.194834883090853,0.975732891973108,0.3549881077174097
1700516706222320400,11.2483203125,-1.7220283750236034,0.6829582985192537,-0.24903058266490696
1700516706232331300,11.258331298828125,-1.7455886988312006,-1.7432881668038664,-0.2440614159502089
1700516706242341400,11.26834130859375,-2.077438726741075,-4.424628460353612,0.023404256463050842
1700516706252352300,11.278352294921875,1.4246896885246039,3.893562266522646,0.5781013551197945
1700516706262363100,11.288363037109375,3.0246470966279504,-2.8932758019208906,1.6933835875585674
1700516706272374300,11.298374267578126,-0.6278402224093675,-1.8380761361315845,-0.34447657750993965
1700516706282385400,11.308385498046874,0.8867150304794311,2.327198062071949,1.992090201409906
1700516706292396300,11.318396240234375,2.728347105526924,-0.6777287273027003,1.9575673156917095
1700516706302407200,11.3284072265625,2.3825369413256645,-3.3026386931002136,-0.5868514286126941
1700516706312418300,11.338418212890625,0.7917366531461477,-2.1063744599767027,1.1375212445147336
1700516706322429200,11.34842919921875,2.927156444212794,2.939900774973631,-0.45293158193398264
1700516706332440000,11.358440185546876,-0.3847621184080839,1.034790353358537,0.07777461947817355
1700516706342451500,11.368451416015626,-1.9100041850060223,-1.9205115504950283,-2.133252237769216
1700516706352462300,11.37846240234375,-0.2286182014942169,2.9614222864300013,-0.8285540064770728
1700516706362472200,11.38847216796875,1.6877742232441901,0.5153548299580812,-0.3074960695065558
1700516706372483300,11.3984833984375,0.29458909552991386,-2.538574767516553,-0.7610580217659473
1700516706382494200,11.408494140625,-2.953388033056259,0.6095286129102111,0.9524274197094141
1700516706392505000,11.418505126953125,0.4121276797175407,-0.17073855171650648,1.2576374241054058
1700516706402516500,11.4285166015625,-1.401729084175825,-2.1624704412080344,1.308439390581846
1700516706412527400,11.43852734375,-3.920551980257034,-2.7480948853090403,1.3643401415020227
1700516706422538200,11.448538330078126,0.5604150379121303,2.112546280479431,0.9590117665357887
1700516706432549000,11.458549072265624,2.3617829071104524,-1.6601733918741344,1.611592608578503
1700516706442560300,11.468560302734375,-2.6950077305048703,-3.0755054694667456,-0.3975725001424551
1700516706452571100,11.478571044921875,0.06326689577400683,3.4605534190788863,0.42729616888538
1700516706462583300,11.488583251953125,3.080404639685154,-1.0934656835585832,0.7864746409647166
1700516706472594200,11.49859423828125,0.07542202847003936,-2.0922619096025823,-1.348529262777418
1700516706482605300,11.508605224609376,0.5156669646471739,1.4553257959373294,0.17216478512734174
1700516706492615200,11.518615234375,2.5522259839892385,-0.010425970815867184,-0.43548663573414087
1700516706502626300,11.528626220703124,-0.5837783778429031,-1.4184731520973146,-0.7700370817091315
1700516706512637400,11.538637451171875,-2.2708540974289178,-2.6948230215877294,0.0318270707629621
1700516706522648300,11.5486484375,1.714566953101754,3.255627058817446,-0.4913938163951039
1700516706532659200,11.5586591796875,1.2339239555627106,-0.1088844453498721,1.5091788205474614
1700516706542670300,11.56867041015625,0.39305005428195,-3.185276634523272,0.08871792869903147
1700516706552681200,11.57868115234375,-0.5838976203083992,1.439181301344186,1.133938929048553
1700516706562692400,11.5886923828125,2.2707407001823188,0.9333648457124829,1.3210714931398628
1700516706572703500,11.598703369140624,-0.2398632336080074,-2.785033453866839,-0.10495857714302838
1700516706582714400,11.60871435546875,-2.2717969312369823,0.7625196187511086,0.9921037426680326
1700516706592725200,11.618725341796875,2.214700248530507,1.1325739973708986,1.2564374006658792
1700516706602736000,11.628736083984375,0.5079103591710329,-1.7390731794573366,-0.9653622315410524
1700516706612747300,11.638747314453125,-2.8519033425688742,-1.2764312641635536,-1.0355514739241451
1700516706622757000,11.648757080078125,-1.9894483085989951,2.9473633659392595,-0.7578230584327131
1700516706632768500,11.6587685546875,0.9207306973278522,-0.6020391339376568,1.198130830712989
1700516706642779400,11.668779296875,-2.523798930928111,-2.311074464136362,-0.8710590500555933
1700516706652790300,11.678790283203124,-0.8867378268331289,3.5433757869333027,0.8186100470244884
1700516706662801200,11.68880126953125,3.609019933232665,-2.2767913785234093,1.7573948719590902
1700516706672812300,11.698812255859375,3.433138465669751,-2.5009949784457683,-0.6618640725642442
1700516706682823200,11.7088232421875,1.1145160703718662,1.3557980847366153,1.064893522938341
1700516706692834300,11.718834228515625,0.5664519799888134,-0.19198299979716538,0.7820343934949487
1700516706702845400,11.728845458984376,-2.482059391829371,-3.1503000136882067,-0.68883763888143
1700516706712856300,11.738856201171876,-5.28220098297894,-0.40048590337112544,0.09847199160270392
1700516706722867200,11.7488671875,-2.4945254901707172,2.5776632075846195,-0.1567841145135462
1700516706732878300,11.75887841796875,2.1732716750770806,-1.4983770021565257,1.5445014783412216
1700516706742889500,11.768889404296875,-1.2589338936567305,-2.498922848346829,-1.201607347717136
1700516706752900400,11.778900390625,-1.0433470231711863,3.761324125853181,-0.28952501707337797
1700516706762911200,11.7889111328125,0.8755565076053142,-0.8196101639777421,2.040445213125646
1700516706772921300,11.79892138671875,-1.540892055672407,-1.5499566750071943,-0.5866135282035917
1700516706782932200,11.80893212890625,-0.1032271502405405,2.154662105544656,0.93299024024643
1700516706792943400,11.818943359375,4.0139410425722595,-0.0803328891262412,1.4874601790837942
1700516706802954200,11.828954345703124,1.272012570938468,-2.325863014075905,-1.0200577713899315
1700516706812965400,11.83896533203125,0.11341127512454986,-0.7659932862110436,-0.5265092611789703
1700516706822976300,11.848976318359375,1.9276918173879385,1.7514017690241335,-1.2335881477370858
1700516706832987400,11.8589873046875,0.9512561839729546,0.2265678448356688,-0.11627652836255728
1700516706842998300,11.868998291015625,-4.2018589848876,-2.7955378967463966,-0.6858268396928906
1700516706853009200,11.879009033203126,-0.06850187381803989,3.72546136983335,0.2082845115829259
1700516706863020300,11.889020263671876,2.1936165439695117,-0.8404153438583016,0.6766982152111828
1700516706873031400,11.899031494140624,-0.9984697705686092,-2.0840140134781597,0.048350920062512154
1700516706883042300,11.909042236328125,-2.5024703116953373,2.762914561039209,1.5790195417538284
1700516706893053200,11.91905322265625,0.0871539673179388,0.032493571847677226,2.2256987585373222
1700516706903064300,11.929064208984375,-1.9073487020611761,-2.366740821778774,-0.13428952024132013
1700516706913075200,11.9390751953125,-0.525873885884881,1.4332507422514258,1.5308857715733348
1700516706923086300,11.94908642578125,2.3416245007008314,-0.30400442799851296,0.35954730539172886
1700516706933096400,11.959096435546876,2.337354568296671,-1.2172596748791635,-1.3293544605776666
1700516706943107300,11.969107421875,-0.6271072319597005,-1.351633220142126,-0.2687758782289922
1700516706953118200,11.9791181640625,2.0714111370146275,2.8740760114103554,-0.6473433797806502
1700516706963129300,11.98912939453125,1.9032839368402956,-2.091175283409655,0.3282695390745997
1700516706973140200,11.99914013671875,2.4006734865188597,-2.593046070155501,-1.0615553184263407
1700516706983151000,12.009151123046875,-0.15923019249141215,1.8871669147759675,1.1156082495227455
1700516706993162500,12.01916259765625,0.9735703071117401,0.6088929453551769,1.0961422092914581
1700516707003173400,12.02917333984375,-1.5780015968829393,-2.4507183510176835,-0.5481787297386675
1700516707013184300,12.039184326171876,-0.5559475371092557,1.1518225954592227,-0.5521299881150946
1700516707023195400,12.0491953125,1.9202906012207268,1.7175149892523884,0.32236648904327303
1700516707033206300,12.059206298828125,1.0866519118905067,-0.9389514136731624,0.5875106962390244
1700516707043217200,12.069217041015625,-2.932943795442581,-1.9598991196401416,-0.9814257698524743
1700516707053228300,12.079228271484375,0.4186567892253399,3.413250108373165,0.10424969822131097
1700516707063239400,12.089239501953125,2.746961789625883,-0.3492527058705687,0.9123257109455764
1700516707073250300,12.099250244140626,-0.17197101612091065,-2.2050059529900548,-0.2635655962347984
1700516707083261200,12.10926123046875,1.5987591382294892,1.8381658602416515,-0.13921470168381928
1700516707093272300,12.119272216796874,2.6461849551469085,0.4071097054250538,0.6682614454511553
1700516707103282200,12.1292822265625,-0.8190519455730915,-3.2996436029374596,-0.46067503566760565
1700516707113293300,12.139293212890625,-0.8692226284086704,1.8611662120789287,-0.8674389598622918
1700516707123304400,12.149304443359375,3.38511590077877,0.4114126633159816,-0.6292294848106801
1700516707133315300,12.1593154296875,-2.545503397735953,-2.500875735980272,-0.3328665845412761
1700516707143326200,12.169326171875,-7.3468994706124064,-1.1575700530700386,-0.5605278506368399
1700516707153337300,12.17933740234375,1.9387924725949763,3.200627932912111,-1.8759682060219347
1700516707163348200,12.18934814453125,3.5732191365331407,-1.2361812329702078,0.6634018035255372
1700516707173359400,12.199359375,-1.6023633002012967,-1.3161905892305075,0.21924086294844744
1700516707183370200,12.209370361328125,-4.343493314933776,1.5510260578043757,-0.9864414791226387
1700516707193381400,12.21938134765625,-1.1643535757303238,-0.021466858659684656,1.7838024018913505
1700516707203392300,12.229392333984375,-0.9235463392704725,-0.3652729895621538,0.3177405462756753
1700516707213403100,12.239403076171875,1.852980567535758,3.066683572846651,0.0948466407123953
1700516707223414300,12.249414306640626,3.3282629637002943,-1.9899780315615236,0.21188900234829633
1700516707233425400,12.25942529296875,0.050046179673075675,-2.6146809788584706,-2.0816332558214663
1700516707243436300,12.269436279296874,-0.4766875379115343,3.286485430678725,0.15998159538060425
1700516707253447200,12.279447265625,0.5929261454164981,-0.5199779597140848,-1.295459205238521
1700516707263458300,12.289458251953125,0.3625912031322717,-1.3802359220311045,-1.629692621153593
1700516707273469200,12.29946923828125,0.06604571283757686,-1.0386112268209458,-0.7491344328034669
1700516707283479300,12.309479248046875,0.741888041871786,2.9831501341134308,-0.6400566568385809
1700516707293490400,12.319490478515625,-1.1229612426340578,-0.7604141709044575,0.018220424084365368
1700516707303501300,12.329501220703126,-3.0813486425369976,-1.356260295420885,-0.7956628866791725
1700516707313512400,12.339512451171874,-0.9530290388643741,2.480400518706441,-0.5100908815478906
1700516707323523300,12.3495234375,1.5357254666894673,1.3145965980373322,0.855321528828144
1700516707333534200,12.3595341796875,-2.10175016117692,-3.198982503792643,0.5754401000212878
1700516707343545000,12.369545166015625,-1.1303723956733942,2.8349294114142656,0.30400804472770543
1700516707353556500,12.379556396484375,2.9049826063275335,0.20360212592035531,-0.5670268937999382
1700516707363567400,12.3895673828125,0.08766074779629707,-1.488933320376277,-0.5079334477856755
1700516707373578200,12.399578125,-0.08124152840375899,0.8080721402667462,-0.0975422364719212
1700516707383589400,12.40958935546875,2.2466484614551065,0.6674719755738974,-1.931037474554032
1700516707393600300,12.419600341796874,-0.7170552139103412,-1.754815669120848,-1.038139663786441
1700516707403611100,12.429611083984375,-3.19417714933753,0.1900415103405714,-0.48651188957244157
1700516707413622300,12.439622314453125,0.27227088073790073,0.8669586289994418,-2.0383226680137216
1700516707423633400,12.44963330078125,1.5696739135205744,0.5767983096972108,-0.12109441350568086
1700516707433644300,12.459644287109375,-1.569147259297967,-2.6722733361274003,-0.11470032855439931
1700516707443655200,12.4696552734375,-0.7500351079702376,2.8241794693410394,-1.0871882837895304
1700516707453666300,12.479666259765626,2.05669112226665,0.19390812264084814,0.6248277427203953
1700516707463677000,12.489677001953124,-0.03488192828893661,-2.376474864807725,-0.45747072320096194
1700516707473687000,12.49968701171875,1.822362726432085,3.9866356870174404,-0.8830766009118407
1700516707483698000,12.509697998046875,2.228893024533987,-0.10139569702968,0.10886395055111497
1700516707493708800,12.519708740234375,-1.22072077511847,-2.0101745780244467,-1.1150893402151763
1700516707503719700,12.5297197265625,-1.5422931546419858,2.1018993603892624,-1.244322599980235
1700516707513731000,12.53973095703125,1.4470423901081084,1.021578405085951,-1.1639102158769965
1700516707523742000,12.549741943359376,0.7248685180097818,-0.25010931781232354,-1.2820019039027393
1700516707533752800,12.5597529296875,-0.7171306172341108,-1.38478072585389,-1.269407795267552
