time,seconds_elapsed,z,y,x
1700516694990476300,0.016476318359375,-0.01774757169187069,-0.0035326832439750433,-0.005050152540206909
1700516695000486400,0.026486328125,0.01350568886846304,0.08031481504440308,0.13976669311523438
1700516695010496300,0.036496337890625,0.025555428117513657,-0.0021457087714225054,-0.042089927941560745
1700516695020506400,0.04650634765625,-0.015097726136446,-0.01643303595483303,-0.1153353825211525
1700516695030517200,0.056517333984375,-0.0073236930184066296,-0.033063676208257675,-0.013748569414019585
1700516695040527400,0.06652734375,0.018501246348023415,0.009524262510240078,-0.0010703244479373097
1700516695050537500,0.076537353515625,-0.012864399701356888,0.05313139408826828,0.2232450693845749
1700516695060547300,0.08654736328125,0.011620703153312206,-0.04597361758351326,-0.08249301463365555
1700516695070557400,0.096557373046875,-0.028386900201439857,-0.0034173682797700167,-0.16649097204208374
1700516695080567300,0.1065673828125,-0.024536235257983208,-0.030781082808971405,0.04248008131980896
1700516695090578400,0.116578369140625,-0.0027268105186522007,0.04140256717801094,0.12992550432682037
1700516695100588300,0.12658837890625,0.024596422910690308,0.006441121455281973,-0.09021804481744766
1700516695110598400,0.136598388671875,-0.022464029490947723,-0.007360710762441158,-0.06822699308395386
1700516695120608300,0.146608154296875,0.0014005564153194427,-0.07553177326917648,-0.043357860296964645
1700516695130618400,0.156618408203125,0.0048797097988426685,0.06570897251367569,0.018726816400885582
1700516695140628200,0.166628173828125,-0.016743825748562813,0.002560629276558757,0.19910778105258942
1700516695150639400,0.176639404296875,0.01110618095844984,-0.030285468325018883,-0.20689912140369415
1700516695160649200,0.186649169921875,-0.028060929849743843,0.029262814670801163,-0.16409705579280853
1700516695170659300,0.196659423828125,0.004995823837816715,-0.021618476137518883,0.0008641957538202405
1700516695180669200,0.206669189453125,0.0021433120127767324,0.05278385058045387,0.04193173721432686
1700516695190679300,0.21667919921875,-0.00920548290014267,-0.09170009195804596,-0.16093562543392181
1700516695200689400,0.226689453125,-0.048043157905340195,0.013550163246691227,-0.058393269777297974
1700516695210700300,0.2367001953125,0.01876995898783207,0.004210990387946367,-0.029443908482789993
1700516695220710400,0.24671044921875,0.0019451729021966457,0.057126667350530624,0.1320033073425293
1700516695230720300,0.25672021484375,-0.013944311067461967,-0.10151197761297226,0.24631869792938232
1700516695240730400,0.26673046875,-0.0005675196298398077,0.04939365014433861,-0.1821892410516739
1700516695250740200,0.276740234375,-0.05137290805578232,-0.015409582294523716,-0.0881439745426178
1700516695260750300,0.286750244140625,0.0028245486319065094,0.03965899720788002,0.10264088958501816
1700516695270761500,0.296761474609375,0.01456083357334137,-0.01576351746916771,0.05517537146806717
1700516695280771600,0.306771484375,-0.021468807011842728,-0.017680726945400238,-0.1251094490289688
1700516695290781200,0.31678125,-0.01902269385755062,0.02358841709792614,-0.04086487367749214
1700516695300791300,0.326791259765625,0.027720844373106956,0.007246461231261492,-0.03900252655148506
1700516695310801200,0.33680126953125,0.0049215215258300304,0.055080827325582504,0.24244779348373413
1700516695320811300,0.346811279296875,0.02413809299468994,-0.06351692229509354,0.08000455796718597
1700516695330822400,0.356822509765625,-0.0018660769565030932,0.07866258919239044,-0.23392434418201447
1700516695340832500,0.36683251953125,-0.02327549457550049,-0.04634805768728256,-0.010969826951622963
1700516695350842400,0.37684228515625,0.01967330276966095,0.0486610122025013,0.15650838613510132
1700516695360852500,0.3868525390625,0.00011930961773032323,-0.11245490610599518,-0.0043651871383190155
1700516695370862600,0.396862548828125,-0.032535307109355927,0.00782489962875843,-0.15528519451618195
1700516695380872400,0.40687255859375,-0.01858700066804886,-0.035119105130434036,-0.04114184528589249
1700516695390883300,0.41688330078125,0.002625077962875366,0.009260609745979309,-0.000937166390940547
1700516695400893400,0.4268935546875,-0.020004600286483765,-0.030238330364227295,0.25725895166397095
1700516695410903600,0.436903564453125,0.010098706930875778,-0.023306654766201973,-0.11638732999563217
1700516695420913400,0.446913330078125,-0.03080851212143898,0.010554106906056404,-0.18960721790790558
1700516695430923500,0.456923583984375,-0.011204184964299202,-0.019748404622077942,0.04231496527791023
1700516695440933400,0.466933349609375,0.004004595335572958,0.009338107891380787,0.15575283765792847
1700516695450943700,0.47694384765625,-0.01492435485124588,-0.11482512205839157,-0.08212868869304657
1700516695460953600,0.48695361328125,-0.026458771899342537,0.018566759303212166,-0.0937105119228363
1700516695470963700,0.496963623046875,-0.016355270519852638,-0.052560944110155106,-0.013188240118324757
1700516695480973800,0.506973876953125,0.015781626105308533,0.08063466101884842,0.08390821516513824
1700516695490983700,0.516983642578125,-0.029229789972305298,-0.09038262814283371,0.2336641550064087
1700516695500993800,0.526993896484375,0.0133261913433671,0.03111903741955757,-0.1996457278728485
1700516695511004700,0.537004638671875,-0.04623034596443176,-0.023320235311985016,-0.08871947973966599
1700516695521014800,0.547014892578125,0.007239270955324173,0.043890759348869324,0.11060720682144165
1700516695531024600,0.557024658203125,0.01167529821395874,-0.010310694575309753,0.10670913755893707
1700516695541034800,0.56703466796875,-0.017420535907149315,-0.013726997189223766,-0.14014005661010742
1700516695551044600,0.577044677734375,-0.01780349761247635,-0.003924167715013027,-0.04051493480801582
1700516695561054700,0.5870546875,0.02491014264523983,-0.012014318257570267,-0.007054180838167667
1700516695571065600,0.597065673828125,0.013222328387200832,0.06065242737531662,0.18209309875965118
1700516695581075700,0.60707568359375,0.005945506971329451,-0.09469454735517502,0.05537031590938568
1700516695591085600,0.61708544921875,0.007840346544981003,0.06611616909503937,-0.22142373025417328
1700516695601095700,0.627095703125,-0.03249882161617279,-0.051785700023174286,-0.006914098747074604
1700516695611105800,0.637105712890625,0.02395619824528694,0.044744301587343216,0.1594192236661911
1700516695621116700,0.64711669921875,-0.006462160497903824,-0.07920773327350616,-0.016884973272681236
1700516695631126500,0.65712646484375,-0.024265658110380173,0.028867600485682487,-0.16609682142734528
1700516695641136600,0.66713671875,-0.008957009762525558,-0.03337952867150307,-0.03267085924744606
1700516695651146800,0.677146728515625,0.017490044236183167,0.05403314158320427,0.01119006983935833
1700516695661156600,0.687156494140625,-0.004156661685556173,0.013547766953706741,0.18835926055908203
1700516695671166700,0.697166748046875,0.01788019761443138,0.0076057217083871365,-0.11097685247659683
1700516695681177900,0.707177734375,-0.017115604132413864,0.05104241147637367,-0.15470701456069946
1700516695691188000,0.71718798828125,0.020865067839622498,0.010183661244809628,0.06536222994327545
1700516695701197800,0.72719775390625,0.00854635052382946,0.023261379450559616,0.15516722202301025
1700516695711208000,0.7372080078125,0.008961803279817104,-0.04325506091117859,-0.11965875327587128
1700516695721217500,0.747217529296875,-0.0234075877815485,0.03953675553202629,-0.08222988992929459
1700516695731229000,0.75722900390625,0.0068033114075660706,-0.035769715905189514,0.042207106947898865
1700516695741238800,0.76723876953125,0.011186341755092144,0.11816339194774628,0.06990531831979752
1700516695751249000,0.777248779296875,-0.013138704933226109,-0.05852882191538811,0.1578543484210968
1700516695761258800,0.7872587890625,0.009099489077925682,0.03393186628818512,-0.2242962121963501
1700516695771268900,0.797268798828125,-0.029138443991541862,-0.013036706484854221,-0.06376247107982635
1700516695781279000,0.807279052734375,0.03531458228826523,0.03548688814043999,0.12927676737308502
1700516695791289900,0.817289794921875,0.00014940333494450897,-0.00857591163367033,0.09746610373258591
1700516695801299700,0.8272998046875,-0.0009376989910379052,0.002671949565410614,-0.18682554364204407
1700516695811309800,0.837309814453125,-0.01818193309009075,0.005327919963747263,-0.030586937442421913
1700516695821320000,0.84731982421875,0.024819063022732735,-0.01233522966504097,0.04914224520325661
1700516695831329800,0.857329833984375,0.026582075282931328,0.10271066427230835,0.12688924372196198
1700516695841340700,0.867340576171875,0.0029087045695632696,-0.07669291645288467,0.060929927974939346
1700516695851350800,0.877350830078125,0.017054084688425064,0.0638655349612236,-0.22916527092456818
1700516695861361000,0.88736083984375,-0.019716447219252586,-0.03501737117767334,0.018743060529232025
1700516695871370800,0.897370849609375,0.032340630888938904,0.06485143303871155,0.16287973523139954
1700516695881380900,0.907380859375,0.002800047630444169,-0.03617957606911659,0.034326549619436264
1700516695891390700,0.917390625,-0.0184053722769022,0.03152170777320862,-0.19671891629695892
1700516695901401900,0.92740185546875,-0.008439557626843452,-0.022832345217466354,0.029099294915795326
1700516695911411700,0.93741162109375,0.032996032387018204,0.007455785758793354,0.0473395511507988
1700516695921421800,0.947421875,0.01775103434920311,0.048471394926309586,0.14142370223999023
1700516695931431700,0.957431640625,0.004793423693627119,-0.07176073640584946,-0.018065286800265312
1700516695941441800,0.96744189453125,-0.0037926076911389828,0.04572354629635811,-0.21147896349430084
1700516695951452700,0.97745263671875,-0.012628709897398949,-0.07455918937921524,0.04801466315984726
1700516695961462800,0.987462890625,0.017358217388391495,0.06319548189640045,0.14540566504001617
1700516695971472600,0.99747265625,0.0012088088551536202,-0.055390287190675735,-0.026610039174556732
1700516695981482800,1.007482666015625,-0.02269279584288597,0.018445054069161415,-0.18138231337070465
1700516695991492900,1.017492919921875,-0.00022130868455860764,-0.02129490301012993,0.03193902596831322
1700516696001503700,1.027503662109375,0.033255692571401596,0.007089334540069103,0.03593749552965164
1700516696011513600,1.037513671875,0.015332084149122238,0.03852848336100578,0.16819486021995544
1700516696021523700,1.047523681640625,0.003850131994113326,-0.06880968809127808,-0.055213719606399536
1700516696031533800,1.057533935546875,-0.00547386147081852,0.07061158865690231,-0.22272361814975739
1700516696041543700,1.067543701171875,-0.011372762732207775,-0.053395580500364304,0.08051960915327072
1700516696051553800,1.0775537109375,0.02353435382246971,0.07960055023431778,0.1427811235189438
1700516696061564700,1.087564697265625,0.0068358019925653934,-0.06435475498437881,-0.05842415988445282
1700516696071574800,1.09757470703125,-0.02756131999194622,0.04421805962920189,-0.1640179604291916
1700516696081584600,1.107584716796875,0.005845105741173029,-0.051784101873636246,0.04783143848180771
1700516696091594800,1.1175947265625,0.027470773085951805,0.041917890310287476,0.05884147807955742
1700516696101604600,1.1276044921875,0.009188704192638397,0.01500984188169241,0.19341181218624115
1700516696111615700,1.13761572265625,-0.0010724549647420645,-0.026142122223973274,-0.09576966613531113
1700516696121625600,1.14762548828125,-0.01152829173952341,0.04194958135485649,-0.17316699028015137
1700516696131635700,1.1576357421875,0.002972087822854519,-0.04397251829504967,0.08617323637008667
1700516696141645600,1.1676455078125,0.005478388629853725,0.06167561560869217,0.1381690502166748
1700516696151655700,1.17765576171875,0.00797563511878252,-0.07581780105829239,-0.08721080422401428
1700516696161666600,1.18766650390625,-0.02828064002096653,0.028072647750377655,-0.14592204988002777
1700516696171676700,1.1976767578125,0.0018527611391618848,-0.06750553846359253,0.05444939434528351
1700516696181686500,1.2076865234375,0.0009084042394533753,0.05220727622509003,0.06174805387854576
1700516696191696600,1.217696533203125,-0.002923884429037571,0.0068123661912977695,0.1967942863702774
1700516696201706800,1.227706787109375,-0.0023635553661733866,-0.01912815496325493,-0.132751926779747
1700516696211718000,1.2377177734375,-0.02690218761563301,0.023859793320298195,-0.15488944947719574
1700516696221727700,1.247727783203125,-0.0036133769899606705,-0.046961650252342224,0.09551214426755905
1700516696231737900,1.25773779296875,0.00009108010999625549,0.03398832678794861,0.11890880763530731
1700516696241748000,1.267748046875,-0.0029033781029284,-0.07319165766239166,-0.13097718358039856
1700516696251757800,1.2777578125,-0.027163710445165634,0.025906166061758995,-0.12881310284137726
1700516696261768700,1.287768798828125,0.0014245248166844249,-0.058281682431697845,0.048946771770715714
1700516696271778800,1.29777880859375,-0.014691594056785107,0.07354239374399185,0.059292882680892944
1700516696281789000,1.307788818359375,-0.04620983824133873,0.02653440460562706,0.1983884572982788
1700516696291798800,1.317798828125,-0.03251160308718681,-0.0004857605672441423,-0.16798953711986542
1700516696301809000,1.327808837890625,-0.08162402361631393,0.09392835944890976,-0.15276078879833221
1700516696311819800,1.33781982421875,-0.039678171277046204,-0.02996295876801014,0.09404047578573227
1700516696321830000,1.347829833984375,0.013791978359222412,0.06461015343666077,0.12079006433486938
1700516696331839700,1.35783984375,-0.035597942769527435,-0.07801304012537003,-0.10830223560333252
1700516696341849900,1.367849853515625,-0.11015233397483826,0.08068978786468506,-0.10608808696269989
1700516696351859700,1.377859619140625,-0.022065887227654457,-0.06915989518165588,-0.009906692430377007
1700516696361870800,1.387870849609375,-0.004082892090082169,0.09891858696937561,0.07224330306053162
1700516696371880700,1.397880615234375,-0.01193948369473219,-0.08721905946731567,0.20486633479595184
1700516696381890800,1.407890869140625,-0.0026764769572764635,-0.007533283904194832,-0.18732275068759918
1700516696391900700,1.417900634765625,-0.05571173131465912,0.02208319865167141,-0.15469343960285187
1700516696401911800,1.427911865234375,0.0017206683987751603,-0.06414489448070526,0.05555806681513786
1700516696411921700,1.437921630859375,-0.00506959343329072,-0.07111439108848572,0.10729609429836273
1700516696421931800,1.447931884765625,0.034683678299188614,-0.09386550635099411,-0.1023482084274292
1700516696431941600,1.457941650390625,-0.03364158421754837,-0.009738913737237453,-0.08661399036645889
1700516696441951700,1.46795166015625,-0.007743939757347107,-0.1152762621641159,-0.061113156378269196
1700516696451962000,1.477962158203125,-0.010676879435777664,0.014273477718234062,0.02021791972219944
1700516696461972200,1.48797216796875,0.0068094367161393166,-0.15304334461688995,0.24372078478336334
1700516696471982300,1.497982421875,0.008187090046703815,-0.05702786520123482,-0.1665615439414978
1700516696481992000,1.507991943359375,-0.02858264185488224,-0.004138285759836435,-0.12677738070487976
1700516696492002000,1.518001953125,0.004984105937182903,-0.08312391489744186,0.036205142736434937
1700516696502013200,1.52801318359375,-0.012721121311187744,-0.05678924545645714,0.05128289386630058
1700516696512023300,1.538023193359375,0.025776470080018044,-0.12412434816360474,-0.0824780985713005
1700516696522033200,1.548033203125,-0.01480424590408802,-0.03434092923998833,-0.04668521508574486
1700516696532043300,1.558043212890625,0.013405287638306618,-0.07826684415340424,-0.054362040013074875
1700516696542054100,1.56805419921875,0.028749888762831688,-0.014091317541897297,0.14547410607337952
1700516696552064300,1.578064208984375,-0.0028298748657107353,-0.13782072067260742,0.14158642292022705
1700516696562074000,1.58807421875,0.010538927279412746,-0.015683887526392937,-0.18092237412929535
1700516696572084200,1.598084228515625,-0.023750603199005127,-0.02521880343556404,-0.07054340839385986
1700516696582094000,1.608093994140625,0.011354120448231697,0.040107473731040955,0.14759185910224915
1700516696592105200,1.618105224609375,0.012859073467552662,0.006456301547586918,0.101251520216465
1700516696602115000,1.628114990234375,0.022397451102733612,0.046419430524110794,-0.047347541898489
1700516696612125200,1.638125244140625,-0.00947845634073019,0.09847517311573029,-0.01176131796091795
1700516696622135000,1.648135009765625,0.017061274498701096,0.05399665609002113,0.04405134543776512
1700516696632146200,1.658146240234375,0.016381369903683662,0.11299046874046326,0.2930196225643158
1700516696642156000,1.668156005859375,0.02058303914964199,0.0008820389630272985,0.01588495634496212
1700516696652166100,1.678166259765625,-0.012654276564717293,0.10425423085689545,-0.20972687005996704
1700516696662176300,1.68817626953125,-0.009250223636627197,0.008342085406184196,0.021820077672600746
1700516696672186000,1.69818603515625,0.008550611324608326,0.09185615181922913,0.18726229667663574
1700516696682197000,1.708197021484375,0.008654207922518253,-0.03027055412530899,-0.02304033748805523
1700516696692207000,1.71820703125,-0.003099386813119054,0.07506359368562698,-0.154104083776474
1700516696702217200,1.72821728515625,-0.005695702508091927,-0.009957559406757355,-0.004144677426666021
1700516696712227000,1.73822705078125,0.0047026099637150764,0.06262289732694626,0.024926654994487762
1700516696722238000,1.748238037109375,-0.004472512751817703,-0.0008274441352114081,0.2205326408147812
1700516696732248000,1.758248046875,0.017431454733014107,0.014165620319545269,-0.16131378710269928
1700516696742258200,1.768258056640625,-0.021980931982398033,0.04988846182823181,-0.17213287949562073
1700516696752268000,1.77826806640625,0.020921792834997177,0.008407865650951862,0.06232888624072075
1700516696762279000,1.78827880859375,0.00657667638733983,0.03622325137257576,0.11157739162445068
1700516696772289000,1.7982890625,0.037581995129585266,-0.006050169467926025,-0.18165022134780884
1700516696782299100,1.808299072265625,-0.030767234042286873,0.04526814445853233,-0.09829887002706528
1700516696792309000,1.81830908203125,0.019394736737012863,-0.00355851580388844,0.026324015110731125
1700516696802319000,1.828319091796875,0.03026043437421322,0.12726634740829468,0.064529187977314
1700516696812330000,1.838330078125,0.020898623391985893,-0.05935253947973251,0.16654130816459656
1700516696822340000,1.848340087890625,0.009319731965661049,0.053336191922426224,-0.18896006047725677
1700516696832350000,1.858349853515625,-0.01924826204776764,0.005772401578724384,-0.0460769459605217
1700516696842360000,1.868360107421875,0.027832163497805595,0.0070187607780098915,0.12987837195396423
1700516696852371200,1.87837109375,-0.004126834217458963,-0.006573214195668697,0.058863315731287
1700516696862381300,1.88838134765625,0.006943127140402794,-0.03942650184035301,-0.1904335916042328
1700516696872391200,1.89839111328125,-0.01607510633766651,-0.004259992390871048,-0.06927361339330673
1700516696882401300,1.9084013671875,0.031066838651895523,-0.07751050591468811,-0.024151675403118134
1700516696892412200,1.918412109375,0.029146432876586914,0.05675861984491348,0.1123071014881134
1700516696902422300,1.92842236328125,0.02556687965989113,-0.09131020307540894,-0.011141867376863956
1700516696912432000,1.93843212890625,0.00518837058916688,-0.029821012169122696,-0.29572007060050964
1700516696922442200,1.948442138671875,-0.006234460044652224,-0.036797162145376205,-0.0773424580693245
1700516696932453000,1.958453125,0.029627135023474693,0.022156700491905212,0.12618163228034973
1700516696942463200,1.968463134765625,0.01986132189631462,-0.01218875590711832,-0.028787972405552864
1700516696952473000,1.97847314453125,-0.004576109815388918,-0.036081839352846146,-0.19984227418899536
1700516696962483200,1.988483154296875,-0.00652714166790247,-0.026818830519914627,-0.04819842055439949
1700516696972494000,1.998494140625,0.027031350880861282,-0.016265256330370903,0.0244936253875494
1700516696982504200,2.008504150390625,-0.0010772485984489322,0.037152960896492004,0.2343672215938568
1700516696992514000,2.01851416015625,0.013713149353861809,-0.08984307199716568,-0.024387365207076073
1700516697002524200,2.028524169921875,-0.009021990932524204,0.01775715872645378,-0.207657590508461
1700516697012535000,2.03853515625,-0.004418716765940189,0.004956408869475126,0.0004977448261342943
1700516697022545200,2.048545166015625,0.01489266287535429,0.02166854403913021,0.1766757071018219
1700516697032555000,2.058554931640625,-0.0029944581910967827,-0.07896885275840759,-0.024143420159816742
1700516697042565000,2.068565185546875,-0.02185017056763172,0.024695493280887604,-0.11226315796375275
1700516697052576000,2.078575927734375,0.0063154203817248344,-0.0626005306839943,-0.03124021179974079
1700516697062586000,2.088586181640625,0.007671235594898462,0.07329605519771576,0.021072793751955032
1700516697072596000,2.098595947265625,-0.012051070109009743,-0.054134875535964966,0.22834183275699615
1700516697082606000,2.108606201171875,-0.006643787957727909,-0.01835210993885994,-0.14274436235427856
1700516697092617000,2.118616943359375,-0.02233166992664337,-0.0054725296795368195,-0.1291465312242508
1700516697102627000,2.128626953125,0.01895025558769703,0.014065219089388847,0.08132654428482056
1700516697112637000,2.138636962890625,-0.005862150341272354,0.008167648687958717,0.15621542930603027
1700516697122648300,2.1486484375,0.0014799186028540134,-0.035121235996484756,-0.12094053626060486
1700516697132658200,2.158658203125,-0.018206700682640076,0.025291508063673973,-0.04084383696317673
1700516697142668000,2.16866796875,0.017489777877926826,-0.0020716730505228043,0.011591674759984016
1700516697152678000,2.178677978515625,0.0191356111317873,0.10660793632268906,0.14736308157444
1700516697162689300,2.188689208984375,0.0020793962758034468,-0.08095210790634155,0.14401762187480927
1700516697172699100,2.19869921875,0.003059173235669732,0.08428212255239487,-0.2090165913105011
1700516697182709200,2.208709228515625,-0.015233547426760197,0.007604389917105436,-0.019401127472519875
1700516697192719000,2.218718994140625,0.03633164241909981,0.10357539355754852,0.17915430665016174
1700516697202730200,2.228730224609375,0.0037729002069681883,0.0034264230635017157,0.07187631726264954
1700516697212740000,2.238739990234375,-0.0013973605819046497,0.07882637530565262,-0.14298778772354126
1700516697222750200,2.248750244140625,0.012113387696444988,0.0028551749419420958,0.016709204763174057
1700516697232760000,2.258760009765625,0.022122878581285477,0.03973116725683212,0.017491109669208527
1700516697242771200,2.268771240234375,0.012676913291215897,0.08743983507156372,0.23236879706382751
1700516697252781000,2.278781005859375,0.041801244020462036,-0.020291956141591072,-0.014100372791290283
1700516697262791200,2.288791259765625,-0.008242483250796795,0.069065622985363,-0.14143143594264984
1700516697272802000,2.298802001953125,0.01756194978952408,-0.005379319190979004,0.06088225916028023
1700516697282812200,2.308812255859375,0.023559121415019035,0.055328235030174255,0.18072716891765594
1700516697292822000,2.318822021484375,0.02538951300084591,-0.057010553777217865,-0.027753334492444992
1700516697302832000,2.32883203125,-0.009831325151026249,0.052565205842256546,-0.0850248783826828
1700516697312843000,2.338843017578125,0.004580636974424124,-0.08002080023288727,0.041253961622714996
1700516697322853000,2.34885302734375,0.005062402691692114,0.09704079478979111,0.054183878004550934
1700516697332863000,2.358863037109375,-0.02448164112865925,-0.09422849863767624,0.2183150202035904
1700516697342874000,2.3688740234375,-0.002520149340853095,-0.01278423797339201,-0.1591249406337738
1700516697352884000,2.378884033203125,-0.021283185109496117,-0.01787540316581726,-0.10399270802736282
1700516697362894000,2.38889404296875,0.029400765895843506,-0.025441177189350128,0.10625959187746048
1700516697372904000,2.398904052734375,0.004444282967597246,-0.014212225563824177,0.10846628993749619
1700516697382915000,2.4089150390625,-0.008650479838252068,-0.046674296259880066,-0.13674825429916382
1700516697392925000,2.418925048828125,-0.01191285252571106,0.027348533272743225,-0.0690419152379036
1700516697402935000,2.42893505859375,-0.0075902752578258514,-0.07495280355215073,0.01751880533993244
1700516697412946200,2.4389462890625,0.03238243982195854,0.0937240943312645,0.09459920972585678
1700516697422956300,2.448956298828125,-0.024342890828847885,-0.13967373967170715,0.07718266546726227
1700516697432966100,2.458966064453125,0.006111422087997198,0.045815691351890564,-0.2454262673854828
1700516697442976300,2.468976318359375,-0.021764418110251427,-0.06341945379972458,-0.039914391934871674
1700516697452987400,2.4789873046875,0.0225596372038126,0.028123246505856514,0.12249822169542313
1700516697462997500,2.48899755859375,-0.009318932890892029,-0.06325646489858627,0.049677539616823196
1700516697473007400,2.49900732421875,-0.007002515718340874,0.00757988914847374,-0.22728988528251648
1700516697483018800,2.509018798828125,-0.014718492515385151,-0.03315182775259018,-0.05587977543473244
1700516697493028600,2.519028564453125,0.02315938100218773,-0.03249349445104599,0.03226499632000923
1700516697503038700,2.529038818359375,0.034679949283599854,0.07983864098787308,0.14338165521621704
1700516697513049600,2.539049560546875,-0.002302302746102214,-0.11207354068756104,-0.034753452986478806
1700516697523059700,2.549059814453125,0.006104231346398592,0.03875325620174408,-0.2767959237098694
1700516697533069600,2.559069580078125,-0.013450827449560165,-0.05126265436410904,-0.007135141175240278
1700516697543079700,2.56907958984375,0.02209092117846012,0.060816213488578796,0.13835415244102478
1700516697553090600,2.579090576171875,-0.009241169318556786,-0.07148750126361847,-0.011611915193498135
1700516697563100700,2.5891005859375,-0.0005049353349022567,0.02201768383383751,-0.258300244808197
1700516697573110500,2.599110595703125,-0.0065228804014623165,-0.03106098063290119,-0.054900266230106354
1700516697583121700,2.60912158203125,0.029876671731472015,-0.012229768559336662,0.013566674664616585
1700516697593131500,2.619131591796875,0.03928055986762047,0.049482330679893494,0.1676425337791443
1700516697603141600,2.6291416015625,0.009165801107883453,-0.10458073765039444,-0.05215135216712952
1700516697613152500,2.639152587890625,0.016026636585593224,0.050152648240327835,-0.2809842526912689
1700516697623162600,2.64916259765625,-0.014933675527572632,-0.062427692115306854,-0.0477033406496048
1700516697633172500,2.65917236328125,0.022052304819226265,0.0683998316526413,0.1539807766675949
1700516697643183400,2.669183349609375,0.001086037140339613,-0.07864128053188324,0.009471798315644264
1700516697653193500,2.679193359375,-0.0008823052630759776,0.00996022205799818,-0.19545871019363403
1700516697663203600,2.68920361328125,0.0021920478902757168,-0.023987358435988426,-0.04247502237558365
1700516697673214500,2.69921435546875,0.03647252172231674,-0.008586830459535122,0.009187906049191952
1700516697683224300,2.709224365234375,0.016692427918314934,0.04551315680146217,0.20850500464439392
1700516697693234400,2.719234375,0.0007217166712507606,-0.08701612800359726,0.006036054342985153
1700516697703244500,2.72924462890625,0.006111422087997198,0.05030418187379837,-0.209115132689476
1700516697713255700,2.739255615234375,-0.007172691635787487,-0.03696600720286369,-0.014999189414083958
1700516697723265500,2.749265625,0.010994594544172287,0.059374112635850906,0.17252036929130554
1700516697733275600,2.759275634765625,0.005331914871931076,-0.08082666993141174,0.033009082078933716
1700516697743286500,2.76928662109375,-0.013281184248626232,0.03633377328515053,-0.14228203892707825
1700516697753296600,2.779296630859375,-0.005313006229698658,-0.055388156324625015,-0.02196655236184597
1700516697763306500,2.789306396484375,0.026507241651415825,0.027877703309059143,0.04471074417233467
1700516697773317600,2.799317626953125,0.00878150761127472,0.023483488708734512,0.25468766689300537
1700516697783327500,2.809327392578125,-0.004278901033103466,-0.05483608320355415,-0.04152373969554901
1700516697793337600,2.819337646484375,-0.0013877731980755925,0.036785710602998734,-0.22116674482822418
1700516697803348500,2.829348388671875,-0.022935941815376282,-0.054312508553266525,0.021318871527910233
1700516697813358600,2.839358642578125,0.007873369380831718,0.04845355078577995,0.1815735250711441
1700516697823368400,2.849368408203125,-0.001731587341055274,-0.08319076150655746,-0.006393450777977705
1700516697833379600,2.859379638671875,-0.021258417516946793,0.029627135023474693,-0.15085449814796448
1700516697843389400,2.869389404296875,-0.003096190979704261,-0.04053410887718201,-0.023576699197292328
1700516697853399600,2.879399658203125,0.010804444551467896,0.02015933021903038,0.06771326810121536
1700516697863410400,2.889410400390625,-0.0008093346259556711,0.027718447148799896,0.2501762807369232
1700516697873420500,2.899420654296875,-0.012604741379618645,-0.055205732583999634,-0.06495796144008636
1700516697883430400,2.909430419921875,-0.0037915424909442663,0.03892103210091591,-0.21928521990776062
1700516697893441500,2.919441650390625,-0.016105467453598976,-0.03960466757416725,0.03887256607413292
1700516697903451400,2.929451416015625,0.004652009811252356,0.046058304607868195,0.16654103994369507
1700516697913461500,2.93946142578125,-0.010223343037068844,-0.09282900393009186,-0.051901813596487045
1700516697923472600,2.94947265625,-0.01781921088695526,0.03762327507138252,-0.16730935871601105
1700516697933482800,2.959482666015625,0.00037683729897253215,-0.07912863790988922,-0.03098294883966446
1700516697943492600,2.96949267578125,0.0017243968322873116,0.044503018260002136,0.05044666305184364
1700516697953503500,2.97950341796875,-0.013161608017981052,-0.004619785584509373,0.21392640471458435
1700516697963513600,2.989513671875,-0.009660350158810616,-0.0326295830309391,-0.10647770762443542
1700516697973523700,2.999523681640625,-0.011151720769703388,0.03609195724129677,-0.20093363523483276
1700516697983534600,3.00953466796875,-0.0038458709605038166,-0.017725201323628426,0.0273906122893095
1700516697993544700,3.019544677734375,0.006028864067047834,0.05550107732415199,0.1553134173154831
1700516698003554600,3.029554443359375,-0.008930644020438194,-0.07000678032636642,-0.0837140679359436
1700516698013565400,3.0395654296875,-0.007407582364976406,0.04807644709944725,-0.15890203416347504
1700516698023575600,3.049575439453125,0.005282380152493715,-0.059111256152391434,-0.03128814697265625
1700516698033586400,3.05958642578125,0.008628642186522484,0.09348174929618835,0.029978938400745392
1700516698043596500,3.069596435546875,-0.007750597782433033,-0.007759386207908392,0.21600207686424255
1700516698053606400,3.0796064453125,-0.009922938421368599,0.0009414274245500565,-0.16477324068546295
1700516698063617500,3.089617431640625,0.008929579518735409,0.019779296591877937,-0.2168247252702713
1700516698073627400,3.09962744140625,0.0034557178150862455,-0.01267185341566801,0.014676947146654129
1700516698083637500,3.109637451171875,0.015990151092410088,0.046122487634420395,0.1320943832397461
1700516698093648400,3.1196484375,-0.006278402172029018,-0.05889740586280823,-0.13582921028137207
1700516698103658500,3.129658447265625,-0.010145312175154686,0.0216006338596344,-0.13749395310878754
1700516698113668400,3.13966845703125,0.009850500151515007,-0.032871395349502563,-0.03263464197516441
1700516698123679700,3.1496796875,0.01745275966823101,0.10588541626930237,0.08246611058712006
1700516698133689600,3.159689697265625,-0.014516890980303288,-0.03581046313047409,0.21988922357559204
1700516698143699700,3.16969970703125,-0.002150768879801035,0.022506108507514,-0.17487646639347076
1700516698153710600,3.179710693359375,-0.004077832214534283,-0.004808603785932064,-0.14994528889656067
1700516698163720700,3.189720703125,0.015321964398026466,0.020909808576107025,0.06083565205335617
1700516698173731600,3.199731689453125,0.004312190227210522,0.020365459844470024,0.15625005960464478
1700516698183741700,3.20974169921875,-0.0008831042214296758,-0.02413223311305046,-0.11394201219081879
1700516698193751600,3.21975146484375,-0.009496832266449928,0.0021856562234461308,-0.0927262082695961
1700516698203762400,3.229762451171875,0.00729493098333478,-0.003978762775659561,-0.022541794925928116
1700516698213772500,3.2397724609375,0.029414614662528038,0.11494496464729309,0.1066121980547905
1700516698223782700,3.24978271484375,-0.013124324381351471,-0.0836392343044281,0.18423855304718018
1700516698233793500,3.25979345703125,0.01056236308068037,0.033903639763593674,-0.21673497557640076
1700516698243803400,3.269803466796875,-0.008682703599333763,-0.027242006734013557,-0.1280069649219513
1700516698253814500,3.279814453125,0.026266491040587425,0.0353100523352623,0.07984316349029541
1700516698263824400,3.289824462890625,-0.003490072675049305,-0.001823732745833695,0.1416037380695343
1700516698273834500,3.29983447265625,-0.0013480921043083072,-0.001876995898783207,-0.10713577270507812
1700516698283845400,3.309845458984375,-0.014258564449846745,-0.019404057413339615,-0.05642039701342583
1700516698293855500,3.31985546875,0.02442438341677189,-0.0022690133191645145,-0.017829596996307373
1700516698303866600,3.32986669921875,0.02780979312956333,0.08580385148525238,0.18137085437774658
1700516698313876700,3.339876708984375,-0.012658004648983479,-0.11272308230400085,0.13002963364124298
1700516698323886600,3.349886474609375,0.010002033784985542,0.07394879311323166,-0.21581058204174042
1700516698333897500,3.3598974609375,-0.02232527919113636,-0.052739109843969345,-0.060377854853868484
1700516698343907600,3.369907470703125,0.028564000502228737,0.0635499507188797,0.1462211310863495
1700516698353917700,3.379917724609375,-0.0011555455857887864,-0.09333820641040802,0.08032786101102829
1700516698363928600,3.389928466796875,-0.010554106906056404,0.007428088691085577,-0.1413067877292633
1700516698373938700,3.399938720703125,-0.004769188817590475,-0.057492054998874664,-0.04980164393782616
1700516698383949600,3.409949462890625,0.012854546308517456,-0.003537743119522929,0.022604111582040787
1700516698393959400,3.41995947265625,-0.007674431428313255,0.013856426812708378,0.24221742153167725
1700516698403969500,3.429969482421875,-0.0036250948905944824,-0.07647746056318283,-0.003924434073269367
1700516698413980400,3.43998046875,-0.005088502075523138,0.019212841987609863,-0.2042790949344635
1700516698423990500,3.449990478515625,-0.006354834884405136,-0.032701220363378525,0.00033582461765035987
1700516698434001400,3.46000146484375,0.007792409509420395,0.0518869012594223,0.18561966717243195
1700516698444011500,3.470011474609375,-0.0025449167005717754,-0.09452011436223984,-0.01136930100619793
1700516698454022000,3.48002197265625,-0.008310394361615181,0.025469673797488213,-0.14366741478443146
1700516698464032800,3.49003271484375,0.004483165219426155,-0.04855741560459137,-0.026072613894939423
1700516698474043000,3.50004296875,0.008971923030912876,0.06411267071962357,0.0605967678129673
1700516698484054000,3.510053955078125,-0.01429371815174818,-0.015588280744850636,0.23585593700408936
1700516698494064000,3.520064208984375,-0.004988367203623056,-0.0009446232579648495,-0.13153432309627533
1700516698504074000,3.530073974609375,-0.011509915813803673,0.016640495508909225,-0.16619883477687836
1700516698514085000,3.540085205078125,0.017303090542554855,0.027935760095715523,0.0615677572786808
1700516698524095000,3.550094970703125,-0.0012085424968972802,0.02147652953863144,0.17585918307304382
1700516698534106000,3.560106201171875,-0.005311142187565565,-0.03148229047656059,-0.11402510851621628
1700516698544116000,3.570115966796875,-0.01979793980717659,0.028067054226994514,-0.09018608182668686
1700516698554126000,3.5801259765625,0.006155097857117653,-0.0004500742070376873,0.017727598547935486
1700516698564137000,3.590136962890625,0.022578280419111252,0.13568805158138275,0.10998402535915375
1700516698574147000,3.60014697265625,-0.013588513247668743,-0.07351230084896088,0.1658502221107483
1700516698584158000,3.610157958984375,0.0036557212006300688,0.03887709230184555,-0.21068108081817627
1700516698594168000,3.62016796875,-0.014940067194402218,-0.011922705918550491,-0.0936732292175293
1700516698604178000,3.630177978515625,0.02803056873381138,0.05870485678315163,0.11034781485795975
1700516698614188800,3.640188720703125,-0.002778742229565978,-0.02624651789665222,0.11878630518913269
1700516698624199000,3.650198974609375,0.0019688750617206097,0.0033073797821998596,-0.19472235441207886
1700516698634210000,3.6602099609375,-0.016402408480644226,-0.02153485268354416,-0.06018451228737831
1700516698644220200,3.67022021484375,0.016771523281931877,0.009621468372642994,0.01799311488866806
1700516698654230000,3.68022998046875,0.030180007219314575,0.09942006319761276,0.12068700045347214
1700516698664241200,3.6902412109375,-0.006721019744873047,-0.1020752340555191,0.05526032671332359
1700516698674251000,3.7002509765625,0.002514024032279849,0.05156092718243599,-0.2632497549057007
1700516698684262100,3.71026220703125,-0.02214951068162918,-0.046658314764499664,-0.023841682821512222
1700516698694272000,3.72027197265625,0.02357962727546692,0.07174316048622131,0.14712287485599518
1700516698704283000,3.730282958984375,-0.007726096548140049,-0.07506758719682693,0.039323702454566956
1700516698714293000,3.74029296875,-0.010313623584806919,0.020650949329137802,-0.2232421338558197
1700516698724303000,3.75030322265625,-0.0036908749025315046,-0.045942723751068115,-0.016042616218328476
1700516698734314000,3.76031396484375,0.029860161244869232,0.0073260897770524025,0.0456167533993721
1700516698744324000,3.770323974609375,0.01986691541969776,0.04182174801826477,0.18576879799365997
1700516698754335000,3.7803349609375,-0.0037148434203118086,-0.08323337137699127,-0.022911973297595978
1700516698764344800,3.7903447265625,0.002983805723488331,0.04163080081343651,-0.23250886797904968
1700516698774356000,3.80035595703125,-0.01218502689152956,-0.04243480786681175,0.017317738384008408
1700516698784365800,3.81036572265625,0.017733456566929817,0.08163094520568848,0.18471339344978333
1700516698794376000,3.8203759765625,-0.00487092137336731,-0.08387865126132965,0.005064533557742834
1700516698804387000,3.830386962890625,-0.010006029158830643,0.045454833656549454,-0.18438288569450378
1700516698814397200,3.840397216796875,0.008627576753497124,-0.053294114768505096,-0.0016405072528868914
1700516698824408000,3.850407958984375,0.019874371588230133,0.04152640327811241,0.064192034304142
1700516698834418200,3.860418212890625,-0.0005784385721199214,0.009387110359966755,0.22576788067817688
1700516698844429000,3.870428955078125,0.0016727314796298742,-0.03984967619180679,-0.09236987680196762
1700516698854439000,3.88043896484375,-0.006146575789898634,0.030544061213731766,-0.21385769546031952
1700516698864449000,3.890448974609375,0.004631237126886845,-0.013496633619070053,0.05211726203560829
1700516698874460000,3.9004599609375,0.01091683004051447,0.050093527883291245,0.17997854948043823
1700516698884470000,3.910469970703125,-0.010042513720691204,-0.06532121449708939,-0.0840269923210144
1700516698894481000,3.92048095703125,-0.01309236604720354,0.03580673411488533,-0.14183756709098816
1700516698904491000,3.930490966796875,0.009066998027265072,-0.055929843336343765,0.015871906653046608
1700516698914502000,3.940501953125,0.009182047098875046,0.09477018564939499,0.08142801374197006
1700516698924512000,3.950511962890625,-0.010812168009579182,-0.04198260232806206,0.22648054361343384
1700516698934523100,3.960523193359375,-0.003835218260064721,0.006383863277733326,-0.18434454500675201
1700516698944533000,3.970532958984375,-0.005783853121101856,0.005891445092856884,-0.14774978160858154
1700516698954544000,3.980544189453125,0.015598134137690067,0.019825369119644165,0.09279784560203552
1700516698964554000,3.990553955078125,-0.005565207917243242,0.0036418726667761803,0.14840438961982727
1700516698974564000,4.000564208984375,-0.010280068032443523,-0.052079446613788605,-0.14039678871631622
1700516698984575000,4.010574951171875,-0.017710287123918533,0.009900035336613655,-0.08143307268619537
1700516698994585000,4.020585205078125,0.0009781790431588888,-0.01866050250828266,0.03254462778568268
1700516699004596000,4.030595947265625,0.022495189681649208,0.10763165354728699,0.11985795944929123
1700516699014606000,4.040606201171875,-0.018972892314195633,-0.08865796029567719,0.14694391191005707
1700516699024617000,4.050616943359375,0.005810218397527933,0.04357117787003517,-0.22742010653018951
1700516699034627000,4.060626953125,-0.01726127788424492,-0.02087625302374363,-0.07065819203853607
1700516699044638000,4.070637939453125,0.030063891783356667,0.06641896814107895,0.1328166425228119
1700516699054647800,4.080647705078125,-0.006616889964789152,-0.031145935878157616,0.09660643339157104
1700516699064658000,4.090657958984375,0.001600559800863266,0.005735650192946196,-0.19257797300815582
1700516699074668800,4.100668701171875,-0.013880928047001362,-0.03795244172215462,-0.03509407117962837
1700516699084679000,4.110678955078125,0.028009796515107155,0.007436610758304596,0.028320055454969406
1700516699094690000,4.12068994140625,0.024582307785749435,0.07168270647525787,0.17011979222297668
1700516699104700200,4.1307001953125,-0.0052144695073366165,-0.0818093791604042,0.04650118947029114
1700516699114711000,4.1407109375,0.008008125238120556,0.057908572256565094,-0.22782304883003235
1700516699124721200,4.15072119140625,-0.008376174606382847,-0.03385863080620766,-0.014876950532197952
1700516699134732000,4.16073193359375,0.02400520071387291,0.08488639444112778,0.16296547651290894
1700516699144742000,4.170741943359375,-0.002159290947020054,-0.0665406808257103,0.014024739153683186
1700516699154753000,4.1807529296875,-0.0024027039762586355,0.04765327274799347,-0.1900213360786438
1700516699164763000,4.190762939453125,-0.00035499935620464385,-0.05970540642738342,-0.0015462313313037157
1700516699174774000,4.20077392578125,0.02347469888627529,0.030368825420737267,0.04866713657975197
1700516699184784000,4.210783935546875,0.0017310547409579158,0.023031815886497498,0.21222303807735443
1700516699194795000,4.220794921875,0.0023483755066990852,-0.04296531155705452,-0.05889234319329262
1700516699204804900,4.230804931640625,-0.00546294217929244,0.034689005464315414,-0.1926107257604599
1700516699214815000,4.24081494140625,0.0073298183269798756,-0.02767476998269558,0.049560628831386566
1700516699224826000,4.250826171875,0.0113975303247571,0.05679084360599518,0.1729304939508438
1700516699234836200,4.260836181640625,-0.00788641907274723,-0.07701089233160019,-0.06372278928756714
1700516699244847000,4.27084716796875,-0.01333071943372488,0.0501696951687336,-0.14853647351264954
1700516699254857000,4.28085693359375,0.005395564250648022,-0.0655936598777771,0.029456159099936485
1700516699264868000,4.2908681640625,0.00954050850123167,0.0733618289232254,0.07424440234899521
1700516699274878000,4.3008779296875,-0.015363776125013828,-0.029455360025167465,0.19756820797920227
1700516699284889000,4.31088916015625,-0.003312173532322049,-0.008988435380160809,-0.15665405988693237
1700516699294899000,4.32089892578125,-0.011811652220785618,0.006856041960418224,-0.14586879312992096
1700516699304909800,4.330909912109375,0.01733744516968727,0.003002181416377425,0.07990468293428421
1700516699314920000,4.340919921875,-0.003930559381842613,0.007738347165286541,0.14367380738258362
1700516699324930800,4.350930908203125,-0.009309345856308937,-0.06563493609428406,-0.1423475593328476
1700516699334941000,4.36094091796875,-0.015116901136934757,0.026325080543756485,-0.11057311296463013
1700516699344952000,4.3709521484375,0.0015305186389014125,-0.04490755498409271,0.04328036308288574
1700516699354962200,4.380962158203125,0.008702411316335201,0.10861515998840332,0.09045639634132385
1700516699364973000,4.39097314453125,-0.017680194228887558,-0.07333466410636902,0.14250920712947845
1700516699374983200,4.400983154296875,-0.006195311434566975,0.022171614691615105,-0.20931753516197205
1700516699384994000,4.410994140625,-0.011744806542992592,-0.014692393131554127,-0.09573131799697876
1700516699395004200,4.421004150390625,0.022964704781770706,0.03891384229063988,0.10381481051445007
1700516699405015000,4.43101513671875,-0.0032812808640301228,-0.02021046355366707,0.12242444604635239
1700516699415025000,4.44102490234375,-0.002394714392721653,-0.023734623566269875,-0.18690943717956543
1700516699425036000,4.4510361328125,-0.01607643812894821,0.005540973041206598,-0.07300043851137161
1700516699435046000,4.4610458984375,0.0015140071045607328,-0.017611218616366386,0.0508919432759285
1700516699445057000,4.47105712890625,0.018565960228443146,0.10817227512598038,0.09687834233045578
1700516699455066400,4.48106640625,-0.01531690452247858,-0.1003420501947403,0.1219157874584198
1700516699465077500,4.491077392578125,-0.0015544871566817164,0.04162440821528435,-0.24022644758224487
1700516699475087400,4.50108740234375,-0.005539374891668558,-0.022098910063505173,-0.053890127688646317
1700516699485098500,4.511098388671875,0.02364008128643036,0.059414058923721313,0.1276298612356186
1700516699495108600,4.521108642578125,-0.008094944059848785,-0.01866263337433338,0.09182152897119522
1700516699505119500,4.531119384765625,-0.0034202977549284697,-0.008504272438585758,-0.1797199696302414
1700516699515129600,4.541129638671875,-0.015282017178833485,-0.01423379685729742,-0.0412217378616333
1700516699525140500,4.551140380859375,0.0034969968255609274,-0.011122692376375198,0.0243183895945549
1700516699535150600,4.561150634765625,0.02912459522485733,0.08333936333656311,0.12057647854089737
1700516699545161500,4.571161376953125,-0.023934626951813698,-0.1288978010416031,0.08753544092178345
1700516699555171600,4.581171630859375,-0.00686163455247879,0.04169951006770134,-0.24537433683872223
1700516699565182500,4.591182373046875,-0.010155964642763138,-0.04212455078959465,-0.06366366147994995
1700516699575192600,4.601192626953125,0.020235231146216393,0.052077580243349075,0.1072058156132698
1700516699585203500,4.611203369140625,-0.010437993332743645,-0.043961066752672195,0.0696544423699379
1700516699595213300,4.62121337890625,-0.006085855886340141,0.011953598819673061,-0.16953256726264954
1700516699605224700,4.631224609375,-0.006471215281635523,-0.027366643771529198,-0.04562927037477493
1700516699615234600,4.641234619140625,0.022040320560336113,0.005692773032933474,-0.006613694131374359
1700516699625245700,4.65124560546875,0.02761058881878853,0.07571420073509216,0.17139944434165955
1700516699635255600,4.661255615234375,-0.02305418625473976,-0.15874117612838745,0.07129814475774765
1700516699645266400,4.671266357421875,0.022219019010663033,0.06867626309394836,-0.2371656745672226
1700516699655276500,4.681276611328125,-0.014674017205834389,-0.05275961756706238,-0.06150943413376808
1700516699665287400,4.691287353515625,-0.00041545313433744013,0.08005861937999725,0.11061759293079376
1700516699675297500,4.701297607421875,-0.010481403209269047,-0.06018797308206558,0.05054306983947754
1700516699685308400,4.711308349609375,0.015475895255804062,0.026385001838207245,-0.12190007418394089
1700516699695318500,4.721318603515625,-0.0065532405860722065,-0.05060778185725212,-0.042279280722141266
1700516699705329400,4.731329345703125,0.00032863407977856696,0.05546672269701958,-0.05650562047958374
1700516699715339500,4.741339599609375,0.00247594085521996,0.03681846708059311,0.19089113175868988
1700516699725350700,4.7513505859375,-0.0060142166912555695,-0.1328030526638031,0.06653774529695511
1700516699735361500,4.761361572265625,0.028203409165143967,0.05674557015299797,-0.2118757665157318
1700516699745371600,4.77137158203125,-0.025791648775339127,-0.021102622151374817,-0.08597242832183838
1700516699755382500,4.781382568359375,-0.003513242118060589,0.03663071617484093,0.08033052831888199
1700516699765392600,4.791392578125,0.010988469235599041,-0.06040768325328827,0.024591097608208656
1700516699775403500,4.801403564453125,0.02087598666548729,0.009007609449326992,-0.05308239161968231
1700516699785413400,4.811413330078125,0.0024176177103072405,-0.04159777611494064,-0.024153806269168854
1700516699795424500,4.821424560546875,-0.002170742489397526,0.05260195955634117,-0.03122236765921116
1700516699805434400,4.831434326171875,-0.026741066947579384,0.00920228660106659,0.22302429378032684
1700516699815445500,4.841445556640625,0.003561178920790553,-0.034625355154275894,0.004679706413298845
1700516699825455400,4.851455322265625,-0.0002300971100339666,0.032588835805654526,-0.15408916771411896
1700516699835466500,4.861466552734375,0.010416422039270401,-0.02371598221361637,-0.022426478564739227
1700516699845476400,4.871476318359375,-0.017194166779518127,0.06407538801431656,0.11282508820295334
1700516699855487500,4.881487548828125,0.005981726106256247,-0.06948160380125046,-0.0007957525085657835
1700516699865497600,4.89149755859375,0.0017683389596641064,0.04180363938212395,-0.08154758810997009
1700516699875508500,4.901508544921875,-0.00714552728459239,-0.03732260316610336,-0.04904637113213539
1700516699885518600,4.9115185546875,0.04066327214241028,0.11448929458856583,0.05326854810118675
1700516699895529500,4.921529541015625,-0.031374167650938034,-0.09969410300254822,0.2101457715034485
1700516699905540400,4.931540283203125,0.009208411909639835,0.018996328115463257,-0.15793770551681519
1700516699915550500,4.941550537109375,-0.014994928613305092,-0.010159160941839218,-0.11763395369052887
1700516699925561300,4.951561279296875,0.029256155714392662,0.05945134162902832,0.06685919314622879
1700516699935571500,4.961571533203125,-0.009565009735524654,-0.0156474020332098,0.1474376618862152
1700516699945582300,4.971582275390625,0.009915214963257313,-0.011888351291418076,-0.09633532166481018
1700516699955592400,4.981592529296875,-0.023365244269371033,-0.01599894091486931,-0.09534729272127151
1700516699965603600,4.991603515625,0.023999076336622238,-0.011718175373971462,-0.024094950407743454
1700516699975613700,5.00161376953125,0.03779930993914604,0.1243741512298584,0.204110249876976
1700516699985624600,5.01162451171875,-0.00936207640916109,-0.09766317903995514,0.09808901697397232
1700516699995634400,5.021634521484375,0.018816564232110977,0.0777568444609642,-0.21021528542041779
1700516700005645600,5.0316455078125,-0.02298307977616787,-0.025555960834026337,-0.0443381704390049
1700516700015656400,5.041656494140625,0.02305098995566368,0.09069395065307617,0.1764538586139679
1700516700025666600,5.05166650390625,0.007767641916871071,-0.05155586823821068,0.09123643487691879
1700516700035677400,5.061677490234375,0.009762615896761417,0.03459605947136879,-0.15208832919597626
1700516700045687600,5.0716875,-0.0018498316640034318,-0.05125253647565842,-0.049051433801651
1700516700055698400,5.081698486328125,0.010379670187830925,0.060674265027046204,0.03233583644032478
1700516700065708300,5.091708251953125,-0.002660498023033142,-0.012829778715968132,0.26367080211639404
1700516700075719700,5.1017197265625,0.001568069215863943,-0.04946368932723999,-0.04247981682419777
1700516700085729500,5.1117294921875,-0.009643838740885258,0.031245270743966103,-0.20880061388015747
1700516700095740700,5.12174072265625,0.011610849760472775,-0.0362275131046772,0.03259842470288277
1700516700105751600,5.13175146484375,-0.015332084149122238,0.0014442323008552194,0.1705259382724762
1700516700115761400,5.141761474609375,0.006281598005443811,-0.05516445264220238,-0.03790370747447014
1700516700125772500,5.1517724609375,-0.009136506356298923,0.04941708594560623,-0.1516830027103424
1700516700135782400,5.161782470703125,-0.015306518413126469,-0.06202448904514313,0.013773868791759014
1700516700145793500,5.17179345703125,0.01227371022105217,0.1351144164800644,0.07194370031356812
1700516700155803400,5.181803466796875,-0.022348981350660324,-0.06411853432655334,0.21084432303905487
1700516700165814300,5.191814208984375,-0.00030599720776081085,0.023613717406988144,-0.18679198622703552
1700516700175824400,5.201824462890625,-0.019273562356829643,0.00027057717670686543,-0.1357908546924591
1700516700185835500,5.21183544921875,0.02737463265657425,0.034028008580207825,0.09582985937595367
1700516700195846700,5.2218466796875,-0.01477415207773447,0.003687146585434675,0.155227929353714
1700516700205856500,5.2318564453125,0.0017241304740309715,-0.044738441705703735,-0.11766830831766129
1700516700215867400,5.241867431640625,-0.019450396299362183,0.023384151980280876,-0.12655501067638397
1700516700225877500,5.25187744140625,-0.014770956709980965,-0.05927424132823944,0.03386954963207245
1700516700235888400,5.261888427734375,0.035540152341127396,0.13206855952739716,0.13319426774978638
1700516700245898500,5.2718984375,-0.019457587972283363,-0.08741533011198044,0.16344085335731506
1700516700255909400,5.281909423828125,0.00270683690905571,0.053283460438251495,-0.24438869953155518
1700516700265920500,5.29192041015625,-0.009848902001976967,-0.00726510351523757,-0.06643841415643692
1700516700275930400,5.301930419921875,0.03304876387119293,0.05721189081668854,0.13779382407665253
1700516700285941500,5.31194140625,-0.0068211546167731285,-0.007390538230538368,0.08282484114170074
1700516700295951600,5.32195166015625,0.0019449065439403057,-0.033729467540979385,-0.1701965034008026
1700516700305962500,5.33196240234375,-0.013033776544034481,-0.012153868563473225,-0.06972981244325638
1700516700315972600,5.34197265625,0.018272479996085167,-0.0335792638361454,0.023804398253560066
1700516700325983500,5.3519833984375,0.04890336096286774,0.09044015407562256,0.1765958070755005
1700516700335994400,5.361994384765625,-0.00833889003843069,-0.10648330301046371,0.05693545565009117
1700516700346004500,5.37200439453125,0.024517061188817024,0.06678062677383423,-0.22356997430324554
1700516700356015400,5.382015380859375,-0.011973571963608265,-0.060323528945446014,0.002073803450912237
1700516700366025500,5.392025390625,0.035714853554964066,0.04416559636592865,0.18386410176753998
1700516700376036400,5.402036376953125,0.004596882499754429,-0.08910910040140152,0.0939565896987915
1700516700386047500,5.412047607421875,0.013680391944944859,0.0412164106965065,-0.1847461462020874
1700516700396057600,5.4220576171875,-0.014992531388998032,-0.03750316798686981,-0.024954618886113167
1700516700406068500,5.432068359375,0.03038293868303299,-0.04074503108859062,0.04981496185064316
1700516700416078600,5.44207861328125,0.008363657630980015,0.03359045088291168,0.21532589197158813
1700516700426089500,5.45208935546875,-0.010202836245298386,-0.0880235955119133,-0.03951838240027428
1700516700436099600,5.462099609375,0.00631914846599102,0.07757468521595001,-0.2691987156867981
1700516700446110500,5.4721103515625,-0.024229705333709717,-0.03140798956155777,-0.05084400624036789
1700516700456122400,5.482122314453125,-0.00270736962556839,0.05121205374598503,0.07859787344932556
1700516700466132500,5.492132568359375,-0.005015797447413206,-0.0010181264951825142,-0.06983447819948196
1700516700476143600,5.5021435546875,0.014066284522414207,0.15525829792022705,-0.22799135744571686
1700516700486153700,5.51215380859375,-0.001654622028581798,0.07787375897169113,-0.08151882886886597
1700516700496164600,5.52216455078125,0.014657239429652691,0.16338679194450378,-0.1226942241191864
1700516700506175500,5.532175537109375,0.019588349387049675,0.17466580867767334,0.22948512434959412
1700516700516185600,5.542185546875,0.03352253884077072,0.1036510244011879,-0.1304139345884323
1700516700526196500,5.552196533203125,-0.00012756542128045112,0.09502371400594711,-0.25728079676628113
1700516700536206600,5.56220654296875,-0.00119575927965343,0.015450328588485718,-0.003875964554026723
1700516700546217500,5.572217529296875,-0.009747701697051525,-0.02654186263680458,0.03038506954908371
1700516700556228400,5.582228271484375,0.007186539936810732,-0.10598289221525192,-0.18410299718379974
1700516700566238500,5.592238525390625,0.01176318246871233,-0.10840529948472977,-0.3544986844062805
1700516700576249600,5.60224951171875,0.03947151079773903,-0.16528403759002686,-0.2770201563835144
1700516700586259700,5.612259765625,0.01540505513548851,-0.19098512828350067,-0.2623634338378906
1700516700596270600,5.6222705078125,0.06677370518445969,-0.116111159324646,-0.03148362413048744
1700516700606280400,5.632280517578125,-0.0648365169763565,-0.11889496445655823,0.05506777763366699
1700516700616291600,5.64229150390625,-0.024768196046352386,-0.18149469792842865,-0.4953138828277588
1700516700626302500,5.652302490234375,0.10201584547758102,-0.14175473153591156,-0.20916546881198883
1700516700636312600,5.6623125,-0.05278598144650459,0.043083555996418,0.037208620458841324
1700516700646323500,5.672323486328125,-0.05411037430167198,0.01925997994840145,0.08409543335437775
1700516700656333600,5.68233349609375,0.053828611969947815,0.09401305019855499,-0.047570981085300446
1700516700666344400,5.692344482421875,0.01888926886022091,0.04824475944042206,-0.10062354803085327
1700516700676355600,5.70235546875,0.030777087435126305,0.05366509407758713,-0.2236434817314148
1700516700686365700,5.71236572265625,0.09695184975862503,0.17219626903533936,0.08542248606681824
1700516700696376600,5.72237646484375,-0.04608120769262314,0.137628972530365,0.32822394371032715
1700516700706387500,5.732387451171875,0.018215755000710487,-0.10732512176036835,-0.4976412057876587
1700516700716397600,5.7423974609375,0.10228296369314194,0.059657737612724304,-0.010147974826395512
1700516700726408400,5.752408447265625,-0.05097902938723564,0.06803577393293381,0.06458085775375366
1700516700736418600,5.76241845703125,0.07856165617704391,-0.03148229047656059,-0.1851394921541214
1700516700746429400,5.772429443359375,0.07271654903888702,0.01828606240451336,0.029312614351511
1700516700756440300,5.7824404296875,0.012721121311187744,0.03105698525905609,0.17474517226219177
1700516700766450400,5.792450439453125,-0.03960812836885452,-0.07437489926815033,0.29769641160964966
1700516700776461600,5.802461669921875,0.11350791901350021,-0.43632563948631287,-0.44061148166656494
1700516700786471700,5.8124716796875,0.09699339419603348,0.11450394243001938,-0.19880390167236328
1700516700796482600,5.822482666015625,-0.08928726613521576,-0.08082666993141174,0.03196006268262863
1700516700806493400,5.832493408203125,0.017604293301701546,0.08787685632705688,-0.08672477304935455
1700516700816503600,5.842503662109375,0.019096994772553444,0.04104970023036003,0.2200293093919754
1700516700826514400,5.852514404296875,-0.13737942278385162,0.095797099173069,0.7526767253875732
1700516700836524500,5.862524658203125,-0.04237595200538635,-0.11455827206373215,0.0358530730009079
1700516700846535400,5.872535400390625,0.07711689174175262,0.4082633852958679,-0.38759833574295044
1700516700856546300,5.88254638671875,-0.07362282276153564,-0.29390326142311096,0.040599625557661057
1700516700866556400,5.892556396484375,0.002868224401026964,0.17701391875743866,-0.29964664578437805
1700516700876567600,5.902567626953125,0.058457449078559875,0.28293344378471375,0.26926422119140625
1700516700886578400,5.912578369140625,-0.03766055777668953,-0.15857578814029694,0.715202271938324
1700516700896588500,5.922588623046875,-0.030852453783154488,0.08716845512390137,-0.09832070767879486
1700516700906599400,5.932599365234375,0.09803548455238342,0.12936970591545105,0.13227921724319458
1700516700916609500,5.942609619140625,0.0054541537538170815,-0.28666558861732483,-0.08872134983539581
1700516700926620400,5.952620361328125,-0.09057783335447311,0.24039874970912933,-0.3255309462547302
1700516700936631600,5.962631591796875,0.08552315831184387,-0.24885615706443787,-0.09626741707324982
1700516700946641400,5.972641357421875,0.036617133766412735,-0.07179749011993408,-0.2526918947696686
1700516700956652300,5.98265234375,-0.07803861051797867,0.03789704665541649,-0.2275351583957672
1700516700966663700,5.99266357421875,-0.015113439410924911,-0.06889890879392624,0.05663291737437248
1700516700976673500,6.002673583984375,-0.07591447234153748,0.19947288930416107,0.0890907272696495
1700516700986684700,6.0126845703125,-0.042162101715803146,-0.15501540899276733,0.30567097663879395
1700516700996694500,6.022694580078125,0.01450091227889061,-0.1278088241815567,-0.1392015665769577
1700516701006705400,6.032705322265625,-0.03604801744222641,0.015173093415796757,-0.4620043933391571
1700516701016716500,6.042716552734375,-0.02082299068570137,-0.12624607980251312,-0.1566242277622223
1700516701026726400,6.052726318359375,-0.1185346394777298,0.4858705699443817,0.10142462700605392
1700516701036737500,6.062737548828125,-0.00977380108088255,-0.22021865844726562,0.489246129989624
1700516701046748400,6.07274853515625,-0.05430158972740173,-0.03969255089759827,0.11388475447893143
1700516701056758500,6.082758544921875,-0.016112657263875008,0.2985137104988098,0.4343881905078888
1700516701066769700,6.092769775390625,-0.02262195572257042,-0.3401285409927368,0.2918022871017456
1700516701076780500,6.102780517578125,-0.08599959313869476,0.6472219228744507,0.3052898645401001
1700516701086790700,6.112790771484375,-0.011616175994277,-0.08919032663106918,0.3814288377761841
1700516701096801500,6.122801513671875,-0.06883339583873749,-0.034807782620191574,-0.18599916994571686
1700516701106811600,6.132811767578125,0.004682635888457298,0.08311299234628677,0.14989575743675232
1700516701116822500,6.142822509765625,-0.08078965544700623,-0.5345070958137512,-0.24486780166625977
1700516701126833400,6.15283349609375,-0.04261430725455284,0.6657583117485046,0.34158024191856384
1700516701136843500,6.162843505859375,-0.015608254820108414,-0.37997955083847046,0.3416590690612793
1700516701146854400,6.1728544921875,-0.0254539605230093,0.07073196023702621,-0.08024556934833527
1700516701156865500,6.182865478515625,-0.03157443925738335,0.09189530462026596,0.0544416718184948
1700516701166875600,6.192875732421875,-0.03985367342829704,-0.56978440284729,-0.6359391808509827
1700516701176886500,6.202886474609375,-0.020540162920951843,0.26455095410346985,0.1340709924697876
1700516701186897400,6.2128974609375,-0.0551130548119545,-0.5241678953170776,0.0727519690990448
1700516701196907500,6.222907470703125,0.060856692492961884,0.6066052317619324,0.650337815284729
1700516701206918400,6.23291845703125,-0.025354092940688133,0.00014460964302998036,0.6346419453620911
1700516701216928500,6.242928466796875,-0.09548763930797577,-0.2937844693660736,-0.2505704462528229
1700516701226939400,6.252939453125,-0.033616017550230026,-0.24191196262836456,-0.3145289123058319
1700516701236950300,6.2629501953125,-0.06671325117349625,-0.41742733120918274,-1.3594204187393188
1700516701246960400,6.27296044921875,0.039152730256319046,0.489773154258728,-0.6340552568435669
1700516701256971500,6.282971435546875,-0.005405684467405081,-0.53765469789505,0.09721896052360535
1700516701266982700,6.292982666015625,0.006699447985738516,0.47264185547828674,0.8920801281929016
1700516701276992500,6.302992431640625,-0.02941914089024067,0.027416177093982697,1.0425794124603271
1700516701287003400,6.31300341796875,-0.0339779406785965,0.1402311474084854,0.45066890120506287
1700516701297014500,6.3230146484375,-0.02720285952091217,0.09790019690990448,0.4245811104774475
1700516701307024400,6.3330244140625,-0.10747239738702774,0.01715315505862236,-0.21399112045764923
1700516701317035500,6.343035400390625,-0.05426163971424103,0.14236700534820557,0.10356341302394867
1700516701327046400,6.35304638671875,-0.0005813680472783744,-0.48586124181747437,-0.55865478515625
1700516701337056500,6.363056396484375,0.03822115436196327,0.35720181465148926,-0.3136364817619324
1700516701347067600,6.373067626953125,0.029197832569479942,-0.42681896686553955,-0.19663210213184357
1700516701357078500,6.38307861328125,-0.01588761992752552,0.4371677339076996,0.22952772676944733
1700516701367088600,6.393088623046875,0.02509123831987381,-0.17191210389137268,0.5037036538124084
1700516701377099500,6.403099609375,0.02359374240040779,0.10068639367818832,0.18584948778152466
1700516701387109600,6.413109619140625,0.0035888757556676865,0.048474859446287155,0.30261126160621643
1700516701397120500,6.42312060546875,-0.01618589460849762,-0.32679489254951477,-0.3607523441314697
1700516701407131400,6.43313134765625,0.017665812745690346,0.11373322457075119,-0.05522357299923897
1700516701417141500,6.4431416015625,0.005332979839295149,-0.3936125338077545,-0.28817611932754517
1700516701427152400,6.45315234375,0.04628733545541763,0.43816617131233215,0.18192265927791595
1700516701437163500,6.46316357421875,-0.004997687879949808,-0.16373087465763092,0.2993963062763214
1700516701447173600,6.473173583984375,0.010457701049745083,0.1658688634634018,-0.12307292968034744
1700516701457184000,6.48318408203125,0.05272978916764259,0.07995501905679703,0.09583624452352524
1700516701467195100,6.493195068359375,0.0044016726315021515,-0.5596930980682373,-0.6739866733551025
1700516701477205000,6.503205078125,0.014103301800787449,0.1360398530960083,-0.04649053514003754
1700516701487215900,6.5132158203125,-0.047384291887283325,-0.22579984366893768,-0.07692354172468185
1700516701497227000,6.52322705078125,0.060802362859249115,0.2564810514450073,0.5376349687576294
1700516701507236900,6.53323681640625,-0.016141951084136963,-0.3726276457309723,0.2406373769044876
1700516701517248000,6.543248046875,0.04856007918715477,0.3060925602912903,-0.14570660889148712
1700516701527259100,6.553259033203125,-0.004502340219914913,-0.24934297800064087,0.024813471361994743
1700516701537269000,6.56326904296875,-0.005257878918200731,0.11868643760681152,-0.12966318428516388
1700516701547280100,6.573280029296875,0.029345372691750526,-0.16362221539020538,0.17365621030330658
1700516701557291000,6.583291015625,0.05902150645852089,0.26835209131240845,0.07372189313173294
1700516701567301000,6.593301025390625,0.12230513989925385,0.1579105406999588,0.48513978719711304
1700516701577312000,6.60331201171875,0.0879913717508316,0.2509880065917969,0.25925740599632263
1700516701587323000,6.613322998046875,0.19790296256542206,0.17649753391742706,0.7809213995933533
1700516701597333000,6.6233330078125,0.06666345149278641,0.16685768961906433,-0.09917904436588287
1700516701607343900,6.63334375,-0.0017638115677982569,0.13063204288482666,0.08860363811254501
1700516701617355000,6.64335498046875,-0.06341572105884552,-0.32251814007759094,-0.1848609298467636
1700516701627365000,6.653365234375,-0.09008568525314331,-0.06411480158567429,-0.02099476382136345
1700516701637376000,6.6633759765625,-0.05977092310786247,-0.47600117325782776,-0.6753339767456055
1700516701647387100,6.67338720703125,-0.12325935065746307,0.05600521340966225,-0.5809656381607056
1700516701657397000,6.68339697265625,-0.024109063670039177,-0.41013532876968384,-0.3321329355239868
1700516701667408000,6.693407958984375,0.017588049173355103,0.06581789255142212,-0.44044849276542664
1700516701677419000,6.7034189453125,0.0786769688129425,-0.12165533006191254,-0.17977003753185272
1700516701687428900,6.713428955078125,0.04093198850750923,-0.39406660199165344,-0.6781122088432312
1700516701697440000,6.72343994140625,0.07375092059373856,0.3283877372741699,-0.06387032568454742
1700516701707451100,6.733451171875,0.03731488063931465,-0.2220839262008667,-0.26785513758659363
1700516701717461000,6.7434609375,0.13441559672355652,0.3168618381023407,0.34485992789268494
1700516701727472000,6.75347216796875,0.0662008598446846,-0.11562806367874146,-0.01031628716737032
1700516701737483000,6.76348291015625,-0.0026434536557644606,0.3809622526168823,0.729769766330719
1700516701747494000,6.773493896484375,0.017826400697231293,0.4387960135936737,0.7512633800506592
1700516701757504000,6.78350390625,0.20817983150482178,-0.028269721195101738,0.5566480755805969
1700516701767515000,6.793514892578125,-0.03674842789769173,0.35001125931739807,0.06567514687776566
1700516701777526000,6.803526123046875,0.025289643555879593,-0.015595205128192902,0.36848214268684387
1700516701787536000,6.813535888671875,0.003941478207707405,0.20734839141368866,0.14131344854831696
1700516701797547000,6.823547119140625,0.1704164743423462,-0.38306909799575806,0.13359826803207397
1700516701807558100,6.83355810546875,-0.03743791952729225,0.17585544288158417,-0.3133653700351715
1700516701817568000,6.843568115234375,0.022728748619556427,-0.3192096948623657,-0.12339597195386887
1700516701827579100,6.8535791015625,0.013480654917657375,0.30852773785591125,-0.38388001918792725
1700516701837590000,6.863590087890625,0.2061489075422287,-0.6302034854888916,-0.30026501417160034
1700516701847599900,6.873599853515625,0.0271298885345459,0.1977490335702896,-0.5244909524917603
1700516701857611000,6.883611083984375,-0.04848231375217438,-0.14949308335781097,-0.056827861815690994
1700516701867622000,6.893621826171875,0.09459814429283142,0.28769809007644653,0.12159274518489838
1700516701877632000,6.903632080078125,0.03137177228927612,-0.7187206149101257,-0.22307541966438293
1700516701887643100,6.91364306640625,0.00993172638118267,0.5349994897842407,0.032584041357040405
1700516701897654000,6.923654052734375,0.03380749747157097,-0.10681752860546112,0.2254728078842163
1700516701907664100,6.9336640625,0.00037923414492979646,0.4566120207309723,0.6525146961212158
1700516701917675000,6.943675048828125,0.04704447463154793,-0.21215033531188965,-0.0574616938829422
1700516701927686000,6.953685791015625,0.05113375931978226,0.10758291929960251,0.10887641459703445
1700516701937697000,6.963697021484375,-0.09941606968641281,-0.015735553577542305,0.13539057970046997
1700516701947707000,6.973706787109375,0.11144636571407318,-0.12489772588014603,0.09592759609222412
1700516701957718000,6.983718017578125,-0.05916878208518028,0.1393597573041916,-0.3319220244884491
1700516701967729200,6.993729248046875,-0.03387407585978508,-0.004126834217458963,0.254636287689209
1700516701977739000,7.003739013671875,-0.007835552096366882,0.1693972796201706,0.06136562302708626
1700516701987750100,7.013750244140625,0.12081483751535416,-0.5701279044151306,-0.08450236916542053
1700516701997761000,7.023760986328125,-0.0662357434630394,0.3388185501098633,-0.44074755907058716
1700516702007771100,7.033771240234375,-0.09035199880599976,-0.25330549478530884,-0.03659769147634506
1700516702017782000,7.043781982421875,-0.045830339193344116,0.19310234487056732,0.28955137729644775
1700516702027793000,7.05379296875,0.06628847867250443,-0.22405147552490234,-0.33768749237060547
1700516702037803000,7.063802978515625,0.02431545965373516,0.15094903111457825,0.06223541125655174
1700516702047814000,7.07381396484375,-0.07760557532310486,0.05318892002105713,0.3778839111328125
1700516702057825000,7.083824951171875,0.17933247983455658,-0.15698322653770447,0.3251301646232605
1700516702067836200,7.093836181640625,-0.015852466225624084,0.29493337869644165,-0.19377639889717102
1700516702077846000,7.103845947265625,-0.04404335841536522,-0.1257142573595047,0.1441020518541336
1700516702087857000,7.11385693359375,0.009147425182163715,0.30824971199035645,0.12739284336566925
1700516702097868000,7.123867919921875,0.044494763016700745,-0.4516412317752838,-0.34384390711784363
1700516702107878000,7.1338779296875,-0.07875233888626099,0.23617738485336304,-0.28103646636009216
1700516702117889000,7.143888916015625,-0.032586172223091125,-0.2960553467273712,-0.34963417053222656
1700516702127900000,7.15389990234375,0.012594621628522873,-0.04440448060631752,-0.14542430639266968
1700516702137910000,7.163909912109375,0.06803950667381287,-0.34087610244750977,-0.7028350830078125
1700516702147921200,7.173921142578125,-0.02003655955195427,0.4152616560459137,-0.09143244475126266
1700516702157932000,7.18393212890625,0.0041555967181921005,0.007990814745426178,0.14106205105781555
1700516702167943000,7.19394287109375,0.09809035062789917,-0.22719666361808777,-0.01985812745988369
1700516702177953000,7.203953125,0.080292709171772,0.5108187794685364,-0.13963378965854645
1700516702187964000,7.2139638671875,0.005137504078447819,-0.018571021035313606,0.0748089924454689
1700516702197975000,7.22397509765625,0.12286520004272461,-0.16270555555820465,0.26785939931869507
1700516702207985000,7.23398486328125,0.02648167498409748,0.27476632595062256,-0.07187418639659882
1700516702217995800,7.243995849609375,0.025004684925079346,0.3463827073574066,0.42960837483406067
1700516702228007200,7.254007080078125,0.03991226106882095,0.09555954486131668,0.410569965839386
1700516702238017000,7.26401708984375,0.11722435802221298,-0.15924371778964996,-0.11203119903802872
1700516702248028200,7.274028076171875,0.461793452501297,2.0402817726135254,-3.491974353790283
1700516702258039000,7.2840390625,-0.28758010268211365,-1.4197345972061157,0.06709355115890503
1700516702268050000,7.2940498046875,-0.06120796501636505,0.0792066678404808,1.7877485752105713
1700516702278060000,7.30406005859375,0.058692075312137604,0.1831730157136917,0.6657401919364929
1700516702288071000,7.31407080078125,0.09530095010995865,-0.38304805755615234,0.4430519938468933
1700516702298082000,7.32408203125,-0.09029766917228699,0.2776382565498352,-0.2998218834400177
1700516702308092200,7.334092041015625,-0.10798532515764236,-0.08589226752519608,-0.7397715449333191
1700516702318103000,7.34410302734375,0.046359241008758545,0.1526705026626587,-0.006529538426548243
1700516702328114000,7.354114013671875,-0.07193517684936523,-0.1699349731206894,0.5218679904937744
1700516702338125000,7.364125,-0.028235899284482002,-0.20785439014434814,0.347955584526062
1700516702348135000,7.374135009765625,-0.002951315138489008,0.1198587566614151,-0.10599887371063232
1700516702358146000,7.38414599609375,0.10257324576377869,0.015728097409009933,-0.19887740910053253
1700516702368157000,7.394156982421875,0.08796021342277527,0.1782970428466797,0.1303369700908661
1700516702378168000,7.40416796875,-0.02936880849301815,0.17939504981040955,0.08659055083990097
1700516702388178200,7.41417822265625,0.04241696372628212,0.19408905506134033,0.2888675034046173
1700516702398189000,7.42418896484375,-0.02864069864153862,0.22759801149368286,0.523758590221405
1700516702408200000,7.434199951171875,0.05251593887805939,-0.1271052211523056,0.1637154370546341
1700516702418210000,7.4442099609375,0.026247316971421242,0.310302197933197,-0.009632387198507786
1700516702428221000,7.454220947265625,-0.03353319317102432,-0.3065069317817688,-0.03044472448527813
1700516702438232000,7.464232177734375,0.036918338388204575,-0.13703322410583496,-0.3049018383026123
1700516702448243000,7.474242919921875,-0.008956210687756538,-0.03531085327267647,-0.4197961986064911
1700516702458252300,7.484252197265625,0.0599333755671978,-0.14743100106716156,-0.16612133383750916
1700516702468263200,7.49426318359375,-0.11894609779119492,0.02978133037686348,0.10144273191690445
1700516702478274300,7.5042744140625,0.022854449227452278,-0.2384839504957199,-0.39502403140068054
1700516702488284400,7.514284423828125,0.18247181177139282,0.5327104926109314,-0.042208440601825714
1700516702498295300,7.52429541015625,0.01353578269481659,-0.17709168791770935,0.28196510672569275
1700516702508306200,7.53430615234375,0.05775650590658188,-0.37450623512268066,-0.12785249948501587
1700516702518317300,7.5443173828125,0.08260273188352585,0.6416977047920227,-0.23075145483016968
1700516702528327200,7.5543271484375,-0.01835370622575283,0.053049635142087936,0.4334648847579956
1700516702538338300,7.56433837890625,0.040518131107091904,0.11393509060144424,0.5879010558128357
1700516702548349200,7.57434912109375,0.06761286407709122,0.2786489427089691,0.23934601247310638
1700516702558360300,7.5843603515625,0.14592604339122772,0.023029685020446777,0.312397837638855
1700516702568370400,7.594370361328125,-0.03170706331729889,0.2916907072067261,0.3586984872817993
1700516702578381300,7.60438134765625,0.13135641813278198,-0.1603151112794876,-0.22771944105625153
1700516702588392200,7.61439208984375,0.09536407142877579,0.2316097915172577,-0.24005813896656036
1700516702598402300,7.62440234375,-0.0465075820684433,-0.16560041904449463,-0.08274787664413452
1700516702608413200,7.6344130859375,0.19036328792572021,-0.5541720986366272,-0.46166855096817017
1700516702618424000,7.644424072265625,-0.013116600923240185,0.24052631855010986,-0.5202035307884216
1700516702628435200,7.654435302734375,0.07467370480298996,0.06874284148216248,-0.23923815786838531
1700516702638445000,7.664445068359375,0.1295073926448822,0.11407677084207535,0.19840683043003082
1700516702648456400,7.67445654296875,0.11066073179244995,0.0022559636272490025,-0.0033683660440146923
1700516702658467300,7.68446728515625,0.1261262446641922,0.3034949004650116,0.2426997274160385
1700516702668478200,7.694478271484375,-0.08048791438341141,0.18006031215190887,0.5093966722488403
1700516702678488300,7.70448828125,0.04732011258602142,-0.09996361285448074,-0.1969309002161026
1700516702688499200,7.714499267578125,-0.010319482535123825,0.32019051909446716,-0.23297598958015442
1700516702698510000,7.724510009765625,-0.06972741335630417,-0.28624188899993896,0.1437811404466629
1700516702708521500,7.734521484375,0.12520505487918854,-0.1996483951807022,-0.05525047332048416
1700516702718531000,7.744531005859375,-0.0720566138625145,0.2295146882534027,-0.08025143295526505
1700516702728542200,7.754542236328125,0.0505574494600296,-0.3616567552089691,-0.11566268652677536
1700516702738553300,7.76455322265625,-0.07871425151824951,-0.007162305526435375,-0.17888666689395905
1700516702748563200,7.774563232421875,-0.03755270317196846,-0.36985793709754944,-0.632923424243927
1700516702758574300,7.78457421875,0.13847878575325012,0.15151655673980713,-0.4429934024810791
1700516702768585200,7.794585205078125,0.017728397622704506,0.10578581690788269,0.01600399985909462
1700516702778596000,7.80459619140625,-0.012740562669932842,-0.28143593668937683,0.03289669752120972
1700516702788606200,7.814606201171875,0.026195384562015533,0.31240424513816833,-0.04567214846611023
1700516702798617300,7.824617431640625,-0.02594052068889141,-0.0031318773981183767,0.007390538230538368
1700516702808628200,7.834628173828125,0.04392031952738762,-0.1941271275281906,0.026583673432469368
1700516702818639400,7.844639404296875,-0.011817244812846184,0.12344550341367722,-0.4880519509315491
1700516702828649200,7.854649169921875,0.054552190005779266,0.03728771582245827,-0.17623308300971985
1700516702838660400,7.864660400390625,-0.10376154631376266,-0.12675075232982635,0.1690601259469986
1700516702848671200,7.874671142578125,-0.0133261913433671,-0.06953486800193787,-0.390736848115921
1700516702858682000,7.88468212890625,0.14077070355415344,0.582875669002533,0.013925403356552124
1700516702868692200,7.894692138671875,0.024881115183234215,0.13012097775936127,0.41976478695869446
1700516702878703400,7.904703369140625,0.17272703349590302,0.12256879359483719,0.4644121527671814
1700516702888714200,7.91471435546875,0.12486257404088974,0.4619303345680237,0.28221118450164795
1700516702898725400,7.924725341796875,0.10784577578306198,-0.0454804003238678,0.5588467717170715
1700516702908735200,7.9347353515625,0.17571616172790527,0.17002393305301666,0.7973001003265381
1700516702918746000,7.94474609375,0.09523330628871918,0.33015555143356323,0.18763194978237152
1700516702928757200,7.95475732421875,0.10931956768035889,-0.2629344165325165,0.38403448462486267
1700516702938768100,7.96476806640625,0.03856603428721428,0.4057839810848236,0.043288882821798325
1700516702948778200,7.9747783203125,0.07289204746484756,-0.41072389483451843,-0.4825059175491333
1700516702958789400,7.984789306640625,-0.014625548385083675,-0.02359241060912609,-0.38286587595939636
1700516702968800300,7.99480029296875,0.009383647702634335,-0.3472423851490021,-0.3896614909172058
1700516702978811400,8.004811279296876,0.22714047133922577,-0.37222522497177124,-0.5637096762657166
1700516702988821200,8.0148212890625,0.04073011875152588,0.059191685169935226,-0.36264050006866455
1700516702998832000,8.02483203125,0.10139426589012146,-0.06297523528337479,0.08863825350999832
1700516703008843300,8.03484326171875,0.05180354416370392,0.1347287893295288,0.34394457936286926
1700516703018854100,8.044854248046875,0.06396859884262085,-0.3434564173221588,-0.34831535816192627
1700516703028864300,8.0548642578125,-0.10781381279230118,0.3258492052555084,-0.26561275124549866
1700516703038875400,8.06487548828125,-0.10959680378437042,-0.0173781905323267,-0.14573296904563904
1700516703048886300,8.07488623046875,-0.060748036950826645,-0.6099624037742615,-0.3742103576660156
1700516703058897200,8.084897216796875,-0.07758960127830505,0.4400221109390259,-0.126048743724823
1700516703068907300,8.0949072265625,-0.039270173758268356,-0.4597841203212738,0.07213438302278519
1700516703078918100,8.104918212890626,-0.11820999532938004,-0.31688421964645386,0.2617320120334625
1700516703088929300,8.11492919921875,-0.04577068239450455,0.09310703724622726,-0.22285784780979156
1700516703098940200,8.124940185546874,0.12322739511728287,0.11325385421514511,0.00205223192460835
1700516703108950000,8.134949951171874,0.12101883441209793,0.32810544967651367,0.5640143752098083
1700516703118961400,8.14496142578125,0.189855694770813,0.15663941204547882,0.44446587562561035
1700516703128972300,8.15497216796875,0.12141937017440796,0.5567159652709961,0.7789956331253052
1700516703138983200,8.164983154296875,0.1658446341753006,0.22210310399532318,1.0444222688674927
1700516703148993300,8.1749931640625,0.34389451146125793,-0.11186528205871582,0.5229239463806152
1700516703159004200,8.185004150390625,0.14775244891643524,0.449798047542572,0.1780562847852707
1700516703169015300,8.195015380859376,0.04703861474990845,-0.30812081694602966,-0.015121961012482643
1700516703179026400,8.2050263671875,0.24885322153568268,-0.43330588936805725,-0.08706619590520859
1700516703189037300,8.215037353515624,0.05441050976514816,0.19622810184955597,-0.2778284251689911
1700516703199047400,8.22504736328125,0.0587858185172081,-0.5597618222236633,-0.25800225138664246
1700516703209058300,8.235058349609375,0.012065984308719635,0.1196632832288742,-0.2922941744327545
1700516703219069200,8.245069091796875,0.08426135033369064,-0.6490193009376526,-0.8421730399131775
1700516703229080300,8.255080322265625,0.050397127866744995,0.45218130946159363,-0.39558061957359314
1700516703239090200,8.265090087890625,0.033311083912849426,-0.08279155194759369,0.050458379089832306
1700516703249101000,8.27510107421875,-0.012562929652631283,0.23233763873577118,0.36334705352783203
1700516703259112400,8.285112548828126,-0.06217815354466438,0.3076965808868408,0.09419121593236923
1700516703269123300,8.295123291015624,0.047451406717300415,-0.23059353232383728,-0.1721443384885788
1700516703279133400,8.305133544921874,-0.11422404646873474,0.18156367540359497,-0.044198621064424515
1700516703289144300,8.315144287109375,-0.02472931519150734,-0.5698565244674683,-0.5623645186424255
1700516703299155200,8.3251552734375,-0.008400941267609596,0.25159895420074463,-0.22080960869789124
1700516703309166000,8.335166015625,-0.13060487806797028,-0.0315864235162735,0.5506042838096619
1700516703319176200,8.34517626953125,0.04671051353216171,-0.11543045192956924,0.4327245354652405
1700516703329187000,8.35518701171875,0.0642455667257309,0.28829172253608704,0.10981171578168869
1700516703339198500,8.365198486328126,-0.04241989552974701,-0.037461087107658386,0.36426079273223877
1700516703349209300,8.375209228515626,0.13702896237373352,0.00009267800487577915,0.27855706214904785
1700516703359220200,8.38522021484375,0.01070990227162838,0.34889113903045654,-0.17646610736846924
1700516703369230300,8.395230224609374,-0.008554339408874512,-0.17626558244228363,0.26070642471313477
1700516703379241200,8.4052412109375,0.013107280246913433,0.1946222186088562,0.1025301069021225
1700516703389252000,8.415252197265625,0.10618369281291962,-0.21477781236171722,-0.5815891027450562
1700516703399263200,8.42526318359375,0.05952804163098335,0.2429010570049286,-0.1947292685508728
1700516703409273000,8.435273193359375,-0.0078102522529661655,-0.16473647952079773,-0.10307711362838745
1700516703419284200,8.4452841796875,0.14643870294094086,-0.29114529490470886,-0.3620378375053406
1700516703429295400,8.45529541015625,0.0018788601737469435,0.2632122039794922,-0.3777656555175781
1700516703439306200,8.46530615234375,0.10438286513090134,-0.14637452363967896,-0.23670707643032074
1700516703449317000,8.475317138671874,0.03171398863196373,0.19029244780540466,0.0028357338160276413
1700516703459327700,8.48532763671875,0.04646576941013336,0.038173217326402664,-0.4403637945652008
1700516703469338600,8.495338623046875,0.10089199244976044,0.37784743309020996,0.13690724968910217
1700516703479349800,8.505349853515625,-0.04565270617604256,0.1984371840953827,0.33140456676483154
1700516703489361000,8.51536083984375,-0.024946095421910286,0.031556326895952225,0.23379917442798615
1700516703499370800,8.525370849609375,-0.017975006252527237,0.36222851276397705,-0.06493239104747772
1700516703509382000,8.5353818359375,-0.07088243216276169,-0.11345172673463821,0.11469142884016037
1700516703519392800,8.545392822265624,-0.021026721224188805,0.3027651906013489,0.3699735403060913
1700516703529403600,8.555403564453124,0.02454875223338604,0.03513961285352707,-0.11547280102968216
1700516703539414500,8.56541455078125,0.008506402373313904,-0.17339149117469788,-0.056546900421381
1700516703549424600,8.575424560546875,-0.06700033694505692,0.20830419659614563,-0.029753368347883224
1700516703559435800,8.585435791015625,0.10736853629350662,-0.4088117480278015,-0.4083390235900879
1700516703569447000,8.595447021484375,0.10225020349025726,0.2997736632823944,-0.33546268939971924
1700516703579457800,8.605457763671875,0.054911717772483826,-0.11777243763208389,0.020911406725645065
1700516703589467600,8.615467529296875,0.3056235611438751,-0.23151232302188873,-0.24341371655464172
1700516703599478800,8.625478759765626,0.07372135668992996,0.24867798388004303,-0.16698633134365082
1700516703609489700,8.63548974609375,0.04261883348226547,-0.09045133739709854,0.2143554389476776
1700516703619500500,8.64550048828125,0.0904870256781578,0.22828936576843262,0.11550555378198624
1700516703629512000,8.655511962890625,0.12399358302354813,-0.21244914829730988,-0.23693984746932983
1700516703639521800,8.665521728515625,0.044430315494537354,0.10766974091529846,-0.1975383758544922
1700516703649532700,8.67553271484375,-0.005873601883649826,-0.0859905406832695,-0.13621456921100616
1700516703659543800,8.685543701171875,0.1295904815196991,0.1935787796974182,0.04519810527563095
1700516703669554700,8.6955546875,0.020489029586315155,0.17802219092845917,0.2741505801677704
1700516703679565600,8.705565673828126,0.023379623889923096,0.04150776192545891,0.3069460988044739
1700516703689575700,8.71557568359375,0.029738454148173332,0.4376404583454132,0.48417893052101135
1700516703699586800,8.7255869140625,0.014256167225539684,0.057437460869550705,0.14112304151058197
1700516703709598000,8.735597900390625,0.040175117552280426,0.03045670874416828,0.1208164319396019
1700516703719608800,8.74560888671875,-0.11230683326721191,0.08953547477722168,0.39275234937667847
1700516703729618700,8.75561865234375,0.05197105556726456,-0.549924373626709,-0.24196548759937286
1700516703739629800,8.7656298828125,-0.040827855467796326,0.14000317454338074,-0.3405085802078247
1700516703749640700,8.775640625,-0.04650518298149109,-0.5173193216323853,0.19235585629940033
1700516703759651600,8.785651611328126,0.06360427290201187,-0.2268531173467636,-0.056477390229701996
1700516703769663000,8.7956630859375,-0.024502146989107132,-0.020123377442359924,-0.35208001732826233
1700516703779672800,8.8056728515625,0.05365576967597008,-0.22359395027160645,0.07783061265945435
1700516703789683700,8.81568359375,0.028149612247943878,0.13354900479316711,0.1855195313692093
1700516703799694800,8.82569482421875,0.0640450268983841,-0.1913265585899353,-0.11560755223035812
1700516703809705700,8.835705810546875,0.080143041908741,0.45956864953041077,0.17685146629810333
1700516703819716600,8.845716552734375,0.033670347183942795,-0.039146069437265396,0.41608455777168274
1700516703829726700,8.855726806640625,0.048598695546388626,0.21759118139743805,0.6280838847160339
1700516703839737600,8.865737548828125,-0.01278743427246809,0.3491188585758209,0.042224153876304626
1700516703849748700,8.875748779296876,-0.05675595626235008,-0.20127558708190918,0.13872991502285004
1700516703859759900,8.885759765625,-0.06704454869031906,0.3027055263519287,0.3246966004371643
1700516703869770800,8.895770751953124,-0.01966984197497368,-0.3611736297607422,-0.3770226538181305
1700516703879780900,8.90578076171875,-0.023501330986618996,-0.09787676483392715,-0.19396094977855682
1700516703889791700,8.915791748046875,-0.12777340412139893,-0.09926693141460419,-0.29882290959358215
1700516703899802600,8.925802734375,0.06634653359651566,-0.50853031873703,-0.5606867671012878
1700516703909813800,8.935813720703125,-0.04550117254257202,0.05682067200541496,-0.5202274918556213
1700516703919823600,8.94582373046875,-0.0005004079430364072,-0.2439681887626648,-0.1330840140581131
1700516703929834800,8.955834716796875,0.006007825024425983,0.22580090165138245,0.11986382305622101
1700516703939846000,8.965845947265626,0.04218846559524536,0.10864205658435822,0.00538384635001421
1700516703949856800,8.975856689453124,0.08964439481496811,0.3181132674217224,0.5083590745925903
1700516703959867600,8.98586767578125,-0.0774117037653923,0.24868838489055634,0.7120046615600586
1700516703969878800,8.995878662109375,0.07081984728574753,-0.11089882254600525,0.19615167379379272
1700516703979888600,9.005888671875,-0.03255900740623474,0.24310000240802765,-0.12335336208343506
1700516703989899500,9.0158994140625,-0.08735913783311844,-0.3190262019634247,0.3868046998977661
1700516703999911000,9.025910888671875,0.028642563149333,-0.00042823629337362945,0.30878713726997375
1700516704009921800,9.035921875,-0.023274429142475128,0.06619340181350708,-0.06482506543397903
1700516704019932700,9.0459326171875,-0.027243871241807938,-0.1909201592206955,0.2523193359375
1700516704029942800,9.05594287109375,0.007074953522533178,0.32137882709503174,0.0456247441470623
1700516704039953700,9.06595361328125,0.05095745623111725,-0.18664072453975677,-0.3176248371601105
1700516704049964500,9.075964599609375,0.0425298847258091,0.25220534205436707,-0.2680245339870453
1700516704059976000,9.085975830078125,-0.06656438112258911,-0.07039932906627655,-0.38011378049850464
1700516704069986800,9.09598681640625,0.08324988186359406,-0.15936915576457977,-0.4577992558479309
1700516704079997000,9.105996826171875,-0.07715683430433273,-0.057975951582193375,-0.7348343133926392
1700516704090007800,9.1160078125,-0.08786939829587936,-0.06823311746120453,-0.39016908407211304
1700516704100018700,9.126018798828126,-0.14787441492080688,0.13580869138240814,0.1660827100276947
1700516704110029800,9.13602978515625,-0.08286479115486145,-0.3850254416465759,-0.2804282009601593
1700516704120040700,9.146040771484374,-0.025493375957012177,0.21307791769504547,0.07867590337991714
1700516704130050600,9.156050537109374,-0.12931963801383972,-0.12191072851419449,0.13429495692253113
1700516704140062000,9.16606201171875,-0.04685858637094498,0.012804744765162468,-0.01956464722752571
1700516704150072800,9.17607275390625,-0.09183378517627716,0.09000072628259659,0.081245057284832
1700516704160083700,9.186083740234375,-0.07622633129358292,-0.16978903114795685,0.46918001770973206
1700516704170094800,9.1960947265625,-0.11762756109237671,0.32661059498786926,0.5764007568359375
1700516704180104700,9.206104736328125,-0.07726229727268219,-0.21040277183055878,0.21411575376987457
1700516704190115600,9.216115478515626,-0.03364424780011177,0.16172924637794495,0.11676762998104095
1700516704200126700,9.226126708984374,-0.09663865715265274,-0.028974926099181175,0.33150017261505127
1700516704210137900,9.236137939453124,-0.03237205371260643,-0.34579867124557495,-0.03437155485153198
1700516704220148700,9.246148681640625,-0.03597850725054741,0.2300126999616623,-0.20823335647583008
1700516704230158800,9.256158935546875,-0.06319761276245117,-0.4140506982803345,-0.16006796061992645
1700516704240169700,9.266169677734375,-0.06692364066839218,0.09338027983903885,-0.43467769026756287
1700516704250180600,9.2761806640625,-0.086204394698143,-0.4234130382537842,-0.7944979071617126
1700516704260191700,9.286191650390625,0.02839861810207367,0.015749935060739517,-0.6559386849403381
1700516704270202600,9.29620263671875,-0.051360659301280975,-0.33070123195648193,-0.80791836977005
1700516704280213800,9.3062138671875,-0.0738167017698288,0.24948173761367798,-0.3165681064128876
1700516704290223900,9.316223876953124,-0.15859603881835938,-0.5250067710876465,-0.6794565320014954
1700516704300234800,9.32623486328125,-0.22396838665008545,0.13872645795345306,-0.7748698592185974
1700516704310245600,9.33624560546875,-0.21777333319187164,-0.00017869810108095407,-0.6746420860290527
1700516704320256800,9.3462568359375,-0.2010582685470581,-0.1281542330980301,-0.5743586421012878
1700516704330267600,9.356267578125,-0.04842079430818558,0.15736138820648193,-0.27842602133750916
1700516704340277800,9.36627783203125,-0.051000598818063736,-0.003763579297810793,-0.21785536408424377
1700516704350289000,9.376288818359376,-0.027668112888932228,0.17188015580177307,-0.2988804280757904
1700516704360299800,9.3862998046875,-0.011213771998882294,0.20077838003635406,-0.2672455608844757
1700516704370310700,9.396310546875,-0.12544341385364532,0.03596119582653046,0.7711400985717773
1700516704380321800,9.40632177734375,-0.056833453476428986,0.2521776556968689,1.1921496391296387
1700516704390332700,9.416332763671875,0.03772660717368126,0.00555056007578969,0.910136878490448
1700516704400342800,9.4263427734375,-0.03813646733760834,0.5007315278053284,0.9900511503219604
1700516704410353700,9.436353759765625,0.007536745630204678,0.24812112748622894,0.9010323286056519
1700516704420364800,9.44636474609375,0.1473550945520401,0.1827154904603958,0.36301201581954956
1700516704430376000,9.4563759765625,0.07735470682382584,0.4049767851829529,0.2483762502670288
1700516704440386800,9.46638671875,0.09350810945034027,-0.19765156507492065,-0.09962113201618195
1700516704450396700,9.476396728515626,0.09878143668174744,0.18649931252002716,-0.20904989540576935
1700516704460411100,9.4864111328125,0.03452069312334061,-0.5233244895935059,-0.7812758684158325
1700516704470422000,9.496422119140625,0.07580848038196564,0.010763698257505894,-0.5927214026451111
1700516704480433000,9.506432861328125,-0.12907755374908447,-0.3094654381275177,-0.5816330313682556
1700516704490444000,9.516444091796876,-0.11177153885364532,-0.5002462863922119,-0.600351870059967
1700516704500455200,9.526455078125,-0.1587851196527481,-0.032175514847040176,-0.764126181602478
1700516704510465000,9.536465087890624,-0.014494520612061024,0.2849406599998474,0.0459618978202343
1700516704520476200,9.54647607421875,-0.07563270628452301,-0.13578978180885315,0.07442576438188553
1700516704530487000,9.556487060546875,-0.05631440505385399,-0.04096421226859093,-0.017485782504081726
1700516704540498000,9.566497802734375,-0.08042320609092712,0.22052597999572754,0.8641899228096008
1700516704550509000,9.576509033203125,-0.15118525922298431,0.35524091124534607,1.287226915359497
1700516704560520000,9.58652001953125,-0.07143769413232803,-0.053940463811159134,0.6427709460258484
1700516704570530000,9.596530029296876,0.11645524203777313,0.434516578912735,0.5976836681365967
1700516704580541200,9.606541259765624,-0.04085688665509224,0.1466941088438034,0.5122808814048767
1700516704590552000,9.616552001953124,0.06806480139493942,-0.24613814055919647,0.12199088931083679
1700516704600563000,9.62656298828125,0.09142205864191055,0.38130393624305725,-0.02406379021704197
1700516704610574000,9.636573974609375,0.012466256506741047,-0.09227746725082397,0.11178485304117203
1700516704620585000,9.6465849609375,0.0926031693816185,0.2423149049282074,0.40548545122146606
1700516704630595000,9.656594970703125,0.10085071623325348,0.06378324329853058,0.026729881763458252
1700516704640606000,9.66660595703125,0.046112366020679474,0.03188949078321457,0.27338600158691406
1700516704650617000,9.6766171875,-0.016087623313069344,0.181712806224823,0.1376500129699707
1700516704660628000,9.6866279296875,0.0019113506423309445,-0.2797323167324066,-0.24295379221439362
1700516704670639000,9.69663916015625,0.02244272455573082,0.136248379945755,-0.2137833833694458
1700516704680649000,9.70664892578125,-0.13493438065052032,-0.3427104949951172,-0.10830090939998627
1700516704690660000,9.71666015625,-0.06108678877353668,-0.018373414874076843,-0.25842010974884033
1700516704700671000,9.7266708984375,-0.1362859308719635,-0.44489091634750366,-0.9039921760559082
1700516704710682000,9.73668212890625,-0.03394518420100212,0.0018764632986858487,-0.6966744065284729
1700516704720693000,9.74669287109375,0.04922613501548767,-0.37855690717697144,-0.6522840261459351
1700516704730704100,9.7567041015625,0.05620947480201721,-0.12949487566947937,-0.5871481895446777
1700516704740714000,9.7667138671875,-0.0832967534661293,-0.06494864076375961,-0.7461058497428894
1700516704750725000,9.77672509765625,-0.09958917647600174,0.016035424545407295,-0.656535804271698
1700516704760736000,9.786736083984374,-0.10989640653133392,-0.212718665599823,-0.5460042357444763
1700516704770747000,9.796746826171875,0.018633073195815086,0.09270570427179337,-0.33766698837280273
1700516704780758000,9.806758056640625,0.06232063099741936,0.2898659110069275,0.03845391422510147
1700516704790769200,9.81676904296875,0.061465758830308914,0.31314194202423096,0.31993618607521057
1700516704800779000,9.826779052734375,0.05952458083629608,0.03684217110276222,0.8375897407531738
1700516704810790100,9.8367900390625,0.058941345661878586,0.46566277742385864,0.5494532585144043
1700516704820801000,9.846801025390626,-0.05097583308815956,0.06234939396381378,0.6668139696121216
1700516704830812000,9.85681201171875,0.006428870838135481,0.1644001305103302,0.6024877429008484
1700516704840823000,9.866822998046874,-0.04928312823176384,-0.07340337336063385,-0.08316545933485031
1700516704850834200,9.876834228515625,0.07132371515035629,0.02888224832713604,-0.02538232132792473
1700516704860845000,9.886844970703125,-0.0012663330417126417,0.1906873881816864,0.18557146191596985
1700516704870855200,9.896855224609375,-0.02684146724641323,-0.11511460691690445,-0.34154826402664185
1700516704880866000,9.906865966796875,0.051853079348802567,0.4130203425884247,-0.20634359121322632
1700516704890877000,9.916876953125,0.023242471739649773,-0.020720724016427994,-0.04083850979804993
1700516704900888000,9.92688818359375,0.0739823505282402,0.13009755313396454,-0.018854914233088493
1700516704910899000,9.93689892578125,0.07409074157476425,0.021796109154820442,-0.1236196756362915
1700516704920910000,9.94691015625,0.053189717233181,0.1523013859987259,0.07743114233016968
1700516704930920200,9.956920166015625,0.026987675577402115,0.28442826867103577,0.42799848318099976
1700516704940931000,9.96693115234375,0.05746249482035637,-0.26635125279426575,-0.12413126975297928
1700516704950942000,9.97694189453125,0.1273699402809143,0.3373039960861206,0.004770254250615835
1700516704960953000,9.986953125,-0.025792980566620827,0.050752926617860794,0.12419544905424118
1700516704970964000,9.9969638671875,0.09804480522871017,-0.09911593049764633,0.023130619898438454
1700516704980975000,10.00697509765625,0.12501198053359985,-0.03735429793596268,-0.11884409189224243
1700516704990986000,10.016986083984374,0.001900964416563511,-0.17474465072155,-0.060806892812252045
1700516705000996000,10.02699609375,0.10230213403701782,0.1815844476222992,0.15445642173290253
1700516705011007000,10.037007080078125,-0.0006463492172770202,-0.1257382184267044,-0.2533361315727234
1700516705021018000,10.04701806640625,0.061173077672719955,0.35897067189216614,0.14087562263011932
1700516705031029000,10.057029052734375,0.0336168147623539,0.2974793612957001,0.5729580521583557
1700516705041040000,10.067039794921875,-0.014956045895814896,0.04591715708374977,0.3208664357662201
1700516705051051300,10.07705126953125,0.07484760880470276,0.0970008447766304,0.02815999835729599
1700516705061061000,10.08706103515625,-0.08149805665016174,-0.11645923554897308,-0.09411212056875229
1700516705071072000,10.097072021484376,0.028970930725336075,-0.001847701147198677,-0.032886311411857605
1700516705081083100,10.107083251953124,0.048592038452625275,0.014798653312027454,0.03895272687077522
1700516705091094000,10.117093994140625,-0.04916275292634964,0.021150825545191765,0.14913488924503326
1700516705101105000,10.12710498046875,0.041979409754276276,0.11809654533863068,0.1504020243883133
1700516705111116000,10.137115966796875,0.056657686829566956,-0.18971161544322968,-0.2743908166885376
1700516705121127200,10.147127197265625,0.11525841802358627,0.08594926446676254,-0.24561987817287445
1700516705131137000,10.157136962890625,-0.044619400054216385,-0.1828198879957199,-0.04902772977948189
1700516705141148200,10.167148193359376,0.11701636761426926,-0.07858429104089737,0.0751299038529396
1700516705151159000,10.177158935546874,0.10294581949710846,0.05477137118577957,0.11042637377977371
1700516705161170000,10.187169921875,0.002442651428282261,0.012198342941701412,0.17477793991565704
1700516705171181000,10.19718115234375,0.05516951158642769,0.2101905196905136,0.22157180309295654
1700516705181192200,10.207192138671875,0.035283688455820084,-0.10022380948066711,-0.20383195579051971
1700516705191203000,10.217203125,0.017356086522340775,-0.01727805659174919,-0.2044660598039627
1700516705201213200,10.227213134765625,-0.14745736122131348,-0.08272550255060196,-0.17989200353622437
1700516705211224000,10.23722412109375,-0.0943901538848877,-0.21316127479076385,-0.29639652371406555
1700516705221235000,10.24723486328125,-0.002629871480166912,-0.1152067482471466,-0.5615160465240479
1700516705231246000,10.25724609375,-0.008986038155853748,-0.049437325447797775,-0.4034574627876282
1700516705241257000,10.267257080078124,-0.11653273552656174,0.4009745717048645,0.019876236096024513
1700516705251268000,10.27726806640625,-0.007306382525712252,-0.4449380338191986,-0.160007506608963
1700516705261279200,10.287279296875,0.06073924899101257,0.19231165945529938,-0.23549827933311462
1700516705271289000,10.2972890625,-0.04309287667274475,-0.05668964609503746,-0.143663689494133
1700516705281300000,10.307300048828125,0.0666317567229271,-0.09457071125507355,0.14128123223781586
1700516705291311000,10.31731103515625,0.18879441916942596,0.3164581060409546,0.13531067967414856
1700516705301322000,10.327322021484376,-0.021046962589025497,0.008466987870633602,0.4036422669887543
1700516705311332900,10.337332763671874,0.007149788551032543,0.3004794120788574,0.6327399015426636
1700516705321344300,10.34734423828125,0.06336139887571335,0.12961897253990173,0.22558732330799103
1700516705331355100,10.357355224609375,0.0914715901017189,0.059729110449552536,0.24730859696865082
1700516705341365000,10.367364990234375,-0.022287461906671524,0.14009106159210205,0.09887784719467163
1700516705351376100,10.377376220703125,0.06487540155649185,-0.22506241500377655,-0.1618267148733139
1700516705361387000,10.387386962890625,0.09996707737445831,-0.06778810173273087,-0.09475633502006531
1700516705371398000,10.39739794921875,-0.10243795812129974,-0.09426045417785645,0.0820530578494072
1700516705381409000,10.407408935546876,-0.02943458780646324,-0.03545519709587097,0.1684422791004181
1700516705391420200,10.417420166015624,0.053102631121873856,-0.06537341326475143,-0.15026353299617767
1700516705401431000,10.42743115234375,-0.026570357382297516,-0.022602779790759087,-0.164547398686409
1700516705411442000,10.43744189453125,-0.1021367534995079,0.05452582612633705,-0.16248637437820435
1700516705421452000,10.4474521484375,-0.01266839075833559,-0.5158119797706604,-0.34351181983947754
1700516705431463000,10.457462890625,0.004162786994129419,0.1503777801990509,-0.2195616513490677
1700516705441474000,10.46747412109375,-0.14654310047626495,-0.32493147253990173,0.17196376621723175
1700516705451485200,10.477485107421876,-0.03151451796293259,-0.19783692061901093,0.17203673720359802
1700516705461492200,10.4874921875,0.030252709984779358,-0.1389605551958084,-0.06835615634918213
1700516705471503400,10.49750341796875,0.002507632365450263,-0.11461126804351807,0.08729176223278046
1700516705481514200,10.50751416015625,-0.10151597112417221,0.2257569581270218,0.251350998878479
1700516705491525000,10.517525146484376,0.06000101938843727,-0.5751186609268188,-0.22220882773399353
1700516705501535200,10.52753515625,0.1183607280254364,0.416136234998703,-0.20367136597633362
1700516705511546000,10.537546142578124,-0.09115201234817505,-0.013511814177036285,0.15641996264457703
1700516705521557200,10.54755712890625,0.06609273701906204,-0.05609069764614105,0.20721150934696198
1700516705531568400,10.557568359375,0.030250580981373787,0.1699560135602951,0.06091581657528877
1700516705541579300,10.567579345703125,-0.08885370939970016,0.057559698820114136,0.2284960299730301
1700516705551590100,10.577590087890625,-0.13833284378051758,0.11119735985994339,0.3481118977069855
1700516705561601300,10.587601318359376,-0.07963677495718002,-0.23854999244213104,-0.25042980909347534
1700516705571612400,10.5976123046875,-0.01932709291577339,0.061345916241407394,-0.17997829616069794
1700516705581622300,10.607622314453126,-0.09774679690599442,-0.07601753622293472,0.032702021300792694
1700516705591633400,10.61763330078125,0.015313176438212395,-0.22343948483467102,0.03099786303937435
1700516705601644300,10.627644287109375,0.06794096529483795,-0.022709306329488754,-0.27412131428718567
1700516705611655200,10.6376552734375,-0.04718881845474243,-0.1836388111114502,-0.012374910525977612
1700516705621666300,10.647666259765625,0.032877787947654724,0.14028866589069366,0.16878582537174225
1700516705631677200,10.65767724609375,-0.006616623606532812,-0.07405984401702881,-0.08970431983470917
1700516705641688300,10.667688232421876,0.08166450262069702,0.07570088654756546,-0.12258210778236389
1700516705651699200,10.67769921875,-0.08214627206325531,-0.10872940719127655,0.03170732781291008
1700516705661709300,10.687709228515626,-0.029022064059972763,-0.4355914294719696,-0.19243203103542328
1700516705671720200,10.69772021484375,0.016690297052264214,0.04423777014017105,-0.2762925624847412
1700516705681731300,10.7077314453125,-0.03224209323525429,-0.32672858238220215,-0.07545134425163269
1700516705691742200,10.7177421875,-0.11757510155439377,0.07364971935749054,-0.0020509003661572933
1700516705701753000,10.727753173828125,0.005504221189767122,-0.3051077127456665,-0.5696309804916382
1700516705711764200,10.73776416015625,-0.025000425055623055,-0.030603982508182526,-0.5892001390457153
1700516705721775400,10.747775390625,-0.0589810274541378,-0.13948972523212433,-0.31256136298179626
1700516705731786200,10.7577861328125,-0.025172198191285133,-0.03792740777134895,-0.323933869600296
1700516705741797000,10.767797119140624,-0.04805940389633179,0.034876756370067596,-0.41426989436149597
1700516705751807200,10.77780712890625,-0.012194348499178886,0.024214260280132294,0.14193476736545563
1700516705761818000,10.787818115234375,-0.005585181526839733,0.32710570096969604,0.5451663732528687
1700516705771829200,10.797829345703125,-0.03098214976489544,0.03496623784303665,0.11828216910362244
1700516705781840400,10.80784033203125,-0.04399462044239044,0.23712040483951569,0.3653404116630554
1700516705791851300,10.817851318359375,-0.0315704420208931,0.24626170098781586,0.4966433346271515
1700516705801862100,10.827862060546876,-0.0437309704720974,-0.0961153507232666,0.3393130898475647
1700516705811873300,10.837873291015624,0.018702315166592598,0.06045455485582352,0.14939774572849274
1700516705821884200,10.84788427734375,-0.06314194947481155,-0.16187572479248047,0.2708911597728729
1700516705831895300,10.857895263671875,0.006175337824970484,-0.0027276095934212208,0.13799035549163818
1700516705841905400,10.867905517578125,0.046658847481012344,-0.08769576251506805,-0.1048814058303833
1700516705851916300,10.877916259765625,-0.08902627974748611,-0.12180472910404205,-0.0456809364259243
1700516705861927200,10.88792724609375,-0.03261679783463478,0.14018480479717255,-0.0953424945473671
1700516705871938300,10.897938232421875,0.02010473608970642,-0.28636226058006287,-0.422564834356308
1700516705881949200,10.90794921875,-0.0200424175709486,0.10478287190198898,-0.311379998922348
1700516705891960000,10.9179599609375,-0.06716545671224594,-0.2957049012184143,-0.22683501243591309
1700516705901971500,10.927971435546874,0.0009001484140753746,0.13570164144039154,-0.17517927289009094
1700516705911982300,10.937982421875,0.010676346719264984,0.042809780687093735,-0.2649019658565521
1700516705921993200,10.9479931640625,-0.06325779855251312,-0.04098205268383026,0.10902049392461777
1700516705932003300,10.95800341796875,-0.12344736605882645,0.24554957449436188,0.25693246722221375
1700516705942014200,10.96801416015625,0.00926247425377369,-0.3879821002483368,-0.3260497450828552
1700516705952025000,10.978025146484375,0.024601217359304428,0.404075562953949,0.04026752710342407
1700516705962036200,10.9880361328125,-0.1385059505701065,-0.18373042345046997,0.4160560667514801
1700516705972047400,10.99804736328125,-0.0679689273238182,0.03981931880116463,0.39521655440330505
1700516705982058200,11.008058349609374,0.07492697238922119,0.12232165038585663,0.2147059142589569
1700516705992069000,11.018069091796875,-0.037158820778131485,-0.07506119459867477,0.35535863041877747
1700516706002080300,11.028080322265625,0.032521191984415054,0.15614007413387299,0.20308786630630493
1700516706012091100,11.038091064453125,0.0825023353099823,0.1213325560092926,-0.0730861946940422
1700516706022102300,11.048102294921875,0.0233474001288414,0.16585715115070343,0.1414783000946045
1700516706032112400,11.0581123046875,-0.007254450581967831,0.19574260711669922,0.32108214497566223
1700516706042123300,11.068123291015626,0.06133020296692848,-0.07921679317951202,-0.034980885684490204
1700516706052134400,11.078134521484374,0.022946061566472054,0.17020688951015472,-0.21070504188537598
1700516706062145300,11.088145263671874,-0.11018030345439911,-0.19849897921085358,-0.07306648790836334
1700516706072156200,11.09815625,-0.010419883765280247,0.03753805533051491,-0.02221262827515602
1700516706082167000,11.1081669921875,0.020499682053923607,-0.1488717645406723,-0.1885235756635666
1700516706092178400,11.118178466796875,-0.07909828424453735,-0.24891261756420135,0.18431764841079712
1700516706102189300,11.128189208984375,-0.09377629309892654,0.020917266607284546,0.14814819395542145
1700516706112200200,11.1382001953125,-0.0244856346398592,-0.4114360213279724,-0.3373228907585144
1700516706122211300,11.14821142578125,0.11175822466611862,0.0373511016368866,-0.4803623557090759
1700516706132222200,11.15822216796875,0.04009229317307472,-0.20603466033935547,-0.2573353946208954
1700516706142232000,11.168232177734374,0.09318773448467255,-0.15112747251987457,-0.04754355177283287
1700516706152243200,11.1782431640625,-0.025899240747094154,-0.2637863755226135,-0.4967397153377533
1700516706162254300,11.18825439453125,0.0033076461404561996,0.11448503285646439,-0.6411405801773071
1700516706172265200,11.19826513671875,-0.011773834936320782,0.04905169829726219,-0.5747882127761841
1700516706182276400,11.2082763671875,0.017733190208673477,0.12425857037305832,-0.24431946873664856
1700516706192287200,11.218287353515626,0.014437262900173664,0.7438619136810303,0.6228316426277161
1700516706202298000,11.228298095703124,-0.04638960212469101,0.4907201826572418,1.273711085319519
1700516706212309200,11.238309326171875,-0.019784890115261078,0.2540213465690613,1.0744060277938843
1700516706222320400,11.2483203125,0.12618111073970795,0.3828789293766022,0.8090249300003052
1700516706232331300,11.258331298828125,0.027882764115929604,-0.23785996437072754,0.48248782753944397
1700516706242341400,11.26834130859375,0.15754994750022888,-0.16805557906627655,0.3321899175643921
1700516706252352300,11.278352294921875,0.11561021953821182,0.2368232011795044,-0.31282156705856323
1700516706262363100,11.288363037109375,0.03243197500705719,-0.30761268734931946,-0.19433459639549255
1700516706272374300,11.298374267578126,0.09816038608551025,0.19052733480930328,-0.3096124529838562
1700516706282385400,11.308385498046874,0.1626853197813034,-0.7886219024658203,-0.730366587638855
1700516706292396300,11.318396240234375,0.1635276824235916,0.15154105424880981,-0.8686866760253906
1700516706302407200,11.3284072265625,0.020776651799678802,-0.24848411977291107,-0.8757914304733276
1700516706312418300,11.338418212890625,0.03833353891968727,-0.03175526484847069,-0.4729670286178589
1700516706322429200,11.34842919921875,-0.0348179005086422,0.05423127859830856,-0.5981664657592773
1700516706332440000,11.358440185546876,-0.01184920221567154,0.6252045035362244,0.00021198761533014476
1700516706342451500,11.368451416015626,-0.10084033012390137,0.18191839754581451,0.6331177949905396
1700516706352462300,11.37846240234375,0.04366332292556763,-0.42489537596702576,0.0721849799156189
1700516706362472200,11.38847216796875,0.015851933509111404,0.34140074253082275,0.11162213236093521
1700516706372483300,11.3984833984375,-0.08987103402614594,0.10547449439764023,0.44216597080230713
1700516706382494200,11.408494140625,-0.06674280762672424,-0.10855257511138916,0.2365827113389969
1700516706392505000,11.418505126953125,0.19524726271629333,0.48393046855926514,0.24603480100631714
1700516706402516500,11.4285166015625,0.01944560371339321,0.1394212692975998,0.6739498972892761
1700516706412527400,11.43852734375,0.1549118161201477,0.004001932218670845,0.4102676808834076
1700516706422538200,11.448538330078126,0.2156507968902588,0.6088247299194336,0.060685183852910995
1700516706432549000,11.458549072265624,0.02983858995139599,0.11899403482675552,0.17791379988193512
1700516706442560300,11.468560302734375,0.15596748888492584,0.18000757694244385,0.22043782472610474
1700516706452571100,11.478571044921875,0.08800043165683746,0.26599547266960144,-0.3055729568004608
1700516706462583300,11.488583251953125,-0.006650179624557495,-0.14422428607940674,-0.2542807459831238
1700516706472594200,11.49859423828125,-0.041067276149988174,-0.09644424915313721,-0.4240487515926361
1700516706482605300,11.508605224609376,-0.044379450380802155,-0.6497183442115784,-0.7801461219787598
1700516706492615200,11.518615234375,-0.04188113659620285,0.06083165854215622,-0.6689330339431763
1700516706502626300,11.528626220703124,-0.04532380402088165,-0.3486163020133972,-0.24901434779167175
1700516706512637400,11.538637451171875,-0.0336434468626976,-0.3223937451839447,0.06498991698026657
1700516706522648300,11.5486484375,0.08021467924118042,-0.12118368595838547,-0.43572962284088135
1700516706532659200,11.5586591796875,0.07384359836578369,0.25411456823349,0.24030688405036926
1700516706542670300,11.56867041015625,-0.017591776326298714,0.08985958248376846,0.4633122682571411
1700516706552681200,11.57868115234375,0.025236647576093674,-0.14994369447231293,-0.189427450299263
1700516706562692400,11.5886923828125,0.11383282393217087,0.3799332082271576,0.15228354930877686
1700516706572703500,11.598703369140624,0.07591340690851212,0.29822584986686707,0.4146139621734619
1700516706582714400,11.60871435546875,0.019230952486395836,0.05338279902935028,0.06416460126638412
1700516706592725200,11.618725341796875,0.18124276399612427,0.1812901645898819,-0.14884939789772034
1700516706602736000,11.628736083984375,-0.11536627262830734,0.2916797995567322,0.13808543980121613
1700516706612747300,11.638747314453125,-0.08850403130054474,-0.20938704907894135,0.24233700335025787
1700516706622757000,11.648757080078125,0.07803115248680115,0.1463598757982254,0.0070709590800106525
1700516706632768500,11.6587685546875,-0.05428560823202133,-0.06933513283729553,0.19231031835079193
1700516706642779400,11.668779296875,-0.03069639392197132,-0.08523447066545486,0.3114449679851532
1700516706652790300,11.678790283203124,0.07656481862068176,-0.10950199514627457,-0.15810494124889374
1700516706662801200,11.68880126953125,0.02370426431298256,-0.07829347252845764,-0.34147024154663086
1700516706672812300,11.698812255859375,-0.026494724676012993,0.0674368292093277,-0.5128483772277832
1700516706682823200,11.7088232421875,0.025063807144761086,-0.43873047828674316,-0.6754388809204102
1700516706692834300,11.718834228515625,0.06234007328748703,0.3557189702987671,-0.32789504528045654
1700516706702845400,11.728845458984376,-0.15439197421073914,0.2293519675731659,0.3330778181552887
1700516706712856300,11.738856201171876,-0.0034940673504024744,-0.2949749231338501,0.5976333022117615
1700516706722867200,11.7488671875,0.16646140813827515,0.3125259578227997,0.20851805806159973
1700516706732878300,11.75887841796875,-0.06584586203098297,-0.09531133621931076,0.2824801504611969
1700516706742889500,11.768889404296875,-0.02250983566045761,-0.09430679678916931,0.35875603556632996
1700516706752900400,11.778900390625,0.07442549616098404,0.05772268399596214,0.009169263765215874
1700516706762911200,11.7889111328125,-0.012772786431014538,0.05055531859397888,0.23806129395961761
1700516706772921300,11.79892138671875,0.016447149217128754,-0.057918958365917206,0.1579936295747757
1700516706782932200,11.80893212890625,0.04959312081336975,-0.21394264698028564,-0.3335907459259033
1700516706792943400,11.818943359375,0.18592140078544617,0.1057293564081192,-0.4993549585342407
1700516706802954200,11.828954345703124,-0.1305641382932663,-0.22320058941841125,-0.3459715247154236
1700516706812965400,11.83896533203125,-0.06263647973537445,-0.38315483927726746,-0.3577094078063965
1700516706822976300,11.848976318359375,0.048050884157419205,0.5612340569496155,-0.34154027700424194
1700516706832987400,11.8589873046875,-0.14884354174137115,-0.2942635715007782,0.25201573967933655
1700516706842998300,11.868998291015625,-0.09619870781898499,-0.2140451818704605,0.46627184748649597
1700516706853009200,11.879009033203126,0.06357258558273315,-0.003942543640732765,-0.003563842037692666
1700516706863020300,11.889020263671876,-0.05583503469824791,-0.013073990121483803,0.19504964351654053
1700516706873031400,11.899031494140624,0.04363376274704933,0.11354174464941025,0.43994036316871643
1700516706883042300,11.909042236328125,0.1641460657119751,0.10841622203588486,0.24248801171779633
1700516706893053200,11.91905322265625,0.0777943953871727,0.2707787752151489,0.4077984094619751
1700516706903064300,11.929064208984375,0.10628382861614227,0.2223542481660843,0.3377937376499176
1700516706913075200,11.9390751953125,0.17247936129570007,-0.2305232286453247,-0.1159934476017952
1700516706923086300,11.94908642578125,0.09044281393289566,0.12807141244411469,-0.5041712522506714
1700516706933096400,11.959096435546876,-0.11097259074449539,-0.35420334339141846,-0.4587603807449341
1700516706943107300,11.969107421875,-0.024113325402140617,-0.38665342330932617,-0.5164977312088013
1700516706953118200,11.9791181640625,-0.06605251878499985,-0.4972183108329773,-0.7842287421226501
1700516706963129300,11.98912939453125,-0.1132272258400917,-0.08575032651424408,-0.658416211605072
1700516706973140200,11.99914013671875,-0.128137469291687,0.06979053467512131,-0.4091795086860657
1700516706983151000,12.009151123046875,0.021519938483834267,-0.41556525230407715,-0.3891349732875824
1700516706993162500,12.01916259765625,0.01865091547369957,0.4070844054222107,0.08498093485832214
1700516707003173400,12.02917333984375,-0.17203274369239807,0.20330864191055298,0.4256194829940796
1700516707013184300,12.039184326171876,0.016713999211788177,-0.45610201358795166,0.2950572073459625
1700516707023195400,12.0491953125,0.16956186294555664,0.4890629053115845,0.06420189142227173
1700516707033206300,12.059206298828125,-0.14186659455299377,0.10910838097333908,0.44785448908805847
1700516707043217200,12.069217041015625,-0.04025873914361,-0.255045622587204,0.38934004306793213
1700516707053228300,12.079228271484375,0.16207119822502136,0.27158063650131226,-0.0357808992266655
1700516707063239400,12.089239501953125,-0.018201639875769615,-0.1539890319108963,-0.052076250314712524
1700516707073250300,12.099250244140626,0.025543443858623505,-0.0733698233962059,-0.06863711774349213
1700516707083261200,12.10926123046875,0.04270298779010773,0.00021651499264407903,-0.4858969449996948
1700516707093272300,12.119272216796874,0.019057847559452057,0.22965475916862488,-0.024980716407299042
1700516707103282200,12.1292822265625,0.00797110702842474,-0.10761380940675735,0.062651127576828
