time,seconds_elapsed,z,y,x
1700516426468594000,0.016593994140625,-1.18701171875,-0.17437744140625,0.097930908203125
1700516426478603800,0.026603759765625,-1.06976318359375,0.0592803955078125,0.0423431396484375
1700516426488614000,0.03661376953125,-0.852508544921875,-0.2229461669921875,0.0820159912109375
1700516426498623700,0.046623779296875,-0.869293212890625,-0.244384765625,0.005279541015625
1700516426508633900,0.0566337890625,-1.1270904541015625,-0.1020355224609375,0.0811004638671875
1700516426518644000,0.06664404296875,-1.0566253662109375,-0.10003662109375,0.072021484375
1700516426528653800,0.07665380859375,-1.0738983154296875,-0.127166748046875,0.033233642578125
1700516426538664000,0.086663818359375,-0.8703460693359375,-0.16143798828125,0.08978271484375
1700516426548673800,0.096673828125,-0.786407470703125,-0.188568115234375,-0.0204315185546875
1700516426558684000,0.106683837890625,-1.1846160888671875,-0.1909637451171875,0.099395751953125
1700516426568693800,0.11669384765625,-1.08251953125,0.0604400634765625,0.030731201171875
1700516426578704000,0.126703857421875,-0.869964599609375,-0.220672607421875,0.093109130859375
1700516426588714800,0.13671484375,-0.8413543701171875,-0.24700927734375,-0.0127105712890625
1700516426598724900,0.146724853515625,-1.13250732421875,-0.1097869873046875,0.08355712890625
1700516426608734700,0.156734619140625,-1.095428466796875,-0.088714599609375,0.0730133056640625
1700516426618744800,0.166744873046875,-1.0625,-0.119171142578125,0.0321502685546875
1700516426628755000,0.1767548828125,-0.8894195556640625,-0.1787567138671875,0.0943603515625
1700516426638764800,0.186764892578125,-0.7533721923828125,-0.1833953857421875,-0.0148773193359375
1700516426648775000,0.19677490234375,-1.164520263671875,-0.1877899169921875,0.0878143310546875
1700516426658784800,0.20678466796875,-1.1290283203125,0.0487823486328125,0.041961669921875
1700516426668795000,0.216794921875,-0.893585205078125,-0.165252685546875,0.0845184326171875
1700516426678805000,0.226804931640625,-0.8142547607421875,-0.2645111083984375,0.0091552734375
1700516426688814800,0.23681494140625,-1.0756683349609375,-0.088409423828125,0.067474365234375
1700516426698825000,0.246824951171875,-1.113433837890625,-0.10546875,0.08172607421875
1700516426708834800,0.256834716796875,-1.101654052734375,-0.11651611328125,0.049102783203125
1700516426718845000,0.266844970703125,-0.9139251708984375,-0.1116180419921875,0.0759735107421875
1700516426728854800,0.276854736328125,-0.6772918701171875,-0.2189483642578125,0.0060577392578125
1700516426738865000,0.286864990234375,-1.160919189453125,-0.1962738037109375,0.064727783203125
1700516426748875000,0.296875,-1.1476287841796875,0.0471649169921875,0.059356689453125
1700516426758884900,0.306884765625,-0.925933837890625,-0.1165313720703125,0.0624847412109375
1700516426768895000,0.31689501953125,-0.8165740966796875,-0.309600830078125,0.023681640625
1700516426778904800,0.32690478515625,-1.0312652587890625,-0.0867156982421875,0.03546142578125
1700516426788915000,0.3369150390625,-1.112213134765625,-0.11810302734375,0.092010498046875
1700516426798924800,0.3469248046875,-1.1177520751953125,-0.0984954833984375,0.0277557373046875
1700516426808935000,0.356934814453125,-0.9571075439453125,-0.1141204833984375,0.0739593505859375
1700516426818945000,0.366945068359375,-0.6578216552734375,-0.1887359619140625,0.0051422119140625
1700516426828954600,0.37695458984375,-1.1074676513671875,-0.20208740234375,0.0391387939453125
1700516426838964700,0.38696484375,-1.1994476318359375,0.0298919677734375,0.0823516845703125
1700516426848974600,0.396974609375,-0.9465484619140625,-0.075897216796875,0.06072998046875
1700516426858984700,0.406984619140625,-0.7816314697265625,-0.313690185546875,0.032257080078125
1700516426868994800,0.416994873046875,-1.0323638916015625,-0.0990447998046875,0.0326080322265625
1700516426879004700,0.427004638671875,-1.11224365234375,-0.099853515625,0.10260009765625
1700516426889014800,0.437014892578125,-1.106231689453125,-0.1214752197265625,0.040496826171875
1700516426899024600,0.447024658203125,-0.9712982177734375,-0.1021728515625,0.0777587890625
1700516426909034800,0.45703466796875,-0.6512298583984375,-0.18182373046875,0.01336669921875
1700516426919044600,0.467044677734375,-1.113555908203125,-0.205169677734375,0.0449676513671875
1700516426929054700,0.4770546875,-1.19964599609375,0.0241546630859375,0.0856170654296875
1700516426939064800,0.48706494140625,-0.9513092041015625,-0.0585174560546875,0.0622100830078125
1700516426949074700,0.49707470703125,-0.77642822265625,-0.319244384765625,0.0340728759765625
1700516426959084800,0.507084716796875,-1.0281982421875,-0.0949859619140625,0.024749755859375
1700516426969094700,0.5170947265625,-1.1391143798828125,-0.10247802734375,0.0984649658203125
1700516426979104800,0.527104736328125,-1.0884552001953125,-0.104583740234375,0.0273895263671875
1700516426989115000,0.537114990234375,-0.974334716796875,-0.1231842041015625,0.072357177734375
1700516426999124700,0.547124755859375,-0.663848876953125,-0.162689208984375,0.000213623046875
1700516427009134800,0.557134765625,-1.1013336181640625,-0.2137908935546875,0.0432891845703125
1700516427019144700,0.567144775390625,-1.20294189453125,0.0057373046875,0.076446533203125
1700516427029154800,0.57715478515625,-0.9420013427734375,-0.0395660400390625,0.0439300537109375
1700516427039164700,0.58716455078125,-0.775634765625,-0.3121185302734375,0.039581298828125
1700516427049174800,0.5971748046875,-1.0427093505859375,-0.119903564453125,0.010650634765625
1700516427059185000,0.607184814453125,-1.13275146484375,-0.0990753173828125,0.1118927001953125
1700516427069194800,0.61719482421875,-1.059112548828125,-0.0837554931640625,0.0113372802734375
1700516427079204900,0.627204833984375,-1.01470947265625,-0.1499481201171875,0.07757568359375
1700516427089214700,0.637214599609375,-0.657623291015625,-0.1478271484375,-0.003173828125
1700516427099224800,0.647224853515625,-1.0770263671875,-0.2220306396484375,0.041656494140625
1700516427109234700,0.657234619140625,-1.20489501953125,-0.01617431640625,0.079437255859375
1700516427119244800,0.667244873046875,-0.9378204345703125,-0.0160980224609375,0.0397796630859375
1700516427129255000,0.6772548828125,-0.789306640625,-0.318267822265625,0.049163818359375
1700516427139264800,0.6872646484375,-1.0403289794921875,-0.11700439453125,0.017730712890625
1700516427149275000,0.69727490234375,-1.123443603515625,-0.10638427734375,0.1146392822265625
1700516427159284700,0.70728466796875,-1.0566864013671875,-0.0836181640625,0.0239715576171875
1700516427169294300,0.71729443359375,-1.0281982421875,-0.137725830078125,0.076995849609375
1700516427179304400,0.727304443359375,-0.66314697265625,-0.1463623046875,0.0214080810546875
1700516427189314300,0.737314208984375,-1.087310791015625,-0.2197418212890625,0.0413665771484375
1700516427199324400,0.747324462890625,-1.1985015869140625,-0.011322021484375,0.09027099609375
1700516427209334300,0.757334228515625,-0.9217529296875,-0.0178375244140625,0.0445709228515625
1700516427219344400,0.767344482421875,-0.7959442138671875,-0.322662353515625,0.045928955078125
1700516427229353200,0.777353271484375,-1.0629425048828125,-0.1055145263671875,0.0186767578125
1700516427239364400,0.7873642578125,-1.1246337890625,-0.0951690673828125,0.114593505859375
1700516427249373200,0.797373291015625,-1.0371856689453125,-0.09759521484375,0.0244293212890625
1700516427259383300,0.80738330078125,-0.995147705078125,-0.13958740234375,0.0702972412109375
1700516427269393200,0.81739306640625,-0.6939849853515625,-0.1423492431640625,0.0092315673828125
1700516427279403300,0.8274033203125,-1.114715576171875,-0.213104248046875,0.0533447265625
1700516427289413000,0.8374130859375,-1.1608734130859375,-0.0041046142578125,0.06805419921875
1700516427299423200,0.84742333984375,-0.9204864501953125,-0.0405731201171875,0.052825927734375
1700516427309433300,0.857433349609375,-0.7920379638671875,-0.3101043701171875,0.0345001220703125
1700516427319443200,0.867443115234375,-1.08251953125,-0.1094207763671875,0.0218963623046875
1700516427329453300,0.877453369140625,-1.1137237548828125,-0.0880126953125,0.0956268310546875
1700516427339463200,0.887463134765625,-1.0266571044921875,-0.1121673583984375,0.0289154052734375
1700516427349473300,0.897473388671875,-0.992706298828125,-0.141632080078125,0.071258544921875
1700516427359483100,0.907483154296875,-0.7074127197265625,-0.14385986328125,0.0020751953125
1700516427369493200,0.9174931640625,-1.1248016357421875,-0.2156524658203125,0.0526580810546875
1700516427379503400,0.92750341796875,-1.15203857421875,0.003631591796875,0.061370849609375
1700516427389513200,0.93751318359375,-0.92041015625,-0.048797607421875,0.0554351806640625
1700516427399523300,0.9475234375,-0.788482666015625,-0.3111419677734375,0.0338897705078125
1700516427409533200,0.957533203125,-1.092437744140625,-0.1065826416015625,0.030487060546875
1700516427419543300,0.967543212890625,-1.1074066162109375,-0.096038818359375,0.0914459228515625
1700516427429553200,0.97755322265625,-1.02032470703125,-0.1165313720703125,0.037811279296875
1700516427439563300,0.987563232421875,-1.0006103515625,-0.1233062744140625,0.0704345703125
1700516427449573400,0.997573486328125,-0.719268798828125,-0.1403045654296875,0.009613037109375
1700516427459583200,1.007583251953125,-1.119171142578125,-0.2249298095703125,0.0547027587890625
1700516427469593300,1.01759326171875,-1.13702392578125,0.0062255859375,0.060760498046875
1700516427479603200,1.027603271484375,-0.925567626953125,-0.0386199951171875,0.0555267333984375
1700516427489613300,1.03761328125,-0.799713134765625,-0.313629150390625,0.0377960205078125
1700516427499623400,1.04762353515625,-1.0933380126953125,-0.108154296875,0.0262298583984375
1700516427509633300,1.05763330078125,-1.094024658203125,-0.0897064208984375,0.0860595703125
1700516427519643400,1.067643310546875,-1.0248565673828125,-0.1185150146484375,0.0323333740234375
1700516427529653200,1.0776533203125,-1.0130462646484375,-0.1231231689453125,0.0688018798828125
1700516427539663400,1.087663330078125,-0.7102508544921875,-0.146209716796875,0.0052032470703125
1700516427549673200,1.097673095703125,-1.1122283935546875,-0.21685791015625,0.0499725341796875
1700516427559683300,1.107683349609375,-1.1480712890625,-0.00732421875,0.0660552978515625
1700516427569693400,1.117693359375,-0.9283294677734375,-0.033935546875,0.0490264892578125
1700516427579703300,1.127703369140625,-0.792388916015625,-0.3112945556640625,0.043365478515625
1700516427589713400,1.13771337890625,-1.0938262939453125,-0.115509033203125,0.024261474609375
1700516427599723300,1.14772314453125,-1.1014556884765625,-0.091705322265625,0.093292236328125
1700516427609733400,1.1577333984375,-1.0154876708984375,-0.116424560546875,0.0304718017578125
1700516427619743200,1.1677431640625,-1.017059326171875,-0.12896728515625,0.0721893310546875
1700516427629753300,1.17775341796875,-0.7028045654296875,-0.1457061767578125,0.0020599365234375
1700516427639763500,1.187763427734375,-1.1110382080078125,-0.215850830078125,0.0509490966796875
1700516427649773300,1.197773193359375,-1.155120849609375,-0.011322021484375,0.071533203125
1700516427659783400,1.207783447265625,-0.9159088134765625,-0.033721923828125,0.0446319580078125
1700516427669793300,1.217793212890625,-0.788482666015625,-0.3206024169921875,0.0470123291015625
1700516427679803400,1.227803466796875,-1.10406494140625,-0.1100616455078125,0.02227783203125
1700516427689813200,1.237813232421875,-1.1135406494140625,-0.094329833984375,0.09814453125
1700516427699823400,1.2478232421875,-1.0156097412109375,-0.104766845703125,0.031158447265625
1700516427709833500,1.25783349609375,-1.0006256103515625,-0.148406982421875,0.078521728515625
1700516427719843300,1.26784326171875,-0.716827392578125,-0.137115478515625,-0.0040283203125
1700516427729853400,1.277853515625,-1.11187744140625,-0.210968017578125,0.059478759765625
1700516427739862300,1.2878623046875,-1.155029296875,-0.0135650634765625,0.0641021728515625
1700516427749872000,1.2978720703125,-0.926422119140625,-0.04168701171875,0.045562744140625
1700516427759882200,1.30788232421875,-0.75787353515625,-0.29864501953125,0.041900634765625
1700516427769892000,1.31789208984375,-1.1029052734375,-0.120513916015625,0.0246429443359375
1700516427779902200,1.327902099609375,-1.128936767578125,-0.0960693359375,0.09820556640625
1700516427789912300,1.337912353515625,-1.005035400390625,-0.0921173095703125,0.0270843505859375
1700516427799922200,1.347922119140625,-0.9936676025390625,-0.15576171875,0.0759735107421875
1700516427809932300,1.357932373046875,-0.7044525146484375,-0.1346893310546875,-0.0068817138671875
1700516427819942100,1.367942138671875,-1.125518798828125,-0.2166748046875,0.0622406005859375
1700516427829952300,1.3779521484375,-1.1655120849609375,-0.01092529296875,0.06207275390625
1700516427839962400,1.38796240234375,-0.92535400390625,-0.036163330078125,0.0493621826171875
1700516427849972200,1.39797216796875,-0.762115478515625,-0.313079833984375,0.0380706787109375
1700516427859982300,1.407982421875,-1.095977783203125,-0.1148529052734375,0.02801513671875
1700516427869992200,1.4179921875,-1.1424560546875,-0.0981292724609375,0.0957794189453125
1700516427880002300,1.428002197265625,-1.0139617919921875,-0.09747314453125,0.0315399169921875
1700516427890012200,1.43801220703125,-0.98681640625,-0.1514739990234375,0.073272705078125
1700516427900022300,1.448022216796875,-0.70654296875,-0.13385009765625,-0.0028228759765625
1700516427910032400,1.458032470703125,-1.1175079345703125,-0.21820068359375,0.0622711181640625
1700516427920042200,1.468042236328125,-1.170684814453125,-0.0226287841796875,0.0667266845703125
1700516427930052400,1.47805224609375,-0.9259796142578125,-0.028839111328125,0.0458984375
1700516427940062200,1.488062255859375,-0.76275634765625,-0.3050079345703125,0.0424652099609375
1700516427950072300,1.498072265625,-1.07952880859375,-0.1232147216796875,0.0220489501953125
1700516427960082200,1.508082275390625,-1.1427154541015625,-0.104217529296875,0.099273681640625
1700516427970092300,1.51809228515625,-1.0052337646484375,-0.0960540771484375,0.0235595703125
1700516427980102400,1.528102294921875,-1.0085296630859375,-0.1426239013671875,0.0754547119140625
1700516427990112300,1.5381123046875,-0.701141357421875,-0.1303863525390625,-0.0015106201171875
1700516428000122400,1.548122314453125,-1.0951690673828125,-0.22552490234375,0.0528411865234375
1700516428010132200,1.55813232421875,-1.18878173828125,-0.0342559814453125,0.075103759765625
1700516428020142300,1.568142333984375,-0.928802490234375,-0.0057830810546875,0.0391998291015625
1700516428030152400,1.57815234375,-0.7725982666015625,-0.3188629150390625,0.0495147705078125
1700516428040162300,1.588162353515625,-1.0616607666015625,-0.119720458984375,0.0140228271484375
1700516428050172400,1.59817236328125,-1.1549835205078125,-0.10479736328125,0.1001129150390625
1700516428060182300,1.608182373046875,-1.0045623779296875,-0.0985565185546875,0.0237884521484375
1700516428070192400,1.6181923828125,-1.01800537109375,-0.1358795166015625,0.0709381103515625
1700516428080202200,1.6282021484375,-0.69256591796875,-0.1360931396484375,0.0091400146484375
1700516428090212400,1.63821240234375,-1.06842041015625,-0.225677490234375,0.041015625
1700516428100221200,1.64822119140625,-1.2125244140625,-0.0374908447265625,0.08331298828125
1700516428110231000,1.65823095703125,-0.9297027587890625,0.013580322265625,0.0329437255859375
1700516428120241200,1.6682412109375,-0.7728271484375,-0.3378143310546875,0.0593414306640625
1700516428130251300,1.678251220703125,-1.0486907958984375,-0.1209716796875,0.003448486328125
1700516428140261000,1.68826123046875,-1.156280517578125,-0.096771240234375,0.1035919189453125
1700516428150271200,1.698271240234375,-1.015289306640625,-0.097503662109375,0.02825927734375
1700516428160281000,1.708281005859375,-1.004669189453125,-0.1578369140625,0.0741729736328125
1700516428170292000,1.7182919921875,-0.7113189697265625,-0.129058837890625,-0.004669189453125
1700516428180301800,1.7283017578125,-1.069183349609375,-0.209259033203125,0.0508270263671875
1700516428190312000,1.73831201171875,-1.1812896728515625,-0.06109619140625,0.0737152099609375
1700516428200321800,1.74832177734375,-0.9583740234375,0.01165771484375,0.02862548828125
1700516428210332000,1.758331787109375,-0.757598876953125,-0.3128204345703125,0.05902099609375
1700516428220342000,1.768342041015625,-1.0434417724609375,-0.131866455078125,0.005401611328125
1700516428230352000,1.778351806640625,-1.1690826416015625,-0.1060943603515625,0.1026458740234375
1700516428240362000,1.788362060546875,-1.0040283203125,-0.09259033203125,0.0153961181640625
1700516428250371800,1.798371826171875,-1.0157928466796875,-0.1451568603515625,0.076690673828125
1700516428260382000,1.8083818359375,-0.7200775146484375,-0.1263427734375,0.004425048828125
1700516428270392000,1.81839208984375,-1.048980712890625,-0.2283782958984375,0.0439300537109375
1700516428280402000,1.82840185546875,-1.2022247314453125,-0.0560302734375,0.0805511474609375
1700516428290412000,1.838412109375,-0.955108642578125,0.0233917236328125,0.030731201171875
1700516428300422000,1.848421875,-0.77130126953125,-0.3186492919921875,0.0597381591796875
1700516428310432000,1.858431884765625,-1.027130126953125,-0.12994384765625,0.00384521484375
1700516428320441900,1.86844189453125,-1.171142578125,-0.1046295166015625,0.105560302734375
1700516428330452000,1.878451904296875,-0.9945526123046875,-0.09332275390625,0.0161285400390625
1700516428340462000,1.888462158203125,-1.0160369873046875,-0.1521453857421875,0.0760955810546875
1700516428350472000,1.898471923828125,-0.738494873046875,-0.1158905029296875,0.000701904296875
1700516428360482000,1.90848193359375,-1.0326995849609375,-0.218841552734375,0.0486907958984375
1700516428370492000,1.918491943359375,-1.187164306640625,-0.0893707275390625,0.0756988525390625
1700516428380502000,1.928501953125,-0.977294921875,0.037322998046875,0.0237274169921875
1700516428390511900,1.938511962890625,-0.78448486328125,-0.2910614013671875,0.0653076171875
1700516428400522000,1.94852197265625,-0.9970550537109375,-0.1580047607421875,0.001220703125
1700516428410532000,1.958531982421875,-1.178131103515625,-0.1084442138671875,0.1045989990234375
1700516428420542000,1.9685419921875,-0.9861297607421875,-0.0934906005859375,0.007568359375
1700516428430552000,1.978552001953125,-1.0413818359375,-0.150115966796875,0.0795440673828125
1700516428440561000,1.988560791015625,-0.7556915283203125,-0.108795166015625,0.018951416015625
1700516428450570800,1.99857080078125,-0.9474639892578125,-0.2446746826171875,0.0313568115234375
1700516428460580900,2.008580810546875,-1.230621337890625,-0.095184326171875,0.088714599609375
1700516428470590700,2.0185908203125,-0.9824371337890625,0.053436279296875,0.0230865478515625
1700516428480600800,2.028600830078125,-0.804351806640625,-0.29534912109375,0.0806732177734375
1700516428490611000,2.03861083984375,-0.9566802978515625,-0.177825927734375,-0.0088043212890625
1700516428500620800,2.048620849609375,-1.170318603515625,-0.09271240234375,0.1063690185546875
1700516428510631000,2.058630859375,-1.016998291015625,-0.1132049560546875,0.0227813720703125
1700516428520640800,2.068640869140625,-1.044525146484375,-0.1363983154296875,0.0734100341796875
1700516428530651000,2.07865087890625,-0.7811431884765625,-0.1157989501953125,0.0229034423828125
1700516428540660700,2.08866064453125,-0.92120361328125,-0.223480224609375,0.0306243896484375
1700516428550670800,2.0986708984375,-1.2015533447265625,-0.1291046142578125,0.08343505859375
1700516428560681000,2.108680908203125,-1.0189666748046875,0.06085205078125,0.0216827392578125
1700516428570690800,2.11869091796875,-0.823333740234375,-0.250457763671875,0.07647705078125
1700516428580701000,2.128700927734375,-0.916778564453125,-0.2132568359375,-0.00677490234375
1700516428590710800,2.138710693359375,-1.1777801513671875,-0.076629638671875,0.099884033203125
1700516428600721000,2.148720947265625,-1.0293426513671875,-0.106414794921875,0.0164642333984375
1700516428610731000,2.15873095703125,-1.0456085205078125,-0.1580047607421875,0.075927734375
1700516428620740900,2.168740966796875,-0.814666748046875,-0.0880889892578125,0.0275115966796875
1700516428630751000,2.1787509765625,-0.8600921630859375,-0.2378387451171875,0.019775390625
1700516428640760800,2.1887607421875,-1.228271484375,-0.1383514404296875,0.0873870849609375
1700516428650771000,2.19877099609375,-1.03692626953125,0.0738677978515625,0.0225067138671875
1700516428660780800,2.20878076171875,-0.8264007568359375,-0.24261474609375,0.0774383544921875
1700516428670791000,2.218791015625,-0.8768463134765625,-0.238983154296875,-0.0064697265625
1700516428680801000,2.228801025390625,-1.1870269775390625,-0.0696868896484375,0.0973968505859375
1700516428690811000,2.238810791015625,-1.0407257080078125,-0.11773681640625,0.0309600830078125
1700516428700821000,2.248821044921875,-1.030120849609375,-0.164215087890625,0.0709991455078125
1700516428710830800,2.258830810546875,-0.8338470458984375,-0.0808868408203125,0.031036376953125
1700516428720841000,2.268841064453125,-0.8334197998046875,-0.2291107177734375,0.019317626953125
1700516428730850800,2.278850830078125,-1.2236785888671875,-0.1583099365234375,0.08502197265625
1700516428740861000,2.28886083984375,-1.042755126953125,0.070098876953125,0.0281219482421875
1700516428750871000,2.29887109375,-0.8381500244140625,-0.2071685791015625,0.0786285400390625
1700516428760881000,2.308880859375,-0.8569488525390625,-0.28240966796875,0.0004730224609375
1700516428770891000,2.31889111328125,-1.1725616455078125,-0.0568084716796875,0.0916290283203125
1700516428780900900,2.32890087890625,-1.059234619140625,-0.119720458984375,0.044677734375
1700516428790911000,2.338910888671875,-1.0289764404296875,-0.15606689453125,0.0668487548828125
1700516428800921000,2.348921142578125,-0.861907958984375,-0.110931396484375,0.046234130859375
1700516428810930000,2.358929931640625,-0.821533203125,-0.1952362060546875,0.014190673828125
1700516428820940000,2.36893994140625,-1.20013427734375,-0.1848907470703125,0.0867156982421875
1700516428830950000,2.378949951171875,-1.072784423828125,0.051116943359375,0.0327301025390625
1700516428840959700,2.388959716796875,-0.8634796142578125,-0.159759521484375,0.076324462890625
1700516428850969900,2.398969970703125,-0.8215179443359375,-0.30596923828125,0.0091552734375
1700516428860979700,2.408979736328125,-1.160430908203125,-0.06072998046875,0.07708740234375
1700516428870989800,2.41898974609375,-1.08013916015625,-0.1124114990234375,0.053466796875
1700516428880999700,2.428999755859375,-1.015106201171875,-0.17034912109375,0.0621490478515625
1700516428891009800,2.439009765625,-0.8969268798828125,-0.073944091796875,0.04412841796875
1700516428901020000,2.44902001953125,-0.7805938720703125,-0.2039337158203125,0.0095977783203125
1700516428911029800,2.45902978515625,-1.1952362060546875,-0.1911163330078125,0.08184814453125
1700516428921040000,2.469039794921875,-1.0819244384765625,0.0389251708984375,0.0394439697265625
1700516428931049700,2.4790498046875,-0.88336181640625,-0.117462158203125,0.06439208984375
1700516428941059800,2.489059814453125,-0.811309814453125,-0.3289642333984375,0.016448974609375
1700516428951070000,2.499070068359375,-1.1345367431640625,-0.0582427978515625,0.0615386962890625
1700516428961079800,2.509079833984375,-1.0968017578125,-0.1188201904296875,0.06329345703125
1700516428971090000,2.51908984375,-1.010528564453125,-0.1548309326171875,0.0524444580078125
1700516428981099800,2.529099853515625,-0.927703857421875,-0.0899810791015625,0.048492431640625
1700516428991110000,2.53910986328125,-0.7533721923828125,-0.1779022216796875,0.00811767578125
1700516429001119700,2.54911962890625,-1.1705169677734375,-0.2107696533203125,0.073394775390625
1700516429011129900,2.5591298828125,-1.10760498046875,0.0021209716796875,0.0533599853515625
1700516429021140000,2.569139892578125,-0.897186279296875,-0.058685302734375,0.0519561767578125
1700516429031149800,2.57914990234375,-0.8069915771484375,-0.35003662109375,0.031494140625
1700516429041160000,2.589159912109375,-1.109771728515625,-0.0783233642578125,0.0483856201171875
1700516429051169800,2.599169677734375,-1.111236572265625,-0.1095123291015625,0.0804901123046875
1700516429061180000,2.609179931640625,-1.00347900390625,-0.1456298828125,0.03814697265625
1700516429071189800,2.619189697265625,-0.9657745361328125,-0.115081787109375,0.064208984375
1700516429081199900,2.629199951171875,-0.74322509765625,-0.1429443359375,0.006500244140625
1700516429091210000,2.6392099609375,-1.124053955078125,-0.2288818359375,0.06732177734375
1700516429101219800,2.6492197265625,-1.1352996826171875,-0.026031494140625,0.065185546875
1700516429111230000,2.65922998046875,-0.9194793701171875,-0.012969970703125,0.0421295166015625
1700516429121239800,2.66923974609375,-0.7940521240234375,-0.351837158203125,0.044525146484375
1700516429131250000,2.67925,-1.07391357421875,-0.091705322265625,0.0313873291015625
1700516429141260000,2.689260009765625,-1.13507080078125,-0.10809326171875,0.0909576416015625
1700516429151270000,2.699269775390625,-0.996734619140625,-0.1381072998046875,0.026153564453125
1700516429161280000,2.709280029296875,-0.9946136474609375,-0.1135101318359375,0.0692291259765625
1700516429171293700,2.719293701171875,-0.7284698486328125,-0.1310272216796875,0.00775146484375
1700516429181303800,2.7293037109375,-1.082061767578125,-0.23870849609375,0.0554962158203125
1700516429191313700,2.739313720703125,-1.167205810546875,-0.041168212890625,0.07611083984375
1700516429201323800,2.74932373046875,-0.940032958984375,0.0203704833984375,0.0291595458984375
1700516429211333600,2.759333740234375,-0.7910003662109375,-0.356170654296875,0.05645751953125
1700516429221343700,2.76934375,-1.037261962890625,-0.110870361328125,0.0164947509765625
1700516429231353900,2.779353759765625,-1.1595611572265625,-0.0971832275390625,0.098846435546875
1700516429241363700,2.78936376953125,-1.0046234130859375,-0.129730224609375,0.0178985595703125
1700516429251373800,2.799373779296875,-1.002685546875,-0.1290130615234375,0.0736541748046875
1700516429261383700,2.8093837890625,-0.7390289306640625,-0.1185455322265625,0.005950927734375
1700516429271393800,2.819393798828125,-1.0415496826171875,-0.2327880859375,0.0499725341796875
1700516429281404000,2.82940380859375,-1.1822509765625,-0.0804443359375,0.0842742919921875
1700516429291413800,2.839413818359375,-0.9576263427734375,0.051513671875,0.0182037353515625
1700516429301423900,2.849423828125,-0.7909088134765625,-0.342132568359375,0.0657501220703125
1700516429311433700,2.859433837890625,-1.0015411376953125,-0.141937255859375,0.0069732666015625
1700516429321443800,2.86944384765625,-1.1683197021484375,-0.09307861328125,0.104827880859375
1700516429331453700,2.87945361328125,-1.0054779052734375,-0.12646484375,0.01397705078125
1700516429341463800,2.8894638671875,-1.0117950439453125,-0.1380157470703125,0.080047607421875
1700516429351474000,2.899473876953125,-0.7621612548828125,-0.1129608154296875,0.0086517333984375
1700516429361483500,2.9094833984375,-1.00103759765625,-0.2325897216796875,0.0438385009765625
1700516429371493600,2.91949365234375,-1.1800079345703125,-0.1027069091796875,0.0895538330078125
1700516429381503500,2.92950341796875,-0.984619140625,0.0520782470703125,0.0209197998046875
1700516429391513600,2.939513671875,-0.8084869384765625,-0.2954254150390625,0.0730438232421875
1700516429401523700,2.949523681640625,-0.96746826171875,-0.176513671875,0.0013427734375
1700516429411533600,2.959533447265625,-1.16839599609375,-0.08502197265625,0.10894775390625
1700516429421543700,2.969543701171875,-1.01373291015625,-0.1183929443359375,0.00640869140625
1700516429431553500,2.979553466796875,-1.0191192626953125,-0.1486968994140625,0.0847930908203125
1700516429441563600,2.989563720703125,-0.792388916015625,-0.096435546875,0.0152587890625
1700516429451573500,2.999573486328125,-0.9344482421875,-0.243011474609375,0.0355987548828125
1700516429461583600,3.00958349609375,-1.195037841796875,-0.1222686767578125,0.0855255126953125
1700516429471593700,3.01959375,-1.0102081298828125,0.0657501220703125,0.0174560546875
1700516429481603600,3.029603515625,-0.82611083984375,-0.2688446044921875,0.07666015625
1700516429491613700,3.03961376953125,-0.9169158935546875,-0.2169952392578125,0.0011138916015625
1700516429501623600,3.04962353515625,-1.1744232177734375,-0.074920654296875,0.099822998046875
1700516429511633700,3.059633544921875,-1.0272216796875,-0.1236724853515625,0.0183868408203125
1700516429521643500,3.0696435546875,-1.0208892822265625,-0.1671600341796875,0.0816802978515625
1700516429531653600,3.079653564453125,-0.8230133056640625,-0.0743408203125,0.02313232421875
1700516429541663700,3.089663818359375,-0.8822479248046875,-0.242034912109375,0.024383544921875
1700516429551673600,3.099673583984375,-1.2084503173828125,-0.145477294921875,0.0897064208984375
1700516429561683700,3.10968359375,-1.0246124267578125,0.06451416015625,0.0186309814453125
1700516429571693600,3.119693603515625,-0.8375396728515625,-0.224639892578125,0.0783538818359375
1700516429581703700,3.12970361328125,-0.8828887939453125,-0.260009765625,0.00311279296875
1700516429591713800,3.1397138671875,-1.1699981689453125,-0.058868408203125,0.09039306640625
1700516429601723600,3.1497236328125,-1.041900634765625,-0.1298675537109375,0.0366973876953125
1700516429611733800,3.159733642578125,-1.0172119140625,-0.17730712890625,0.0759735107421875
1700516429621743600,3.16974365234375,-0.8602294921875,-0.0544586181640625,0.0353851318359375
1700516429631753700,3.179753662109375,-0.8262939453125,-0.244476318359375,0.0194549560546875
1700516429641763600,3.189763671875,-1.21881103515625,-0.1592254638671875,0.0904388427734375
1700516429651773700,3.199773681640625,-1.0468597412109375,0.0624542236328125,0.0313568115234375
1700516429661783800,3.20978369140625,-0.845611572265625,-0.192718505859375,0.075775146484375
1700516429671793700,3.219793701171875,-0.856689453125,-0.3002471923828125,0.0073699951171875
1700516429681803800,3.2298037109375,-1.1697998046875,-0.041473388671875,0.0800323486328125
1700516429691813600,3.239813720703125,-1.062347412109375,-0.129547119140625,0.0489959716796875
1700516429701823700,3.24982373046875,-1.0092926025390625,-0.177276611328125,0.0675506591796875
1700516429711833600,3.25983349609375,-0.870208740234375,-0.0672607421875,0.0371856689453125
1700516429721843700,3.26984375,-0.80792236328125,-0.2240142822265625,0.0119171142578125
1700516429731853800,3.279853759765625,-1.21624755859375,-0.1742706298828125,0.0879974365234375
1700516429741863700,3.28986376953125,-1.06036376953125,0.058868408203125,0.029388427734375
1700516429751873800,3.299873779296875,-0.8443450927734375,-0.16864013671875,0.0726318359375
1700516429761883600,3.309883544921875,-0.8447418212890625,-0.318328857421875,0.0082855224609375
1700516429771893800,3.319893798828125,-1.176055908203125,-0.041534423828125,0.076202392578125
1700516429781903600,3.329903564453125,-1.0694580078125,-0.117279052734375,0.0550994873046875
1700516429791913700,3.339913818359375,-0.999237060546875,-0.1674957275390625,0.0556640625
1700516429801923800,3.349923828125,-0.8734588623046875,-0.1050872802734375,0.0533905029296875
1700516429811933700,3.35993359375,-0.820709228515625,-0.18896484375,-0.0015411376953125
1700516429821943800,3.36994384765625,-1.202239990234375,-0.1828765869140625,0.093353271484375
1700516429831954700,3.37995458984375,-1.06976318359375,0.0468902587890625,0.027435302734375
1700516429841964800,3.38996484375,-0.85260009765625,-0.1557159423828125,0.0699615478515625
1700516429851974700,3.399974609375,-0.824249267578125,-0.31048583984375,0.012451171875
1700516429861984800,3.40998486328125,-1.16680908203125,-0.0548248291015625,0.0727996826171875
1700516429871994600,3.41999462890625,-1.0858917236328125,-0.113555908203125,0.056365966796875
1700516429882004700,3.430004638671875,-0.9956817626953125,-0.1627655029296875,0.0509033203125
1700516429892014800,3.440014892578125,-0.895477294921875,-0.09100341796875,0.059844970703125
1700516429902024700,3.450024658203125,-0.7805023193359375,-0.1981353759765625,-0.00225830078125
1700516429912034800,3.460034912109375,-1.19366455078125,-0.1868438720703125,0.0802764892578125
1700516429922044700,3.470044677734375,-1.1030426025390625,0.0410919189453125,0.04638671875
1700516429932054800,3.4800546875,-0.880584716796875,-0.1258087158203125,0.057098388671875
1700516429942064600,3.490064697265625,-0.80377197265625,-0.3144378662109375,0.022705078125
1700516429952074800,3.50007470703125,-1.1210174560546875,-0.066802978515625,0.0488433837890625
1700516429962084900,3.5100849609375,-1.123504638671875,-0.11273193359375,0.08758544921875
1700516429972094700,3.5200947265625,-1.03326416015625,-0.1157379150390625,0.02764892578125
1700516429982104800,3.530104736328125,-0.92376708984375,-0.1257781982421875,0.072235107421875
1700516429992114700,3.54011474609375,-0.71600341796875,-0.1695556640625,-0.0035858154296875
1700516430002124800,3.550124755859375,-1.1322479248046875,-0.208587646484375,0.0660858154296875
1700516430012135000,3.560135009765625,-1.16351318359375,0.0103607177734375,0.0661773681640625
1700516430022144800,3.570144775390625,-0.935760498046875,-0.065948486328125,0.0565948486328125
1700516430032155000,3.58015478515625,-0.761016845703125,-0.32318115234375,0.035186767578125
1700516430042164700,3.590164794921875,-1.033721923828125,-0.1015625,0.0204315185546875
1700516430052174800,3.6001748046875,-1.12957763671875,-0.122100830078125,0.098358154296875
1700516430062185700,3.610185791015625,-1.0706634521484375,-0.0856475830078125,0.029022216796875
1700516430072195800,3.62019580078125,-0.9758148193359375,-0.1287689208984375,0.0700531005859375
1700516430082205700,3.630205810546875,-0.7042999267578125,-0.1486968994140625,0.004425048828125
1700516430092215800,3.6402158203125,-1.078826904296875,-0.205078125,0.0330810546875
1700516430102225700,3.6502255859375,-1.17523193359375,-0.0308380126953125,0.0674285888671875
1700516430112235800,3.66023583984375,-0.9521484375,-0.017730712890625,0.0293426513671875
1700516430122246000,3.670245849609375,-0.793548583984375,-0.2863311767578125,0.04296875
1700516430132255700,3.680255859375,-1.0545654296875,-0.104278564453125,0.005218505859375
1700516430142265900,3.690265869140625,-1.1379852294921875,-0.1026458740234375,0.102142333984375
1700516430152275700,3.700275634765625,-1.0535736083984375,-0.0897064208984375,0.0118560791015625
1700516430162285800,3.710285888671875,-0.9788055419921875,-0.1323394775390625,0.05780029296875
1700516430172296000,3.7202958984375,-0.662017822265625,-0.1310577392578125,0.0064239501953125
1700516430182305800,3.730305908203125,-1.0669708251953125,-0.2216949462890625,0.0283203125
1700516430192316000,3.74031591796875,-1.2239990234375,-0.0243377685546875,0.080657958984375
1700516430202325800,3.75032568359375,-0.95196533203125,0.0254364013671875,0.0345916748046875
1700516430212335900,3.7603359375,-0.7730865478515625,-0.3306732177734375,0.0574188232421875
1700516430222346800,3.7703466796875,-1.0269775390625,-0.117645263671875,0.0037078857421875
1700516430232356900,3.78035693359375,-1.1666259765625,-0.1083526611328125,0.1193695068359375
1700516430242366700,3.79036669921875,-1.0479278564453125,-0.09100341796875,0.025115966796875
1700516430252376800,3.800376953125,-1.0067291259765625,-0.14215087890625,0.06768798828125
1700516430262386700,3.81038671875,-0.67974853515625,-0.1453399658203125,0.0247650146484375
1700516430272396800,3.820396728515625,-1.004302978515625,-0.2217254638671875,0.035491943359375
1700516430282407000,3.830406982421875,-1.2357025146484375,-0.054901123046875,0.0867919921875
1700516430292416800,3.840416748046875,-1.001495361328125,0.0400543212890625,0.04071044921875
1700516430302427000,3.850427001953125,-0.7666168212890625,-0.314788818359375,0.0646209716796875
1700516430312436700,3.860436767578125,-0.9580535888671875,-0.1343231201171875,-0.0079803466796875
1700516430322446800,3.87044677734375,-1.187530517578125,-0.103057861328125,0.1165924072265625
1700516430332456700,3.880456787109375,-1.0580902099609375,-0.0837249755859375,0.0292510986328125
1700516430342466800,3.890466796875,-1.02685546875,-0.13043212890625,0.0637969970703125
1700516430352477000,3.900476806640625,-0.6788177490234375,-0.1300506591796875,0.0174713134765625
1700516430362487800,3.91048779296875,-0.96990966796875,-0.22625732421875,0.0250701904296875
1700516430372498000,3.920497802734375,-1.253692626953125,-0.0591888427734375,0.076751708984375
1700516430382507800,3.9305078125,-1.0127410888671875,0.0549774169921875,0.022552490234375
1700516430392518000,3.940517822265625,-0.7683563232421875,-0.30816650390625,0.06463623046875
1700516430402527700,3.95052783203125,-0.934600830078125,-0.15521240234375,-0.0183563232421875
1700516430412537900,3.960537841796875,-1.1880035400390625,-0.087066650390625,0.092926025390625
1700516430422547700,3.970547607421875,-1.06787109375,-0.077484130859375,0.02099609375
1700516430432557800,3.980557861328125,-1.022735595703125,-0.1295166015625,0.058868408203125
1700516430442568000,3.99056787109375,-0.7043609619140625,-0.1196746826171875,0.001373291015625
1700516430452577800,4.000577880859375,-0.9648590087890625,-0.20184326171875,0.028656005859375
1700516430462588000,4.010587890625,-1.2265472412109375,-0.091827392578125,0.0691070556640625
1700516430472598800,4.020598876953125,-1.0359649658203125,0.06292724609375,0.0138702392578125
1700516430482609000,4.03060888671875,-0.774261474609375,-0.257904052734375,0.072845458984375
1700516430492618800,4.04061865234375,-0.92938232421875,-0.1801300048828125,-0.0162353515625
1700516430502628900,4.05062890625,-1.1945648193359375,-0.1039581298828125,0.097198486328125
1700516430512638700,4.060638671875,-1.03216552734375,-0.06060791015625,0.007171630859375
1700516430522648800,4.07064892578125,-1.0498809814453125,-0.1543426513671875,0.07879638671875
1700516430532658700,4.08065869140625,-0.7468719482421875,-0.1103973388671875,0.017242431640625
1700516430542668800,4.090668701171875,-0.8866119384765625,-0.22344970703125,0.020233154296875
1700516430552679000,4.100678955078125,-1.2624359130859375,-0.13360595703125,0.0758056640625
1700516430562688800,4.110688720703125,-1.0172882080078125,0.06982421875,0.023712158203125
1700516430572700000,4.120699951171875,-0.802520751953125,-0.249298095703125,0.0759124755859375
1700516430582709800,4.130709716796875,-0.9226531982421875,-0.217559814453125,-0.0062255859375
1700516430592720000,4.140719970703125,-1.17816162109375,-0.102294921875,0.10028076171875
1700516430602729700,4.150729736328125,-1.01800537109375,-0.08563232421875,0.024932861328125
1700516430612739800,4.16073974609375,-1.0666656494140625,-0.1516571044921875,0.076507568359375
1700516430622749700,4.170749755859375,-0.7808990478515625,-0.1078948974609375,0.0323028564453125
1700516430632759800,4.180759765625,-0.8325958251953125,-0.2024078369140625,0.020111083984375
1700516430642770000,4.19077001953125,-1.2552947998046875,-0.1583404541015625,0.0746917724609375
1700516430652779800,4.20077978515625,-1.0426025390625,0.0765380859375,0.0333404541015625
1700516430662790700,4.210790771484375,-0.813934326171875,-0.2078094482421875,0.07598876953125
1700516430672800800,4.22080078125,-0.881622314453125,-0.230682373046875,0.000213623046875
1700516430682811000,4.230810791015625,-1.191375732421875,-0.0814666748046875,0.0922393798828125
1700516430692820700,4.24082080078125,-1.0459136962890625,-0.0784454345703125,0.0403900146484375
1700516430702830800,4.250830810546875,-1.0532684326171875,-0.1318511962890625,0.0666961669921875
1700516430712840700,4.2608408203125,-0.822021484375,-0.0989532470703125,0.0343475341796875
1700516430722850800,4.270850830078125,-0.810455322265625,-0.178375244140625,0.012969970703125
1700516430732861000,4.28086083984375,-1.2391357421875,-0.1658782958984375,0.0726470947265625
1700516430742870800,4.290870849609375,-1.0785064697265625,0.0861053466796875,0.0255279541015625
1700516430752881700,4.300881591796875,-0.8364105224609375,-0.169281005859375,0.073638916015625
1700516430762891800,4.310891845703125,-0.836273193359375,-0.2542724609375,-0.005462646484375
1700516430772902000,4.32090185546875,-1.1873626708984375,-0.0755615234375,0.069183349609375
1700516430782911700,4.330911865234375,-1.06329345703125,-0.08172607421875,0.0508270263671875
1700516430792921900,4.340921875,-1.063934326171875,-0.1388702392578125,0.0511016845703125
1700516430802931700,4.350931640625,-0.8405609130859375,-0.1086273193359375,0.0415191650390625
1700516430812941800,4.36094189453125,-0.7421722412109375,-0.1808319091796875,-0.001373291015625
1700516430822952700,4.37095263671875,-1.2591705322265625,-0.185089111328125,0.068145751953125
1700516430832962800,4.380962890625,-1.105194091796875,0.059906005859375,0.0402069091796875
1700516430842972700,4.39097265625,-0.8327789306640625,-0.1398468017578125,0.0637664794921875
1700516430852982800,4.400982666015625,-0.8119659423828125,-0.290252685546875,0.004974365234375
1700516430862992600,4.41099267578125,-1.177734375,-0.0916290283203125,0.075836181640625
1700516430873002800,4.421002685546875,-1.0692901611328125,-0.0869903564453125,0.0623016357421875
1700516430883012900,4.431012939453125,-1.06927490234375,-0.1334228515625,0.0439300537109375
1700516430893022700,4.441022705078125,-0.8682098388671875,-0.1207275390625,0.05426025390625
1700516430903033900,4.451033935546875,-0.70745849609375,-0.1644744873046875,0.001434326171875
1700516430913043700,4.461043701171875,-1.2287139892578125,-0.20123291015625,0.0659637451171875
1700516430923053800,4.4710537109375,-1.1284027099609375,0.0577239990234375,0.0476226806640625
1700516430933063700,4.481063720703125,-0.850250244140625,-0.112274169921875,0.0571441650390625
1700516430943073800,4.49107373046875,-0.8017730712890625,-0.302154541015625,0.016326904296875
1700516430953083600,4.501083740234375,-1.1492156982421875,-0.0864410400390625,0.049835205078125
1700516430963093800,4.51109375,-1.0685272216796875,-0.07269287109375,0.0873565673828125
1700516430973104600,4.521104736328125,-1.08837890625,-0.11346435546875,0.032012939453125
1700516430983114800,4.53111474609375,-0.87127685546875,-0.136383056640625,0.0756072998046875
1700516430993124600,4.54112451171875,-0.7010650634765625,-0.1639862060546875,-0.0113677978515625
1700516431003134700,4.551134765625,-1.2095489501953125,-0.19488525390625,0.07666015625
1700516431013144800,4.561144775390625,-1.146087646484375,0.063385009765625,0.0501708984375
1700516431023154700,4.57115478515625,-0.85736083984375,-0.1190032958984375,0.0540771484375
1700516431033164800,4.581164794921875,-0.806976318359375,-0.30963134765625,0.0235595703125
1700516431043175700,4.59117578125,-1.14654541015625,-0.0733795166015625,0.041168212890625
1700516431053185800,4.601185791015625,-1.089691162109375,-0.083404541015625,0.0796966552734375
1700516431063195600,4.611195556640625,-1.0770263671875,-0.114990234375,0.0272979736328125
1700516431073205800,4.621205810546875,-0.8427276611328125,-0.13427734375,0.0605926513671875
1700516431083215600,4.631215576171875,-0.75970458984375,-0.166229248046875,-0.0040130615234375
1700516431093225700,4.641225830078125,-1.202972412109375,-0.1810150146484375,0.074951171875
1700516431103236600,4.651236572265625,-1.119293212890625,0.0659942626953125,0.028289794921875
1700516431113246700,4.661246826171875,-0.827789306640625,-0.129150390625,0.0513458251953125
1700516431123256600,4.671256591796875,-0.8465576171875,-0.295318603515625,0.02197265625
1700516431133266700,4.6812666015625,-1.1700897216796875,-0.028839111328125,0.0526885986328125
1700516431143276800,4.69127685546875,-1.0975341796875,-0.079925537109375,0.060882568359375
1700516431153286700,4.70128662109375,-1.0548095703125,-0.13116455078125,0.035980224609375
1700516431163297800,4.7112978515625,-0.8144683837890625,-0.1202239990234375,0.06195068359375
1700516431173307100,4.72130712890625,-0.8160400390625,-0.138946533203125,-0.0078277587890625
1700516431183317200,4.731317138671875,-1.224609375,-0.1662750244140625,0.0740814208984375
1700516431193326800,4.741326904296875,-1.0928497314453125,0.0532989501953125,0.02435302734375
1700516431203337000,4.7513369140625,-0.8032684326171875,-0.1481170654296875,0.059722900390625
1700516431213347000,4.76134716796875,-0.8425445556640625,-0.2891693115234375,0.014251708984375
1700516431223358200,4.771358154296875,-1.21160888671875,-0.1021575927734375,0.0576171875
1700516431233368000,4.7813681640625,-1.0506744384765625,-0.0653076171875,0.060577392578125
1700516431243378200,4.791378173828125,-1.0418701171875,-0.137664794921875,0.0304718017578125
1700516431253388300,4.80138818359375,-0.8348388671875,-0.1349029541015625,0.0665435791015625
1700516431263398100,4.811398193359375,-0.7712860107421875,-0.1378631591796875,0.0041351318359375
1700516431273408300,4.821408203125,-1.247772216796875,-0.1971435546875,0.0887908935546875
1700516431283419100,4.831419189453125,-1.090667724609375,0.076995849609375,0.0373992919921875
1700516431293429200,4.84142919921875,-0.82061767578125,-0.145751953125,0.059844970703125
1700516431303439000,4.851439208984375,-0.843292236328125,-0.2849578857421875,0.0227508544921875
1700516431313449200,4.86144921875,-1.2010955810546875,-0.0828857421875,0.063812255859375
1700516431323459000,4.871458984375,-1.060943603515625,-0.0565032958984375,0.05133056640625
1700516431333469200,4.88146923828125,-1.0549468994140625,-0.1357574462890625,0.0322265625
1700516431343480000,4.89147998046875,-0.84423828125,-0.119293212890625,0.036865234375
1700516431353490200,4.901490234375,-0.7577056884765625,-0.1501922607421875,0.0056610107421875
1700516431363500000,4.9115,-1.238189697265625,-0.2049102783203125,0.068603515625
1700516431373510100,4.92151025390625,-1.0943603515625,0.0609283447265625,0.0263214111328125
1700516431383520000,4.93152001953125,-0.8170166015625,-0.123992919921875,0.05743408203125
1700516431393531100,4.94153125,-0.8436279296875,-0.3058013916015625,0.019866943359375
1700516431403541000,4.951541015625,-1.194732666015625,-0.09326171875,0.0672760009765625
1700516431413551000,4.961551025390625,-1.0323486328125,-0.05523681640625,0.057403564453125
1700516431423561200,4.971561279296875,-1.0524139404296875,-0.132904052734375,0.0341949462890625
1700516431433571000,4.981571044921875,-0.8709564208984375,-0.1435546875,0.0557403564453125
1700516431443581200,4.991581298828125,-0.770233154296875,-0.1326446533203125,-0.007171630859375
1700516431453592000,5.001592041015625,-1.2244720458984375,-0.203521728515625,0.0765228271484375
1700516431463602200,5.011602294921875,-1.1136016845703125,0.0363006591796875,0.0240478515625
1700516431473612000,5.021612060546875,-0.812713623046875,-0.09149169921875,0.04534912109375
1700516431483622100,5.0316220703125,-0.8283538818359375,-0.291595458984375,0.024261474609375
1700516431493632000,5.041632080078125,-1.2196197509765625,-0.1050262451171875,0.0630645751953125
1700516431503643100,5.05164306640625,-1.0275115966796875,-0.0527801513671875,0.0576629638671875
1700516431513653000,5.061653076171875,-1.02197265625,-0.1333465576171875,0.0385894775390625
1700516431523663000,5.0716630859375,-0.88671875,-0.1361083984375,0.06146240234375
1700516431533673000,5.0816728515625,-0.7882232666015625,-0.1285552978515625,0.010528564453125
1700516431543683000,5.09168310546875,-1.1947784423828125,-0.2112884521484375,0.077880859375
1700516431553694000,5.10169384765625,-1.0914764404296875,0.04571533203125,0.03387451171875
1700516431563704000,5.1117041015625,-0.8707122802734375,-0.0993804931640625,0.0533905029296875
1700516431573714000,5.1217138671875,-0.7962646484375,-0.3039703369140625,0.0265350341796875
1700516431583724000,5.13172412109375,-1.1718597412109375,-0.073883056640625,0.0553741455078125
1700516431593734100,5.141734130859375,-1.0912017822265625,-0.082275390625,0.0505218505859375
1700516431603745000,5.1517451171875,-1.0241546630859375,-0.160003662109375,0.041778564453125
1700516431613755000,5.1617548828125,-0.9005584716796875,-0.0521697998046875,0.0387725830078125
1700516431623765000,5.171764892578125,-0.7563018798828125,-0.1855926513671875,0.014404296875
1700516431633775000,5.181775146484375,-1.1883392333984375,-0.206634521484375,0.060760498046875
1700516431643785000,5.191784912109375,-1.12139892578125,0.0401458740234375,0.051513671875
1700516431653795800,5.2017958984375,-0.8963775634765625,-0.0782928466796875,0.0364227294921875
1700516431663806000,5.211805908203125,-0.7666015625,-0.3316192626953125,0.0460357666015625
1700516431673816000,5.221816162109375,-1.1385955810546875,-0.057037353515625,0.039794921875
1700516431683826000,5.231825927734375,-1.1335906982421875,-0.093109130859375,0.0700836181640625
1700516431693837000,5.241837158203125,-1.0140533447265625,-0.1590728759765625,0.039215087890625
1700516431703847200,5.25184716796875,-0.91839599609375,-0.0548553466796875,0.04779052734375
1700516431713857300,5.261857177734375,-0.7512054443359375,-0.1549072265625,0.015625
1700516431723867100,5.2718671875,-1.1465911865234375,-0.215545654296875,0.0522308349609375
1700516431733877200,5.281877197265625,-1.1439361572265625,0.006683349609375,0.05474853515625
1700516431743888100,5.29188818359375,-0.9202423095703125,-0.00787353515625,0.022613525390625
1700516431753898200,5.301898193359375,-0.7546539306640625,-0.3478851318359375,0.0455780029296875
1700516431763908000,5.311908203125,-1.09368896484375,-0.08306884765625,0.029876708984375
1700516431773918200,5.321918212890625,-1.1701507568359375,-0.072174072265625,0.0736236572265625
1700516431783928000,5.331927978515625,-1.0174102783203125,-0.13861083984375,0.027984619140625
1700516431793939200,5.341939208984375,-0.956024169921875,-0.09332275390625,0.0557403564453125
1700516431803949000,5.351948974609375,-0.73040771484375,-0.1145172119140625,0.0207672119140625
1700516431813959200,5.361959228515625,-1.1008758544921875,-0.2321014404296875,0.0457763671875
1700516431823969000,5.371968994140625,-1.1815338134765625,-0.04266357421875,0.0703277587890625
1700516431833980200,5.381980224609375,-0.9398345947265625,0.0505523681640625,0.0129241943359375
1700516431843990000,5.391989990234375,-0.7552032470703125,-0.360809326171875,0.0568695068359375
1700516431854000000,5.402000244140625,-1.0426788330078125,-0.10992431640625,0.0203399658203125
1700516431864010000,5.412010009765625,-1.190643310546875,-0.0616607666015625,0.0779571533203125
1700516431874020000,5.42202001953125,-1.015777587890625,-0.1439971923828125,0.0189056396484375
1700516431884031000,5.432031005859375,-0.97222900390625,-0.0812530517578125,0.0485076904296875
1700516431894041000,5.442041015625,-0.7256622314453125,-0.1165618896484375,0.0201263427734375
1700516431904051000,5.452051025390625,-1.058074951171875,-0.2459716796875,0.0353546142578125
1700516431914061000,5.46206103515625,-1.1959991455078125,-0.0432586669921875,0.08526611328125
1700516431924072000,5.472072021484375,-0.9667816162109375,0.056182861328125,0.00201416015625
1700516431934082000,5.48208203125,-0.74725341796875,-0.3409881591796875,0.061737060546875
1700516431944092200,5.492092041015625,-1.0164031982421875,-0.133331298828125,0.0144195556640625
1700516431954102000,5.50210205078125,-1.2149658203125,-0.04986572265625,0.084991455078125
1700516431964112100,5.512112060546875,-1.016693115234375,-0.1431427001953125,0.023284912109375
1700516431974123000,5.522123046875,-0.9666900634765625,-0.1045684814453125,0.053375244140625
1700516431984133000,5.532133056640625,-0.733489990234375,-0.1103668212890625,0.0197296142578125
1700516431994143000,5.54214306640625,-1.053192138671875,-0.2259521484375,0.0304412841796875
1700516432004153000,5.552153076171875,-1.19989013671875,-0.075439453125,0.0855865478515625
1700516432014164000,5.5621640625,-0.9756927490234375,0.059173583984375,-0.0021209716796875
1700516432024174000,5.572174072265625,-0.744049072265625,-0.308502197265625,0.063201904296875
1700516432034184000,5.582183837890625,-0.9981842041015625,-0.1609954833984375,0.0030517578125
1700516432044194000,5.592194091796875,-1.21600341796875,-0.048919677734375,0.08160400390625
1700516432054205200,5.602205078125,-1.0155181884765625,-0.12432861328125,0.0262908935546875
1700516432064215300,5.61221533203125,-0.972900390625,-0.1211395263671875,0.0535125732421875
1700516432074225000,5.622224853515625,-0.7425537109375,-0.113861083984375,0.0388946533203125
1700516432084235000,5.632235107421875,-1.0003509521484375,-0.2344512939453125,0.035797119140625
1700516432094244900,5.642244873046875,-1.2032012939453125,-0.10980224609375,0.0887451171875
1700516432104256300,5.65225634765625,-0.9828338623046875,0.0551605224609375,0.0115814208984375
1700516432114266000,5.66226611328125,-0.7802276611328125,-0.2646942138671875,0.0645294189453125
1700516432124276200,5.672276123046875,-1.0068206787109375,-0.1981201171875,0.02447509765625
1700516432134286000,5.6822861328125,-1.1702880859375,-0.0694732666015625,0.0686187744140625
1700516432144297200,5.692297119140625,-1.0309906005859375,-0.225830078125,0.0304718017578125
1700516432154307000,5.70230712890625,-1.2085418701171875,-0.125244140625,0.0193939208984375
1700516432164317200,5.712317138671875,-0.724945068359375,0.0201263427734375,0.107818603515625
1700516432174327300,5.722327392578125,-0.7052459716796875,-0.678375244140625,-0.10736083984375
1700516432184338400,5.73233837890625,-1.4921875,0.3630523681640625,0.164703369140625
1700516432194348300,5.742348388671875,-0.888641357421875,-0.15240478515625,0.0396270751953125
1700516432204358400,5.7523583984375,-0.564483642578125,-0.64715576171875,0.0271759033203125
1700516432214368300,5.7623681640625,-1.1080780029296875,-0.0226593017578125,0.0458984375
1700516432224379400,5.77237939453125,-1.3541107177734375,0.0000762939453125,0.01959228515625
1700516432234389200,5.78238916015625,-0.9848175048828125,0.0540618896484375,0.1092376708984375
1700516432244399400,5.7923994140625,-0.551605224609375,-0.7478485107421875,0.1058349609375
1700516432254409200,5.8024091796875,-1.006866455078125,-0.108489990234375,-0.1430511474609375
1700516432264420600,5.812420654296875,-1.33819580078125,0.4758148193359375,0.172393798828125
1700516432274430500,5.822430419921875,-1.00372314453125,-0.7388916015625,0.0279693603515625
1700516432284440600,5.832440673828125,-0.640350341796875,-0.3497467041015625,-0.0240631103515625
1700516432294450200,5.8424501953125,-0.9939422607421875,0.0016326904296875,0.06915283203125
1700516432304461600,5.852461669921875,-1.31768798828125,0.2463226318359375,-0.0139617919921875
1700516432314471400,5.862471435546875,-0.73760986328125,-0.685150146484375,0.2184600830078125
1700516432324481500,5.8724814453125,-0.84991455078125,-0.52581787109375,-0.230682373046875
1700516432334491400,5.882491455078125,-1.2959442138671875,0.6655426025390625,0.1975250244140625
1700516432344502500,5.89250244140625,-0.898406982421875,-0.6293487548828125,-0.005889892578125
1700516432354512400,5.902512451171875,-1.009765625,-0.480438232421875,-0.07391357421875
1700516432364522500,5.9125224609375,-1.135833740234375,-0.12249755859375,0.1503753662109375
1700516432374532400,5.922532470703125,-1.07525634765625,0.42327880859375,0.0213470458984375
1700516432384543500,5.93254345703125,-0.390411376953125,-1.1085052490234375,0.0312347412109375
1700516432394553300,5.94255322265625,-1.5699920654296875,0.0239715576171875,-0.1073455810546875
1700516432404563500,5.9525634765625,-0.9406280517578125,0.025177001953125,0.3591766357421875
1700516432414573300,5.9625732421875,-0.6776123046875,-0.804931640625,-0.2767791748046875
1700516432424584400,5.97258447265625,-1.44921875,-0.371063232421875,0.1083984375
1700516432434594300,5.98259423828125,-0.9962921142578125,-0.0506439208984375,0.22509765625
1700516432444604400,5.9926044921875,-0.5178680419921875,-0.8573760986328125,-0.1734771728515625
1700516432454614500,6.002614501953125,-1.343597412109375,-0.149505615234375,0.126007080078125
1700516432464625400,6.01262548828125,-0.810516357421875,-0.626800537109375,0.097991943359375
1700516432474635300,6.02263525390625,-0.8611297607421875,-0.2244110107421875,-0.0155029296875
1700516432484645400,6.032645263671875,-1.065460205078125,-0.238861083984375,0.11407470703125
1700516432494656300,6.04265625,-0.870269775390625,-0.8216552734375,0.00250244140625
1700516432504666400,6.052666259765625,-0.8702545166015625,0.09033203125,-0.035675048828125
1700516432514676200,6.06267626953125,-1.2707061767578125,-0.858123779296875,0.271942138671875
1700516432524686300,6.072686279296875,-0.9704742431640625,-0.6234130859375,-0.240447998046875
1700516432534697200,6.082697265625,-0.9730224609375,0.20794677734375,0.2165679931640625
1700516432544707300,6.092707275390625,-0.651580810546875,-0.87811279296875,0.1587982177734375
1700516432554717200,6.10271728515625,-0.980316162109375,-0.3054046630859375,-0.3329010009765625
1700516432564727300,6.112727294921875,-1.1498260498046875,-0.1421661376953125,0.41583251953125
1700516432574738400,6.122738525390625,-0.7645721435546875,-1.142547607421875,-0.108856201171875
1700516432584748500,6.13274853515625,-1.3155364990234375,0.1005096435546875,-0.1124267578125
1700516432594758400,6.14275830078125,-0.6636810302734375,-0.3756103515625,0.367706298828125
1700516432604768500,6.1527685546875,-0.7529449462890625,-0.8045501708984375,-0.3795166015625
1700516432614779400,6.162779296875,-1.4114532470703125,-0.3396453857421875,0.2206878662109375
1700516432624789500,6.17278955078125,-0.823486328125,-0.9102630615234375,0.0512237548828125
1700516432634799400,6.18279931640625,-1.091552734375,-0.2427978515625,-0.1095428466796875
1700516432644809500,6.1928095703125,-0.9254302978515625,-0.663360595703125,0.2852020263671875
1700516432654820400,6.2028203125,-0.5908660888671875,-0.4697418212890625,-0.1918487548828125
1700516432664830500,6.21283056640625,-0.9194793701171875,-0.514923095703125,0.1884765625
1700516432674840600,6.222840576171875,-1.027435302734375,-1.04638671875,0.043212890625
1700516432684851500,6.2328515625,-1.023406982421875,-0.105438232421875,-0.0648345947265625
1700516432694861300,6.242861328125,-1.1236419677734375,-0.7640838623046875,0.177581787109375
1700516432704871400,6.252871337890625,-0.693145751953125,-0.402191162109375,-0.105560302734375
1700516432714881500,6.262881591796875,-0.7485198974609375,-0.328582763671875,0.1201629638671875
1700516432724892400,6.272892333984375,-0.8653411865234375,-0.7123870849609375,0.0315704345703125
1700516432734902300,6.28290234375,-0.8253021240234375,-0.3836212158203125,-0.0323944091796875
1700516432744912400,6.292912353515625,-1.435516357421875,-0.9579010009765625,0.0422210693359375
1700516432754923300,6.30292333984375,-1.3467254638671875,-0.603485107421875,0.0518798828125
1700516432764933400,6.312933349609375,-0.97393798828125,-0.7583770751953125,0.1403045654296875
1700516432774943200,6.322943115234375,-0.381256103515625,-0.514007568359375,-0.08526611328125
1700516432784953300,6.332953369140625,-0.543060302734375,-0.282562255859375,0.049072265625
1700516432794964200,6.342964111328125,-1.1259613037109375,-0.8607940673828125,0.042205810546875
1700516432804974300,6.352974365234375,-0.7701873779296875,-0.637725830078125,0.0858612060546875
1700516432814984400,6.362984375,-1.044158935546875,-0.496368408203125,-0.0167694091796875
1700516432824994300,6.372994384765625,-0.7632293701171875,-0.130523681640625,-0.0514068603515625
1700516432835005200,6.383005126953125,-1.0218048095703125,-0.5428619384765625,0.057373046875
1700516432845015300,6.393015380859375,-0.984222412109375,-0.57183837890625,0.0205230712890625
1700516432855025400,6.403025390625,-0.9702606201171875,-0.7041778564453125,-0.0076446533203125
1700516432865036500,6.41303662109375,-1.214691162109375,-0.76824951171875,-0.05419921875
1700516432875046400,6.42304638671875,-0.96258544921875,-0.6036834716796875,0.0378570556640625
1700516432885056500,6.433056396484375,-1.0844879150390625,-0.87384033203125,0.029998779296875
1700516432895066600,6.443066650390625,-0.4834747314453125,-0.455963134765625,0.0074462890625
1700516432905077500,6.453077392578125,-0.8035736083984375,-0.6371612548828125,0.099334716796875
1700516432915087400,6.46308740234375,-0.6006622314453125,-0.366455078125,-0.054534912109375
1700516432925097500,6.473097412109375,-0.758148193359375,-0.371307373046875,0.03802490234375
1700516432935108400,6.4831083984375,-1.23187255859375,-0.4952392578125,0.051666259765625
1700516432945118500,6.493118408203125,-1.3321380615234375,-0.8053436279296875,0.057525634765625
1700516432955128300,6.50312841796875,-1.0776519775390625,-0.6096038818359375,-0.0646820068359375
1700516432965138400,6.513138427734375,-0.6895751953125,-0.358428955078125,-0.0078582763671875
1700516432975149300,6.5231494140625,-1.1764678955078125,-0.970367431640625,0.0286865234375
1700516432985159400,6.533159423828125,-0.6484832763671875,-0.39569091796875,-0.0474090576171875
1700516432995169300,6.543169189453125,-0.950714111328125,-0.6809844970703125,0.067230224609375
1700516433005180400,6.553180419921875,-0.918182373046875,-0.7712554931640625,-0.05120849609375
1700516433015190300,6.563190185546875,-1.01885986328125,-0.53607177734375,0.079498291015625
1700516433025200400,6.573200439453125,-0.852752685546875,-0.2352142333984375,0.0927886962890625
1700516433035210500,6.58321044921875,-0.8607940673828125,-0.671905517578125,0.1492462158203125
1700516433045221400,6.593221435546875,-0.7415313720703125,-0.4588775634765625,-0.045013427734375
1700516433055231200,6.603231201171875,-0.792633056640625,-0.3767242431640625,-0.0078125
1700516433065241300,6.613241455078125,-1.2786865234375,-0.705291748046875,0.1290130615234375
1700516433075252200,6.623252197265625,-1.0693817138671875,-0.7761688232421875,-0.05853271484375
1700516433085262300,6.633262451171875,-1.1329345703125,-0.5290374755859375,-0.015838623046875
1700516433095272200,6.643272216796875,-0.5872802734375,-0.1841278076171875,0.0475311279296875
1700516433105283600,6.65328369140625,-0.7469940185546875,-0.6083526611328125,0.0743255615234375
1700516433115293400,6.66329345703125,-0.9268798828125,-0.6180572509765625,-0.038330078125
1700516433125303600,6.673303466796875,-1.303375244140625,-0.6166534423828125,0.0720977783203125
1700516433135313400,6.6833134765625,-1.097747802734375,-0.1001739501953125,0.047210693359375
1700516433145324500,6.693324462890625,-0.729522705078125,-0.708465576171875,0.094390869140625
1700516433155334400,6.70333447265625,-0.6703643798828125,-0.543914794921875,-0.105499267578125
1700516433165344500,6.713344482421875,-1.199981689453125,-0.6157073974609375,-0.0147552490234375
1700516433175356000,6.72335595703125,-1.1092376708984375,-0.330535888671875,-0.0046539306640625
1700516433185366000,6.733365966796875,-0.9408416748046875,-0.4388580322265625,-0.0423583984375
1700516433195375900,6.7433759765625,-0.581085205078125,-0.503875732421875,-0.020294189453125
1700516433205386800,6.75338671875,-1.012725830078125,-0.5589447021484375,-0.0547637939453125
1700516433215396900,6.76339697265625,-1.102325439453125,-0.430755615234375,0.0954132080078125
1700516433225407000,6.773406982421875,-0.8807220458984375,-0.2023773193359375,0.0286102294921875
1700516433235416800,6.783416748046875,-0.5966339111328125,-0.6086273193359375,0.058807373046875
1700516433245428000,6.793427978515625,-0.79278564453125,-0.398712158203125,-0.03472900390625
1700516433255437800,6.803437744140625,-1.17193603515625,-0.5729522705078125,0.10943603515625
1700516433265448000,6.813447998046875,-0.9311676025390625,-0.1457366943359375,-0.076934814453125
1700516433275458800,6.823458740234375,-0.9203643798828125,-0.5688018798828125,0.00140380859375
1700516433285469000,6.833468994140625,-1.04058837890625,-0.4765625,-0.07122802734375
1700516433295478800,6.843478759765625,-1.10858154296875,-0.5407257080078125,0.0220947265625
1700516433305490000,6.853489990234375,-0.934722900390625,-0.16278076171875,-0.075958251953125
1700516433315499800,6.863499755859375,-0.8895416259765625,-0.5921478271484375,0.113067626953125
1700516433325510000,6.873510009765625,-0.9571533203125,-0.403564453125,-0.0836334228515625
1700516433335519700,6.883519775390625,-1.1803741455078125,-0.7348480224609375,0.1479644775390625
1700516433345531000,6.89353076171875,-1.047576904296875,-0.0196990966796875,0.0035858154296875
1700516433355541000,6.903541015625,-1.08563232421875,-0.7671966552734375,0.2206573486328125
1700516433365551000,6.913551025390625,-0.9556121826171875,-0.2404937744140625,-0.16094970703125
1700516433375562000,6.92356201171875,-1.1059722900390625,-0.666839599609375,0.15179443359375
1700516433385571800,6.93357177734375,-0.799713134765625,0.0321502685546875,-0.0505218505859375
1700516433395582000,6.94358203125,-0.8343963623046875,-0.773651123046875,0.0428009033203125
1700516433405592800,6.9535927734375,-1.07000732421875,-0.270294189453125,-0.23187255859375
1700516433415603000,6.96360302734375,-1.1190032958984375,-0.5273590087890625,0.1376953125
1700516433425612800,6.97361279296875,-0.7405548095703125,0.0050201416015625,-0.0886993408203125
1700516433435624000,6.9836240234375,-0.714141845703125,-0.721343994140625,0.0414886474609375
1700516433445633800,6.9936337890625,-1.16229248046875,-0.4132843017578125,-0.0574188232421875
1700516433455644000,7.003643798828125,-1.07196044921875,-0.443145751953125,0.1550750732421875
1700516433465654800,7.01365478515625,-0.783935546875,-0.034210205078125,-0.075469970703125
1700516433475665000,7.023664794921875,-0.6723480224609375,-0.7762908935546875,0.08465576171875
1700516433485674800,7.0336748046875,-0.782958984375,-0.3842620849609375,-0.129791259765625
1700516433495684900,7.043684814453125,-0.9844818115234375,-0.57501220703125,0.07232666015625
1700516433505695700,7.05369580078125,-0.5436859130859375,0.08941650390625,-0.0483245849609375
1700516433515705900,7.063705810546875,-1.166351318359375,-0.7813568115234375,0.060302734375
1700516433525715700,7.0737158203125,-0.8684234619140625,-0.5643768310546875,0.036163330078125
1700516433535726800,7.083726806640625,-0.9733428955078125,-0.125213623046875,0.0246429443359375
1700516433545736700,7.09373681640625,-0.7525787353515625,-0.231658935546875,0.0664825439453125
1700516433555746800,7.103746826171875,-0.9475250244140625,-0.742218017578125,0.07464599609375
1700516433565758000,7.113758056640625,-1.1651458740234375,-0.4991302490234375,-0.0295562744140625
1700516433575768000,7.12376806640625,-1.078857421875,-0.1923828125,0.014678955078125
1700516433585778000,7.13377783203125,-0.8799285888671875,-0.6837158203125,0.0070037841796875
1700516433595789000,7.1437890625,-0.926300048828125,-0.23956298828125,-0.244903564453125
1700516433605799000,7.153798828125,-0.9730377197265625,-0.6611785888671875,0.0047454833984375
1700516433615809000,7.16380908203125,-0.83685302734375,-0.1679840087890625,-0.0180206298828125
1700516433625820000,7.17381982421875,-0.923797607421875,-0.4115753173828125,-0.037139892578125
1700516433635830000,7.183830078125,-1.428558349609375,-0.6124267578125,0.06121826171875
1700516433645840000,7.19383984375,-0.989105224609375,-0.1207733154296875,0.1129913330078125
1700516433655851000,7.20385107421875,-0.704681396484375,-0.59967041015625,0.1121368408203125
1700516433665860900,7.21386083984375,-0.919891357421875,-0.3913116455078125,-0.1635284423828125
1700516433675871000,7.22387109375,-1.3333892822265625,-0.44818115234375,0.154296875
1700516433685881900,7.2338818359375,-0.886322021484375,0.0439910888671875,-0.017181396484375
1700516433695892000,7.24389208984375,-0.72113037109375,-0.818511962890625,0.0200042724609375
1700516433705901800,7.25390185546875,-1.2162322998046875,-0.4330596923828125,-0.1806182861328125
1700516433715912000,7.263911865234375,-1.1488037109375,-0.2453765869140625,-0.0003509521484375
1700516433725922800,7.2739228515625,-0.6357421875,-0.5118255615234375,0.024627685546875
1700516433735933000,7.283932861328125,-0.6287078857421875,-0.3842010498046875,-0.1029815673828125
1700516433745942800,7.29394287109375,-1.112548828125,-0.6155242919921875,0.03277587890625
1700516433755953700,7.30395361328125,-1.0010528564453125,-0.00946044921875,-0.10174560546875
1700516433765963800,7.3139638671875,-0.9197845458984375,-0.6910247802734375,0.1742401123046875
1700516433775974000,7.323973876953125,-1.043182373046875,-0.4464111328125,-0.0545806884765625
1700516433785985000,7.333985107421875,-1.3049163818359375,-0.4176483154296875,0.1302337646484375
1700516433795995000,7.343994873046875,-1.062286376953125,-0.3823394775390625,0.1049652099609375
1700516433806005000,7.3540048828125,-0.986968994140625,-0.3832550048828125,-0.089813232421875
1700516433816016000,7.364015869140625,-1.1385650634765625,-0.67181396484375,0.131988525390625
1700516433826026000,7.37402587890625,-0.9224395751953125,0.120574951171875,-0.09100341796875
1700516433836035800,7.384035888671875,-0.684967041015625,-0.81158447265625,0.0942840576171875
1700516433846047000,7.394046875,-0.9963531494140625,-0.4846038818359375,-0.1724395751953125
1700516433856056800,7.404056884765625,-1.096435546875,-0.223297119140625,-0.049591064453125
1700516433866067000,7.41406689453125,-0.686920166015625,-0.3635711669921875,0.080078125
1700516433876077800,7.424077880859375,-0.61395263671875,-0.552398681640625,-0.0802459716796875
1700516433886088000,7.434087890625,-1.1907958984375,-0.5865631103515625,0.00152587890625
1700516433896097800,7.444097900390625,-1.21527099609375,0.2049407958984375,0.0500640869140625
1700516433906109000,7.45410888671875,-0.7634124755859375,-0.6414794921875,0.1090850830078125
1700516433916118800,7.464118896484375,-0.801116943359375,-0.6331329345703125,0.0186767578125
1700516433926129000,7.47412890625,-0.9798126220703125,-0.1413116455078125,0.0255126953125
1700516433936139800,7.484139892578125,-0.7974090576171875,-0.3040771484375,0.028656005859375
1700516433946150000,7.49414990234375,-1.11273193359375,-0.513946533203125,-0.15008544921875
1700516433956159700,7.50415966796875,-1.3731689453125,-0.551788330078125,-0.0917816162109375
1700516433966171000,7.5141708984375,-0.750030517578125,-0.069610595703125,-0.1564483642578125
1700516433976180700,7.5241806640625,-0.45556640625,-0.6656494140625,-0.0569915771484375
1700516433986190800,7.53419091796875,-1.101593017578125,-0.45965576171875,-0.0881805419921875
1700516433996202000,7.544201904296875,-1.0518035888671875,-0.0620269775390625,-0.0397186279296875
1700516434006212000,7.554212158203125,-0.745758056640625,-0.648712158203125,0.117462158203125
1700516434016222000,7.564221923828125,-0.959991455078125,-0.4278564453125,0.1043853759765625
1700516434026232800,7.57423291015625,-1.1194000244140625,-0.459930419921875,0.0815277099609375
1700516434036243000,7.584242919921875,-0.7691497802734375,-0.007171630859375,-0.0364837646484375
1700516434046253000,7.594253173828125,-0.7795257568359375,-0.6323699951171875,0.13055419921875
1700516434056264000,7.604263916015625,-1.0583038330078125,-0.695098876953125,0.047698974609375
1700516434066274000,7.614274169921875,-0.941009521484375,0.0257568359375,-0.0391387939453125
1700516434076284000,7.624283935546875,-0.9176483154296875,-0.4218597412109375,0.0209503173828125
1700516434086294800,7.634294677734375,-0.3919677734375,-0.6642608642578125,-0.0034332275390625
1700516434096305000,7.644304931640625,-2.6490325927734375,-0.63311767578125,-0.2593841552734375
1700516434106315800,7.654315673828125,-2.1741943359375,0.153411865234375,-0.010284423828125
1700516434116326000,7.664325927734375,-1.193695068359375,-0.3208465576171875,-0.0579681396484375
1700516434126335700,7.674335693359375,-0.4902496337890625,-0.9154205322265625,0.2106781005859375
1700516434136347000,7.684346923828125,-0.0338592529296875,-0.0093231201171875,-0.1028900146484375
1700516434146356700,7.694356689453125,-0.59954833984375,-0.6230010986328125,0.1453704833984375
1700516434156366800,7.704366943359375,-1.2311859130859375,-0.5370635986328125,-0.0288543701171875
1700516434166377700,7.714377685546875,-1.331878662109375,-0.03204345703125,0.0402374267578125
1700516434176384300,7.72438427734375,-0.66851806640625,-0.54302978515625,0.2134246826171875
1700516434186394000,7.73439404296875,-0.5149383544921875,-0.2573699951171875,-0.08905029296875
1700516434196405200,7.7444052734375,-0.7575225830078125,-0.5910491943359375,0.120025634765625
1700516434206415000,7.7544150390625,-0.7432708740234375,-0.0275421142578125,0.04888916015625
1700516434216425200,7.76442529296875,-1.3073883056640625,-0.4366607666015625,0.046783447265625
1700516434226436000,7.77443603515625,-1.35870361328125,-0.525115966796875,-0.003631591796875
1700516434236446200,7.7844462890625,-1.196380615234375,-0.151458740234375,-0.1128082275390625
1700516434246456000,7.7944560546875,-0.7645263671875,-0.4489593505859375,-0.0103302001953125
1700516434256467200,7.80446728515625,-0.8795928955078125,-0.4568939208984375,-0.197723388671875
1700516434266477000,7.81447705078125,-1.14813232421875,-0.551116943359375,-0.0286712646484375
1700516434276487200,7.824487060546875,-0.67034912109375,-0.1268157958984375,-0.032684326171875
1700516434286498000,7.834498046875,-0.8331451416015625,-0.463775634765625,0.0568695068359375
1700516434296508200,7.844508056640625,-1.2039794921875,-0.623016357421875,0.0453643798828125
1700516434306518000,7.85451806640625,-1.0099029541015625,0.0733642578125,0.028076171875
1700516434316529200,7.864529052734375,-0.648193359375,-0.6474151611328125,0.2342376708984375
1700516434326539000,7.8745390625,-0.8634033203125,-0.4846954345703125,0.053863525390625
1700516434336549000,7.884549072265625,-1.0634765625,-0.1370086669921875,0.13970947265625
1700516434346560300,7.894560302734375,-0.7042083740234375,-0.4020538330078125,0.1219329833984375
1700516434356570400,7.9045703125,-0.7273406982421875,-0.402923583984375,-0.053192138671875
1700516434366581200,7.914581298828125,-0.976470947265625,-0.516937255859375,-0.0472259521484375
1700516434376591000,7.924591064453125,-0.6702728271484375,0.103729248046875,-0.102447509765625
1700516434386601200,7.934601318359375,-0.5348968505859375,-0.5593414306640625,-0.01214599609375
1700516434396612000,7.944612060546875,-0.8025665283203125,-0.635986328125,-0.1605987548828125
1700516434406622200,7.954622314453125,-0.9782257080078125,0.0147705078125,-0.052032470703125
1700516434416632000,7.964632080078125,-0.9221649169921875,-0.340057373046875,0.1450653076171875
1700516434426643200,7.974643310546875,-1.31396484375,-0.6700439453125,0.2588958740234375
1700516434436653000,7.984653076171875,-1.67181396484375,-0.381866455078125,0.118988037109375
1700516434446663200,7.9946630859375,-1.0132598876953125,-0.0752105712890625,0.2840118408203125
1700516434456674000,8.004674072265624,-0.9500732421875,-0.4967803955078125,0.0636444091796875
1700516434466684200,8.01468408203125,-1.1883392333984375,-0.6120147705078125,-0.0030059814453125
1700516434476695000,8.024695068359375,-0.9501953125,-0.0334625244140625,0.0063629150390625
1700516434486705200,8.034705078125,-0.9578857421875,-0.607940673828125,0.0215911865234375
1700516434496715000,8.044715087890625,-1.047027587890625,-0.4898834228515625,-0.2489776611328125
1700516434506726100,8.05472607421875,-0.8892059326171875,-0.133056640625,-0.019927978515625
1700516434516736000,8.064736083984375,-0.7584228515625,-0.4911651611328125,0.10986328125
1700516434526746000,8.07474609375,-0.851226806640625,-0.4109649658203125,-0.094207763671875
1700516434536757200,8.08475732421875,-1.4331512451171875,-0.43402099609375,0.0819549560546875
1700516434546767400,8.094767333984375,-0.9110107421875,0.0381011962890625,0.2611846923828125
1700516434556777200,8.104777099609375,-0.797943115234375,-0.604461669921875,0.0680084228515625
1700516434566788000,8.1147880859375,-1.17449951171875,-0.573455810546875,-0.0392913818359375
1700516434576798200,8.124798095703126,-0.9471588134765625,0.1367950439453125,0.23712158203125
1700516434586808300,8.134808349609376,-0.712005615234375,-0.616546630859375,0.25799560546875
1700516434596819200,8.144819091796874,-0.7792205810546875,-0.472198486328125,-0.0931243896484375
1700516434606829000,8.1548291015625,-0.9952392578125,-0.3863677978515625,0.00103759765625
1700516434616840200,8.164840087890624,-0.6294403076171875,-0.0089874267578125,0.0356597900390625
1700516434626850000,8.17485009765625,-0.7964019775390625,-0.650634765625,0.0252532958984375
1700516434636860200,8.184860107421875,-0.94110107421875,-0.587982177734375,-0.093536376953125
1700516434646871000,8.19487109375,-1.0361480712890625,0.2806549072265625,0.1514739990234375
1700516434656881200,8.204881103515625,-1.0853118896484375,-0.56976318359375,0.2370147705078125
1700516434666891000,8.21489111328125,-1.12530517578125,-0.5946502685546875,0.09271240234375
1700516434676902100,8.224902099609375,-1.5319976806640625,-0.084716796875,0.132476806640625
1700516434686912000,8.234912109375,-1.1725311279296875,-0.419921875,0.137359619140625
1700516434696922000,8.244922119140625,-0.9601593017578125,-0.3899383544921875,-0.170013427734375
1700516434706933200,8.254933349609376,-0.884033203125,-0.528106689453125,0.102691650390625
1700516434716943400,8.264943359375,-0.682891845703125,-0.1087646484375,0.064788818359375
1700516434726954200,8.274954345703126,-0.71636962890625,-0.669158935546875,-0.0637359619140625
1700516434736964400,8.28496435546875,-1.3856964111328125,-0.3833160400390625,0.0536041259765625
1700516434746974200,8.29497412109375,-0.801025390625,0.128875732421875,0.16485595703125
1700516434756985000,8.304985107421874,-0.6982879638671875,-0.7364044189453125,0.269744873046875
1700516434766995200,8.3149951171875,-0.987823486328125,-0.327362060546875,-0.090606689453125
1700516434777005300,8.32500537109375,-0.8961639404296875,-0.2796173095703125,0.08978271484375
1700516434787016200,8.33501611328125,-0.7861175537109375,-0.231475830078125,0.1128997802734375
1700516434797026000,8.345026123046875,-0.6905670166015625,-0.32159423828125,-0.1121368408203125
1700516434807037200,8.355037109375,-1.27142333984375,-0.6277008056640625,0.1212310791015625
1700516434817047000,8.365047119140625,-1.2779083251953125,0.161773681640625,0.20257568359375
1700516434827057200,8.37505712890625,-1.41326904296875,-0.6944122314453125,0.1317291259765625
1700516434837068000,8.385068115234375,-1.0449981689453125,-0.411468505859375,-0.061279296875
1700516434847078100,8.395078125,-0.7258453369140625,-0.1598968505859375,0.0404510498046875
1700516434857088000,8.405087890625,-0.931121826171875,-0.53717041015625,0.109222412109375
1700516434867099100,8.41509912109375,-1.23236083984375,-0.42919921875,-0.053955078125
1700516434877109000,8.42510888671875,-1.3804779052734375,-0.635528564453125,0.073638916015625
1700516434887120100,8.4351201171875,-0.874908447265625,0.1958160400390625,-0.070281982421875
1700516434897130200,8.445130126953124,-0.6503448486328125,-0.5173797607421875,0.10455322265625
1700516434907140400,8.455140380859374,-0.8336334228515625,-0.66546630859375,-0.0828094482421875
1700516434917151200,8.465151123046875,-0.8585052490234375,0.12628173828125,0.0454254150390625
1700516434927161300,8.475161376953125,-1.096710205078125,-0.539459228515625,0.2805938720703125
1700516434937171200,8.485171142578125,-1.2018890380859375,-0.428558349609375,0.0048370361328125
1700516434947182000,8.49518212890625,-1.1730804443359375,-0.3060455322265625,0.018402099609375
1700516434957192200,8.505192138671875,-0.5562744140625,0.005645751953125,0.0886383056640625
1700516434967203000,8.515203125,-0.343292236328125,-0.500274658203125,-0.0579071044921875
1700516434977213200,8.525213134765625,-0.90673828125,-0.6216278076171875,-0.0597991943359375
1700516434987223000,8.53522314453125,-0.660736083984375,0.28741455078125,-0.078155517578125
1700516434997234200,8.545234130859376,-0.9399566650390625,-0.586212158203125,0.105072021484375
1700516435007244000,8.555244140625,-1.26959228515625,-0.49127197265625,0.018035888671875
1700516435017254100,8.565254150390626,-1.314208984375,-0.1167144775390625,0.05712890625
1700516435027265000,8.57526513671875,-0.80560302734375,-0.2388916015625,0.086669921875
1700516435037275100,8.585275146484374,-0.7861328125,-0.5269622802734375,-0.00225830078125
1700516435047286000,8.5952861328125,-1.0902252197265625,-0.5233154296875,0.0664520263671875
1700516435057296100,8.605296142578124,-0.87615966796875,0.145416259765625,0.1035003662109375
1700516435067306000,8.615305908203124,-1.0431671142578125,-0.6650390625,0.0884857177734375
1700516435077317000,8.625317138671875,-1.1466064453125,-0.3215789794921875,-0.075653076171875
1700516435087327200,8.6353271484375,-1.136932373046875,-0.296875,0.0017242431640625
1700516435097338000,8.645338134765625,-0.7694091796875,-0.4024810791015625,0.020843505859375
1700516435107348200,8.65534814453125,-0.66058349609375,-0.3973388671875,-0.1834259033203125
1700516435117358000,8.665358154296875,-1.2046356201171875,-0.570526123046875,-0.0733184814453125
1700516435127369200,8.675369140625,-0.8680572509765625,0.088226318359375,0.0744781494140625
1700516435137379000,8.685379150390625,-0.9202117919921875,-0.5174407958984375,0.15997314453125
1700516435147389200,8.69538916015625,-1.0659332275390625,-0.5827178955078125,0.0861663818359375
1700516435157400000,8.705400146484376,-0.9821014404296875,0.1153411865234375,0.0908355712890625
1700516435167410200,8.71541015625,-0.81085205078125,-0.414886474609375,0.14996337890625
1700516435177424600,8.725424560546875,-0.831451416015625,-0.5498504638671875,-0.0562896728515625
1700516435187434800,8.735434814453125,-1.1360626220703125,-0.3941497802734375,0.1205902099609375
1700516435197444600,8.745444580078125,-0.5500946044921875,0.2215118408203125,0.071807861328125
1700516435207455700,8.755455810546875,-0.9010467529296875,-0.527435302734375,0.0955963134765625
1700516435217465600,8.765465576171875,-1.07684326171875,-0.4965667724609375,-0.0518035888671875
1700516435227476500,8.7754765625,-1.26776123046875,0.0436248779296875,-0.0254058837890625
1700516435237486600,8.785486572265626,-0.5858612060546875,-0.349212646484375,0.032867431640625
1700516435247496700,8.79549658203125,-0.7499542236328125,-0.3735809326171875,-0.0230712890625
1700516435257507600,8.805507568359374,-1.209136962890625,-0.472930908203125,0.03607177734375
1700516435267517400,8.815517333984374,-0.855926513671875,-0.1754608154296875,-0.047760009765625
1700516435277527600,8.825527587890624,-0.88116455078125,-0.188812255859375,0.0260009765625
1700516435287538400,8.835538330078125,-1.076263427734375,-0.659393310546875,0.0689697265625
1700516435297548500,8.845548583984375,-0.8813629150390625,0.0089569091796875,0.037200927734375
1700516435307559400,8.855559326171875,-1.00531005859375,-0.3150787353515625,0.2503814697265625
1700516435317569500,8.865569580078125,-1.305267333984375,-0.623321533203125,0.1083526611328125
1700516435327579400,8.875579345703125,-1.5378570556640625,-0.1095123291015625,0.049072265625
1700516435337590500,8.885590576171875,-1.0084075927734375,-0.2702789306640625,0.297515869140625
1700516435347600400,8.895600341796875,-1.0098114013671875,-0.4888763427734375,-0.1060028076171875
1700516435357611800,8.90561181640625,-0.9666748046875,-0.3594818115234375,0.0726470947265625
1700516435367621600,8.91562158203125,-0.7643585205078125,-0.0743408203125,-0.0352325439453125
1700516435377631700,8.9256318359375,-1.06854248046875,-0.5699462890625,-0.0283660888671875
1700516435387642600,8.935642578125,-1.301177978515625,-0.3211822509765625,-0.007904052734375
1700516435397652700,8.94565283203125,-0.7400054931640625,-0.1137847900390625,0.0204010009765625
1700516435407663600,8.95566357421875,-0.527923583984375,-0.4216461181640625,0.0408477783203125
1700516435417673500,8.965673583984374,-0.4294281005859375,-0.2622528076171875,-0.0566253662109375
1700516435427683600,8.97568359375,-1.09942626953125,-0.6273040771484375,0.061431884765625
1700516435437694500,8.985694580078125,-0.683624267578125,0.28289794921875,0.131103515625
1700516435447704600,8.99570458984375,-1.1926422119140625,-0.2491607666015625,0.4012603759765625
1700516435457715500,9.005715576171875,-1.4069061279296875,-0.500396728515625,0.12335205078125
1700516435467725600,9.0157255859375,-1.5419464111328125,0.22381591796875,0.05352783203125
1700516435477735400,9.0257353515625,-0.94775390625,-0.4889373779296875,0.076568603515625
1700516435487746600,9.03574658203125,-0.6736907958984375,-0.59771728515625,-0.2931365966796875
1700516435497756400,9.04575634765625,-0.82568359375,-0.2281341552734375,-0.069122314453125
1700516435507767600,9.055767578125,-0.723968505859375,-0.4652862548828125,-0.0149078369140625
1700516435517777700,9.065777587890626,-1.11285400390625,-0.3408660888671875,-0.0390472412109375
1700516435527787500,9.07578759765625,-1.4976959228515625,-0.5782623291015625,0.1818389892578125
1700516435537798700,9.085798583984374,-1.1552276611328125,0.16729736328125,0.1724700927734375
1700516435547808800,9.095808837890624,-1.1565399169921875,-0.488616943359375,0.345001220703125
1700516435557819600,9.105819580078125,-1.2729034423828125,-0.6217193603515625,0.0651702880859375
1700516435567829500,9.11582958984375,-1.2111358642578125,0.0844573974609375,0.0465240478515625
1700516435577839600,9.125839599609375,-1.150360107421875,-0.390716552734375,0.2681427001953125
1700516435587850500,9.1358505859375,-1.01361083984375,-0.5481109619140625,-0.2750396728515625
1700516435597860600,9.145860595703125,-1.0001373291015625,-0.3221282958984375,-0.0728302001953125
1700516435607871500,9.15587158203125,-0.4362945556640625,0.14678955078125,-0.0843963623046875
1700516435617881600,9.165881591796875,-0.42730712890625,-0.648193359375,0.0693511962890625
1700516435627891500,9.175891357421875,-0.8061370849609375,-0.4057464599609375,-0.2344207763671875
1700516435637902600,9.185902587890626,-0.74151611328125,-0.1913604736328125,0.1721038818359375
1700516435647912400,9.195912353515626,-0.5924835205078125,-0.109771728515625,0.191802978515625
1700516435657923600,9.205923583984376,-1.2187042236328125,-0.248046875,0.195770263671875
1700516435667933400,9.215933349609376,-1.079681396484375,-0.5046234130859375,0.0473480224609375
1700516435677943600,9.225943603515624,-1.0157928466796875,0.3782958984375,0.1383819580078125
1700516435687954700,9.23595458984375,-1.09710693359375,-0.4349212646484375,0.2330474853515625
1700516435697964500,9.245964599609374,-0.701171875,-0.5940704345703125,-0.0560455322265625
1700516435707975700,9.2559755859375,-1.026611328125,0.0882720947265625,-0.023529052734375
1700516435717985500,9.265985595703125,-0.99560546875,-0.51031494140625,-0.02008056640625
1700516435727995600,9.27599560546875,-1.212432861328125,-0.385345458984375,-0.309600830078125
1700516435738006500,9.286006591796875,-1.4925079345703125,-0.3757781982421875,0.0514678955078125
1700516435748016600,9.2960166015625,-1.091461181640625,-0.2053985595703125,-0.0006866455078125
1700516435758027500,9.306027587890625,-0.911956787109375,-0.3168182373046875,0.0803070068359375
1700516435768037600,9.31603759765625,-1.1150054931640625,-0.599761962890625,0.1526947021484375
1700516435778047500,9.326047607421875,-0.8911285400390625,0.119140625,0.06878662109375
1700516435788058600,9.33605859375,-0.5750885009765625,-0.4449005126953125,0.3089752197265625
1700516435798068500,9.346068359375,-0.75537109375,-0.5056915283203125,-0.1309661865234375
1700516435808079400,9.356079345703124,-0.8492431640625,-0.2483673095703125,0.0352020263671875
1700516435818089500,9.36608935546875,-0.4750213623046875,0.06036376953125,-0.04534912109375
1700516435828099600,9.376099609375,-0.7240753173828125,-0.3778228759765625,0.125030517578125
1700516435838110500,9.3861103515625,-0.9164276123046875,-0.5644683837890625,-0.080535888671875
1700516435848120600,9.39612060546875,-0.9648895263671875,-0.0209503173828125,-0.0334014892578125
1700516435858131700,9.406131591796875,-0.478759765625,-0.0272369384765625,-0.096038818359375
1700516435868141600,9.4161416015625,-1.050567626953125,-0.27484130859375,0.062835693359375
1700516435878151700,9.426151611328125,-0.66705322265625,-0.3817291259765625,-0.02386474609375
1700516435888162600,9.43616259765625,-0.2741546630859375,0.1122589111328125,-0.0243072509765625
1700516435898172700,9.446172607421875,-1.0813751220703125,-0.3435821533203125,0.1323089599609375
1700516435908183600,9.45618359375,-1.2602996826171875,-0.5211334228515625,0.1167144775390625
1700516435918193700,9.466193603515626,-0.673126220703125,0.1805267333984375,-0.008544921875
1700516435928203500,9.47620361328125,-1.261566162109375,-0.4056243896484375,0.1190185546875
1700516435938214700,9.486214599609376,-1.27276611328125,-0.3944549560546875,0.0210113525390625
1700516435948224500,9.496224609375,-1.6376953125,-0.426666259765625,0.02044677734375
1700516435958235400,9.5062353515625,-1.0960845947265625,0.0009918212890625,0.0837860107421875
1700516435968245500,9.51624560546875,-1.04888916015625,-0.4542083740234375,0.0738372802734375
1700516435978256400,9.52625634765625,-1.1515350341796875,-0.6697235107421875,0.0255584716796875
1700516435988266500,9.5362666015625,-1.0436248779296875,0.3336639404296875,0.0164031982421875
1700516435998276400,9.5462763671875,-0.9334259033203125,-0.753753662109375,0.273529052734375
1700516436008287700,9.556287841796875,-0.8094635009765625,-0.2508087158203125,-0.07867431640625
1700516436018297600,9.566297607421875,-0.6593017578125,-0.11468505859375,-0.0291748046875
1700516436028308700,9.576308837890625,-0.60693359375,-0.1923980712890625,0.017578125
1700516436038318600,9.586318603515625,-0.781341552734375,-0.42840576171875,0.1265411376953125
1700516436048328700,9.59632861328125,-1.11431884765625,-0.7117767333984375,0.0386505126953125
1700516436058339600,9.606339599609376,-1.0003509521484375,0.2245941162109375,-0.0145111083984375
1700516436068349700,9.616349609375,-0.83062744140625,-0.2424163818359375,0.0153656005859375
1700516436078360600,9.626360595703124,-1.4355621337890625,-0.43609619140625,0.0169525146484375
1700516436088370700,9.63637060546875,-0.8548736572265625,-0.0673370361328125,-0.043609619140625
1700516436098381600,9.646381591796874,-0.7288665771484375,-0.012359619140625,0.0590057373046875
1700516436108391400,9.656391357421874,-1.2994537353515625,-0.3479156494140625,0.1656341552734375
1700516436118401500,9.666401611328125,-1.257354736328125,-0.54583740234375,0.030364990234375
1700516436128412400,9.676412353515625,-1.0218505859375,0.077178955078125,-0.025177001953125
1700516436138422500,9.686422607421875,-0.9145050048828125,-0.2701568603515625,0.2014007568359375
1700516436148433400,9.696433349609375,-0.9400634765625,-0.481964111328125,-0.0893096923828125
1700516436158443500,9.706443603515625,-1.2762451171875,-0.0597991943359375,0.0301055908203125
1700516436168453400,9.716453369140625,-0.8743743896484375,-0.3025665283203125,0.20623779296875
1700516436178461000,9.7264609375,-0.9913482666015625,-0.4209442138671875,-0.0345611572265625
1700516436188470800,9.736470703125,-1.418182373046875,-0.389923095703125,0.07232666015625
1700516436198482000,9.74648193359375,-0.8361053466796875,0.09344482421875,0.0257568359375
1700516436208492000,9.756491943359375,-0.938995361328125,-0.5367889404296875,0.1651458740234375
1700516436218503000,9.7665029296875,-1.192962646484375,-0.52801513671875,-0.1080169677734375
1700516436228513000,9.776512939453125,-1.0170745849609375,0.3077545166015625,-0.0694732666015625
1700516436238523000,9.78652294921875,-0.9418182373046875,-0.5532989501953125,0.190399169921875
1700516436248534000,9.796533935546876,-0.9865264892578125,-0.4405975341796875,-0.0301513671875
1700516436258543900,9.8065439453125,-1.2210540771484375,-0.3455047607421875,0.1222381591796875
1700516436268555000,9.816554931640624,-0.6038360595703125,0.181182861328125,0.1095123291015625
1700516436278564900,9.82656494140625,-0.6450958251953125,-0.4359283447265625,0.116058349609375
1700516436288576000,9.836575927734375,-0.7508392333984375,-0.5875091552734375,0.0800018310546875
1700516436298585900,9.8465859375,-0.976531982421875,-0.1234283447265625,0.031890869140625
1700516436308596000,9.856595947265625,-0.50555419921875,-0.0257415771484375,0.020751953125
1700516436318606800,9.86660693359375,-1.5855560302734375,-0.42755126953125,-0.049041748046875
1700516436328617000,9.876616943359375,-1.07000732421875,-0.3087310791015625,-0.0381011962890625
1700516436338628000,9.886628173828125,-0.594879150390625,0.3170318603515625,0.044219970703125
1700516436348638000,9.896637939453125,-1.205657958984375,-0.2857818603515625,0.1866607666015625
1700516436358647800,9.906647705078125,-1.1524658203125,-0.7131805419921875,0.0303955078125
1700516436368659000,9.916658935546875,-0.86859130859375,0.011962890625,-0.0455780029296875
1700516436378669000,9.9266689453125,-0.91107177734375,-0.07794189453125,0.0922393798828125
1700516436388680000,9.936679931640626,-1.0559539794921875,-0.581787109375,-0.0120849609375
1700516436398690000,9.94668994140625,-1.3183746337890625,-0.2223663330078125,-0.057342529296875
1700516436408701000,9.956700927734374,-0.6505889892578125,-0.038604736328125,0.0292205810546875
1700516436418711000,9.9667109375,-0.7378997802734375,-0.437774658203125,0.0580596923828125
1700516436428721000,9.976720947265624,-1.2678375244140625,-0.575286865234375,0.0302886962890625
1700516436438732000,9.98673193359375,-0.72998046875,0.363555908203125,0.0201416015625
1700516436448742000,9.996741943359375,-1.0264892578125,-0.516815185546875,0.2950897216796875
1700516436458752800,10.006752685546875,-1.3094329833984375,-0.47052001953125,-0.064208984375
1700516436468763000,10.016762939453125,-1.1403350830078125,-0.0151214599609375,0.2112274169921875
1700516436478773800,10.026773681640625,-0.9935760498046875,-0.2718505859375,0.1741485595703125
1700516436488784000,10.036783935546875,-1.0349578857421875,-0.3645782470703125,-0.0107574462890625
1700516436498795000,10.046794921875,-1.1798248291015625,-0.614471435546875,0.066070556640625
1700516436508805000,10.05680517578125,-0.86041259765625,0.3975982666015625,-0.1655426025390625
1700516436518815000,10.06681494140625,-0.8227996826171875,-0.537200927734375,0.2067718505859375
1700516436528826000,10.076826171875,-0.932769775390625,-0.55535888671875,-0.102325439453125
1700516436538836000,10.0868359375,-1.2524871826171875,-0.001708984375,0.031890869140625
1700516436548846800,10.096846923828124,-0.6964569091796875,-0.124267578125,0.012542724609375
1700516436558857000,10.10685693359375,-0.81207275390625,-0.3408660888671875,0.015594482421875
1700516436568867800,10.116867919921875,-1.284881591796875,-0.5712890625,0.0673065185546875
1700516436578878000,10.1268779296875,-0.7864990234375,0.3538665771484375,-0.047882080078125
1700516436588887800,10.1368876953125,-0.7285919189453125,-0.38482666015625,0.168975830078125
1700516436598899000,10.14689892578125,-1.4498748779296875,-0.5492706298828125,0.0154571533203125
1700516436608908800,10.15690869140625,-1.2763519287109375,-0.0369873046875,0.1760406494140625
1700516436618920000,10.166919921875,-0.582794189453125,-0.1699066162109375,0.159912109375
1700516436628929800,10.1769296875,-0.8164825439453125,-0.3081207275390625,-0.101348876953125
1700516436638941000,10.18694091796875,-1.3319091796875,-0.57794189453125,0.1006011962890625
1700516436648951000,10.196950927734376,-0.957305908203125,0.2936859130859375,0.046173095703125
1700516436658961200,10.206961181640626,-0.8875579833984375,-0.6134490966796875,0.16168212890625
1700516436668972000,10.216971923828124,-1.27435302734375,-0.390869140625,-0.1795501708984375
1700516436678982100,10.226982177734374,-1.013031005859375,0.0313873291015625,0.2151947021484375
1700516436688993000,10.236992919921875,-0.94317626953125,-0.4003143310546875,0.1632232666015625
1700516436699003000,10.2470029296875,-1.0685272216796875,-0.402984619140625,-0.086395263671875
1700516436709014000,10.257013916015625,-1.2927093505859375,-0.4337615966796875,0.08074951171875
1700516436719023900,10.26702392578125,-0.8112945556640625,0.294586181640625,-0.02655029296875
1700516436729035000,10.277034912109375,-0.707122802734375,-0.59844970703125,0.1695404052734375
1700516436739044900,10.287044921875,-1.18756103515625,-0.4322509765625,-0.15771484375
1700516436749055000,10.297054931640625,-0.984893798828125,0.128631591796875,0.1335906982421875
1700516436759065900,10.30706591796875,-0.7184295654296875,-0.2713165283203125,0.16796875
1700516436769076000,10.317075927734376,-0.9097442626953125,-0.406036376953125,-0.0743560791015625
1700516436779086800,10.3270869140625,-1.070037841796875,-0.3254547119140625,0.0875701904296875
1700516436789097000,10.337096923828126,-0.606903076171875,0.251495361328125,0.0122222900390625
1700516436799108000,10.347108154296874,-0.6717529296875,-0.4557037353515625,0.1233062744140625
1700516436809118000,10.357117919921874,-1.110565185546875,-0.48760986328125,-0.02777099609375
1700516436819129000,10.367129150390625,-1.190673828125,0.119781494140625,0.0690155029296875
1700516436829139000,10.377138916015625,-0.8148040771484375,-0.237762451171875,-0.005035400390625
1700516436839149000,10.387149169921875,-1.097747802734375,-0.4491424560546875,-0.0585479736328125
1700516436849160000,10.397159912109375,-1.3291168212890625,-0.293212890625,0.0601806640625
1700516436859170000,10.407170166015625,-0.8109283447265625,-0.00396728515625,-0.0108489990234375
1700516436869181000,10.417180908203125,-0.821990966796875,-0.3729400634765625,-0.1270751953125
1700516436879191000,10.42719091796875,-1.1053924560546875,-0.5160064697265625,-0.054473876953125
1700516436889202000,10.437201904296876,-0.934844970703125,0.2499847412109375,-0.065948486328125
1700516436899211800,10.447211669921876,-0.8353118896484375,-0.4530792236328125,0.1225433349609375
1700516436909223000,10.457222900390626,-0.9708709716796875,-0.463714599609375,-0.0892181396484375
1700516436919232800,10.467232666015626,-1.1549530029296875,-0.0114898681640625,0.079864501953125
1700516436929243000,10.477242919921874,-0.5897979736328125,-0.086456298828125,0.16583251953125
1700516436939254000,10.48725390625,-1.1898193359375,-0.4173736572265625,-0.023712158203125
1700516436949264100,10.49726416015625,-1.458953857421875,-0.557281494140625,0.0505523681640625
1700516436959275000,10.50727490234375,-0.7783050537109375,0.4647979736328125,-0.038543701171875
1700516436969285000,10.51728515625,-0.7719879150390625,-0.5282440185546875,0.12408447265625
1700516436979296000,10.5272958984375,-1.1438446044921875,-0.5637664794921875,-0.27984619140625
1700516436989305900,10.537305908203125,-1.0954742431640625,0.059295654296875,-0.027069091796875
1700516436999317000,10.54731689453125,-0.8717041015625,-0.258941650390625,0.0250701904296875
1700516437009326800,10.557326904296875,-1.026031494140625,-0.3134613037109375,-0.1586456298828125
1700516437019338000,10.567337890625,-1.2008514404296875,-0.6203460693359375,0.0691070556640625
1700516437029347800,10.577347900390626,-0.7212982177734375,0.4191436767578125,-0.1055145263671875
1700516437039358000,10.58735791015625,-0.7649688720703125,-0.5612335205078125,0.080352783203125
1700516437049368800,10.597368896484374,-1.0270233154296875,-0.4076385498046875,-0.1324920654296875
1700516437059379000,10.60737890625,-1.0894927978515625,-0.0998077392578125,-0.005340576171875
1700516437069390000,10.61739013671875,-0.618988037109375,0.0656585693359375,0.057281494140625
1700516437079400000,10.62739990234375,-0.7671051025390625,-0.4376220703125,0.160369873046875
1700516437089411000,10.6374111328125,-1.3109588623046875,-0.3477020263671875,0.053955078125
1700516437099421000,10.6474208984375,-1.12469482421875,0.2033233642578125,-0.08587646484375
1700516437109432000,10.65743212890625,-0.812408447265625,-0.408477783203125,0.01318359375
1700516437119442000,10.66744189453125,-1.01324462890625,-0.3459320068359375,-0.151763916015625
1700516437129453000,10.677453125,-0.8960418701171875,-0.01702880859375,-0.11151123046875
1700516437139463000,10.687462890625,-0.926788330078125,-0.349700927734375,-0.06048583984375
1700516437149473000,10.69747314453125,-1.089447021484375,-0.4403228759765625,-0.28839111328125
1700516437159484000,10.70748388671875,-1.3965911865234375,-0.2350921630859375,-0.0027923583984375
1700516437169494000,10.717493896484376,-0.9369964599609375,0.0799407958984375,0.033782958984375
1700516437179505400,10.72750537109375,-0.741058349609375,-0.429290771484375,0.020050048828125
1700516437189515300,10.737515380859374,-1.1857147216796875,-0.6248321533203125,-0.008544921875
1700516437199526400,10.7475263671875,-1.120269775390625,0.304351806640625,-0.011322021484375
1700516437209536300,10.757536376953125,-0.74017333984375,-0.462005615234375,0.1579437255859375
1700516437219547400,10.76754736328125,-0.630096435546875,-0.263885498046875,-0.1803741455078125
1700516437229557200,10.77755712890625,-1.088531494140625,-0.3489990234375,0.0134124755859375
1700516437239568100,10.787568115234375,-0.8222808837890625,0.1978759765625,-0.01495361328125
1700516437249578200,10.797578125,-0.944000244140625,-0.40216064453125,-0.039031982421875
1700516437259588400,10.80758837890625,-1.0121612548828125,-0.4734954833984375,-0.0992584228515625
1700516437269599200,10.81759912109375,-0.8885498046875,0.30487060546875,-0.1540985107421875
1700516437279609000,10.827609130859376,-0.6059417724609375,-0.1737060546875,0.004364013671875
1700516437289620200,10.8376201171875,-0.634307861328125,-0.5397491455078125,-0.0502471923828125
1700516437299630000,10.847630126953124,-1.240203857421875,-0.305816650390625,-0.021026611328125
1700516437309641500,10.857641357421874,-0.92950439453125,0.298248291015625,-0.1428985595703125
1700516437319651300,10.8676513671875,-0.8895721435546875,-0.46636962890625,0.0458984375
1700516437329662200,10.877662109375,-1.171722412109375,-0.488128662109375,0.0160064697265625
1700516437339672300,10.88767236328125,-1.135406494140625,0.1549835205078125,0.010223388671875
1700516437349683200,10.89768310546875,-0.83648681640625,-0.389739990234375,0.0985260009765625
1700516437359693300,10.907693359375,-1.1332855224609375,-0.435882568359375,-0.0944976806640625
1700516437369704200,10.9177041015625,-1.24078369140625,-0.240570068359375,-0.04901123046875
1700516437379714300,10.92771435546875,-0.781158447265625,-0.0384521484375,-0.01177978515625
1700516437389725200,10.93772509765625,-0.714447021484375,-0.3495941162109375,-0.0540771484375
1700516437399735300,10.9477353515625,-1.2628021240234375,-0.4007110595703125,0.0221405029296875
1700516437409745200,10.9577451171875,-1.011199951171875,0.270843505859375,-0.04571533203125
1700516437419756300,10.96775634765625,-0.8145904541015625,-0.525726318359375,0.090087890625
1700516437429766100,10.97776611328125,-0.9775543212890625,-0.3043975830078125,-0.1699981689453125
1700516437439777300,10.98777734375,-0.9894561767578125,-0.001861572265625,0.0203704833984375
1700516437449787400,10.997787353515625,-0.6182708740234375,-0.1998291015625,0.0935821533203125
1700516437459798300,11.00779833984375,-0.90228271484375,-0.3184967041015625,-0.0919647216796875
1700516437469808400,11.017808349609375,-1.241058349609375,-0.5035400390625,0.0140838623046875
1700516437479819300,11.0278193359375,-0.887054443359375,0.430877685546875,-0.0819091796875
1700516437489829400,11.037829345703125,-0.8751220703125,-0.445831298828125,0.0682525634765625
1700516437499840300,11.04784033203125,-1.23828125,-0.5579376220703125,-0.029144287109375
1700516437509850400,11.057850341796875,-1.1078033447265625,-0.0151824951171875,0.0083770751953125
1700516437519861200,11.067861328125,-0.7328338623046875,-0.0453643798828125,0.0482940673828125
1700516437529871000,11.07787109375,-1.240234375,-0.4592742919921875,-0.1547088623046875
1700516437539882200,11.08788232421875,-1.212371826171875,-0.371307373046875,-0.020477294921875
1700516437549892000,11.09789208984375,-0.6511383056640625,0.2398681640625,0.0287628173828125
1700516437559903500,11.107903564453125,-0.7278289794921875,-0.3488311767578125,0.0179595947265625
1700516437569913300,11.117913330078125,-1.2043914794921875,-0.505950927734375,-0.0005645751953125
1700516437579923500,11.12792333984375,-1.160980224609375,0.3074951171875,0.0649566650390625
1700516437589934300,11.137934326171875,-0.92132568359375,-0.425689697265625,0.15777587890625
1700516437599944400,11.1479443359375,-0.9986114501953125,-0.341552734375,-0.1556854248046875
1700516437609955300,11.157955322265625,-1.081298828125,-0.2733001708984375,0.0770263671875
1700516437619965400,11.16796533203125,-0.87872314453125,0.1050262451171875,0.08978271484375
1700516437629976300,11.177976318359375,-1.016326904296875,-0.552398681640625,-0.0501708984375
1700516437639986200,11.187986083984375,-1.4401702880859375,-0.4561614990234375,-0.0619049072265625
1700516437649997300,11.197997314453126,-1.0319061279296875,0.3164215087890625,0.000457763671875
1700516437660007200,11.208007080078126,-0.7504119873046875,-0.427886962890625,0.268218994140625
1700516437670018300,11.218018310546874,-1.1780853271484375,-0.6216278076171875,-0.160491943359375
1700516437680028200,11.228028076171874,-1.0243682861328125,0.03466796875,0.07281494140625
1700516437690039000,11.2380390625,-0.674346923828125,-0.0976409912109375,0.1473541259765625
1700516437700049200,11.248049072265625,-0.74755859375,-0.3930206298828125,0.043701171875
1700516437710060300,11.258060302734375,-1.219207763671875,-0.4243011474609375,0.0137939453125
1700516437720070400,11.2680703125,-0.8327789306640625,0.32000732421875,0.095245361328125
1700516437730081300,11.278081298828125,-0.5052490234375,-0.2523651123046875,0.179351806640625
1700516437740091400,11.28809130859375,-0.6349945068359375,-0.4638519287109375,0.0419769287109375
1700516437750102300,11.298102294921875,-1.2220458984375,0.0621337890625,0.07806396484375
1700516437760112400,11.3081123046875,-1.11920166015625,-0.1422576904296875,-0.0396575927734375
1700516437770123300,11.318123291015626,-1.1815643310546875,-0.3202972412109375,-0.101470947265625
1700516437780133000,11.328133056640626,-1.7970733642578125,-0.34283447265625,0.02862548828125
1700516437790144300,11.338144287109374,-1.2376556396484375,0.1078338623046875,0.039642333984375
1700516437800154000,11.348154052734374,-0.9510955810546875,-0.6066436767578125,0.0914459228515625
1700516437810164200,11.358164306640624,-1.209808349609375,-0.383331298828125,0.030731201171875
1700516437820175000,11.368175048828125,-0.736541748046875,0.1132354736328125,0.0378570556640625
1700516437830185200,11.378185302734375,-0.799652099609375,-0.4514007568359375,0.3126220703125
1700516437840196400,11.3881962890625,-1.0906982421875,-0.424163818359375,-0.021697998046875
1700516437850206500,11.39820654296875,-0.88421630859375,0.1098785400390625,0.2551727294921875
1700516437860217300,11.40821728515625,-0.6794281005859375,-0.31982421875,0.2611083984375
1700516437870227500,11.4182275390625,-0.706939697265625,-0.32781982421875,0.0760345458984375
1700516437880238300,11.42823828125,-1.11053466796875,-0.440460205078125,0.090057373046875
1700516437890248200,11.438248291015626,-0.70074462890625,0.4285430908203125,-0.06256103515625
1700516437900259300,11.44825927734375,-1.05780029296875,-0.41278076171875,0.044586181640625
1700516437910269200,11.458269287109376,-0.9869842529296875,-0.385955810546875,-0.35186767578125
1700516437920280300,11.4682802734375,-1.196014404296875,0.1556549072265625,0.0220184326171875
1700516437930290200,11.478290283203124,-0.654571533203125,-0.0433349609375,0.0340118408203125
1700516437940301000,11.488301025390625,-1.004364013671875,-0.4790802001953125,-0.0397491455078125
1700516437950311200,11.498311279296875,-1.297027587890625,-0.225341796875,0.2008056640625
1700516437960322300,11.508322265625,-0.9200897216796875,0.0271453857421875,0.2738494873046875
1700516437970332400,11.51833251953125,-0.9721527099609375,-0.4518585205078125,0.2591094970703125
1700516437980343300,11.52834326171875,-1.5032196044921875,-0.4954833984375,0.167236328125
1700516437990353400,11.538353515625,-0.998687744140625,0.26483154296875,0.320404052734375
1700516438000364300,11.5483642578125,-0.789093017578125,-0.58782958984375,0.322479248046875
1700516438010374400,11.55837451171875,-1.1112518310546875,-0.2937469482421875,-0.1145172119140625
1700516438020385300,11.56838525390625,-0.8250732421875,0.0439453125,0.1248626708984375
1700516438030395400,11.5783955078125,-0.78155517578125,-0.248291015625,0.088714599609375
1700516438040406300,11.58840625,-0.8964385986328125,-0.5107879638671875,-0.173309326171875
1700516438050416000,11.598416015625,-1.1412200927734375,-0.103759765625,0.143218994140625
1700516438060427300,11.60842724609375,-0.80584716796875,-0.0386199951171875,-0.1565704345703125
1700516438070437000,11.61843701171875,-0.8804473876953125,-0.3324432373046875,0.039886474609375
1700516438080448500,11.628448486328125,-1.1407623291015625,-0.4792938232421875,0.0667572021484375
1700516438090458400,11.638458251953125,-0.9730072021484375,0.38336181640625,0.1108856201171875
1700516438100469200,11.64846923828125,-0.686126708984375,-0.3036346435546875,0.2194366455078125
1700516438110479400,11.658479248046875,-1.032379150390625,-0.4881134033203125,0.1209259033203125
1700516438120490200,11.668490234375,-1.1336669921875,0.09716796875,0.2419586181640625
1700516438130500400,11.678500244140626,-0.6267852783203125,-0.1319427490234375,0.3599853515625
1700516438140511200,11.68851123046875,-0.855316162109375,-0.4779815673828125,0.1081695556640625
1700516438150521300,11.698521240234374,-1.2131500244140625,-0.0806427001953125,0.2732696533203125
1700516438160532200,11.7085322265625,-0.7499237060546875,-0.10577392578125,0.1056671142578125
1700516438170542300,11.718542236328124,-0.656707763671875,-0.2424468994140625,0.0037384033203125
1700516438180552700,11.728552734375,-1.3959808349609375,-0.4345550537109375,-0.197967529296875
1700516438190562800,11.738562744140625,-1.213836669921875,0.1907501220703125,-0.0237884521484375
1700516438200573700,11.74857373046875,-0.8793487548828125,-0.3606414794921875,0.1514434814453125
1700516438210583800,11.758583740234375,-1.389251708984375,-0.3798980712890625,-0.1941680908203125
1700516438220594700,11.7685947265625,-1.2507781982421875,0.080322265625,0.154693603515625
1700516438230604500,11.7786044921875,-0.605987548828125,-0.252227783203125,0.4127960205078125
1700516438240615700,11.78861572265625,-0.5546417236328125,-0.57080078125,0.0149688720703125
1700516438250625500,11.79862548828125,-1.079559326171875,0.0202178955078125,0.3130035400390625
1700516438260636700,11.80863671875,-1.119293212890625,-0.3319091796875,0.325531005859375
1700516438270646500,11.818646484375,-1.167083740234375,-0.302398681640625,0.109893798828125
1700516438280656600,11.82865673828125,-1.3264312744140625,-0.3256072998046875,0.098968505859375
1700516438290667500,11.83866748046875,-1.062286376953125,0.2195281982421875,0.226593017578125
1700516438300677600,11.848677734375,-0.76092529296875,-0.5006256103515625,0.0580596923828125
1700516438310688800,11.858688720703125,-1.2114410400390625,-0.3277130126953125,-0.2732391357421875
1700516438320698600,11.86869873046875,-1.0055389404296875,0.1399993896484375,0.124786376953125
1700516438330709800,11.878709716796875,-0.8946685791015625,-0.196441650390625,0.088623046875
1700516438340719600,11.8887197265625,-1.0186767578125,-0.5528564453125,-0.1701202392578125
1700516438350730800,11.898730712890625,-1.179412841796875,0.0343475341796875,0.272186279296875
1700516438360740600,11.90874072265625,-0.675384521484375,-0.1904449462890625,0.2451934814453125
1700516438370751700,11.918751708984376,-0.617431640625,-0.2140960693359375,-0.058685302734375
1700516438380761600,11.92876171875,-1.1365509033203125,-0.474334716796875,0.0822296142578125
1700516438390772500,11.9387724609375,-0.9315948486328125,0.290618896484375,0.0933990478515625
1700516438400782600,11.948782470703126,-0.838043212890625,-0.3794403076171875,0.03863525390625
1700516438410793500,11.95879345703125,-1.285400390625,-0.3746337890625,-0.067901611328125
1700516438420803600,11.968803466796874,-1.13665771484375,0.1845550537109375,0.203643798828125
1700516438430814700,11.978814697265625,-0.675628662109375,-0.161590576171875,0.274810791015625
1700516438440824800,11.988824951171875,-1.1133880615234375,-0.514404296875,-0.0088043212890625
1700516438450835700,11.998835693359375,-1.23431396484375,0.1846771240234375,0.3343658447265625
1700516438460845800,12.008845703125,-0.835784912109375,-0.281005859375,0.19927978515625
1700516438470856700,12.018856689453125,-1.005523681640625,-0.36761474609375,-0.11712646484375
1700516438480866600,12.028866455078125,-1.2730865478515625,-0.2169189453125,0.1528167724609375
1700516438490877700,12.038877685546876,-0.78094482421875,0.042572021484375,0.0226287841796875
1700516438500887600,12.048887451171876,-0.591278076171875,-0.3935699462890625,-0.1168365478515625
1700516438510898700,12.058898681640626,-1.1779632568359375,-0.4460601806640625,-0.0786590576171875
1700516438520908500,12.068908447265626,-0.85009765625,0.1628875732421875,0.1666717529296875
1700516438530919400,12.07891943359375,-0.5579833984375,-0.204559326171875,0.189208984375
1700516438540929500,12.088929443359374,-0.993499755859375,-0.4588470458984375,0.03759765625
1700516438550940700,12.098940673828125,-1.208984375,0.1253204345703125,0.153839111328125
1700516438560950800,12.10895068359375,-0.800140380859375,-0.09527587890625,0.2628631591796875
1700516438570961700,12.118961669921875,-0.9802398681640625,-0.43756103515625,0.130126953125
1700516438580971800,12.1289716796875,-1.228118896484375,-0.170684814453125,0.1828765869140625
1700516438590982700,12.138982666015625,-0.75653076171875,0.1068267822265625,0.0621490478515625
1700516438600992800,12.14899267578125,-0.7735748291015625,-0.3255767822265625,-0.00640869140625
1700516438611003600,12.159003662109376,-1.27435302734375,-0.3589935302734375,-0.110198974609375
1700516438621013800,12.169013671875,-0.6949462890625,0.123626708984375,0.049774169921875
1700516438631024600,12.179024658203126,-0.506011962890625,-0.2626190185546875,0.092742919921875
1700516438641034500,12.189034423828126,-1.0854034423828125,-0.50201416015625,-0.084747314453125
1700516438651045600,12.199045654296874,-1.179718017578125,0.107696533203125,0.136932373046875
1700516438661055500,12.209055419921874,-0.440216064453125,-0.1710205078125,0.095245361328125
1700516438671067000,12.21906689453125,-0.82562255859375,-0.4638519287109375,0.0162811279296875
1700516438681076700,12.22907666015625,-1.1952667236328125,0.05914306640625,0.23388671875
1700516438691087600,12.239087646484375,-1.1017303466796875,-0.142669677734375,0.1306304931640625
1700516438701097700,12.24909765625,-1.3641204833984375,-0.37115478515625,-0.020416259765625
1700516438711108600,12.259108642578125,-1.458526611328125,-0.110137939453125,0.17083740234375
1700516438721118700,12.26911865234375,-0.8183441162109375,0.0499267578125,0.181976318359375
1700516438731129600,12.279129638671876,-0.6644134521484375,-0.4986724853515625,-0.0253448486328125
1700516438741139700,12.2891396484375,-1.311004638671875,-0.2445831298828125,0.0665435791015625
1700516438751150600,12.299150634765626,-1.06646728515625,0.0002288818359375,0.0948638916015625
1700516438761160700,12.30916064453125,-0.8907470703125,-0.278564453125,0.144927978515625
1700516438771171600,12.319171630859374,-1.1213531494140625,-0.4762115478515625,-0.0259857177734375
1700516438781181700,12.329181640625,-0.72900390625,0.16326904296875,0.192230224609375
1700516438791192600,12.339192626953125,-0.606048583984375,-0.35205078125,0.0485992431640625
1700516438801202400,12.349202392578125,-0.9732666015625,-0.4012451171875,-0.150665283203125
1700516438811213800,12.3592138671875,-1.3074188232421875,-0.049468994140625,0.0948638916015625
1700516438821223700,12.3692236328125,-0.7794952392578125,0.113189697265625,0.1551666259765625
1700516438831234800,12.37923486328125,-0.9171142578125,-0.3663482666015625,-0.0011749267578125
1700516438841244700,12.38924462890625,-1.2645111083984375,-0.1416778564453125,0.0986328125
1700516438851255600,12.399255615234376,-0.923431396484375,-0.051239013671875,0.2606658935546875
1700516438861265700,12.409265625,-0.7344207763671875,-0.1352081298828125,0.1050872802734375
1700516438871276500,12.419276611328126,-1.46832275390625,-0.3779296875,0.03338623046875
1700516438881286700,12.42928662109375,-1.20758056640625,0.1332550048828125,0.2973785400390625
1700516438891297500,12.439297607421874,-0.9296112060546875,-0.25885009765625,0.16485595703125
1700516438901307600,12.4493076171875,-1.2869720458984375,-0.4727783203125,-0.0234222412109375
1700516438911318500,12.459318603515625,-0.8125457763671875,0.12493896484375,0.1555633544921875
1700516438921328600,12.46932861328125,-0.7208251953125,-0.3064117431640625,0.1441497802734375
1700516438931339800,12.47933984375,-0.9910736083984375,-0.48834228515625,-0.0811309814453125
1700516438941349600,12.489349609375,-1.26214599609375,0.05548095703125,0.1279449462890625
1700516438951360800,12.49936083984375,-0.803497314453125,-0.201995849609375,0.0550537109375
1700516438961370600,12.50937060546875,-0.738739013671875,-0.22161865234375,-0.00421142578125
1700516438971381800,12.5193818359375,-1.143157958984375,-0.2411956787109375,0.0877685546875
1700516438981391600,12.5293916015625,-1.1272125244140625,0.0895233154296875,0.0744781494140625
1700516438991402800,12.53940283203125,-0.7075653076171875,-0.1676177978515625,0.1533660888671875
1700516439001412600,12.54941259765625,-1.2254638671875,-0.422149658203125,0.159423828125
1700516439011423500,12.559423583984374,-0.945709228515625,0.27752685546875,0.2632598876953125
1700516439021433600,12.56943359375,-0.7044677734375,-0.1864471435546875,0.209991455078125
1700516439031444500,12.579444580078125,-1.0548248291015625,-0.498138427734375,-0.010650634765625
1700516439041454600,12.58945458984375,-0.8686981201171875,0.15325927734375,0.14984130859375
1700516439051465700,12.5994658203125,-0.5917816162109375,-0.16717529296875,-0.006561279296875
1700516439061475800,12.609475830078125,-0.8845672607421875,-0.4704742431640625,-0.146881103515625
1700516439071486700,12.61948681640625,-1.312347412109375,0.003692626953125,0.02337646484375
1700516439081496800,12.629496826171875,-1.0863037109375,-0.110931396484375,-0.0018157958984375
1700516439091507700,12.6395078125,-0.8001708984375,-0.109344482421875,0.0410614013671875
1700516439101517600,12.649517578125,-1.0690155029296875,-0.3521881103515625,-0.0254974365234375
1700516439111528700,12.65952880859375,-0.9676513671875,0.166717529296875,0.128082275390625
1700516439121538600,12.66953857421875,-0.960113525390625,-0.232513427734375,0.1854095458984375
1700516439131549700,12.6795498046875,-1.5754241943359375,-0.42486572265625,0.182220458984375
1700516439141559600,12.6895595703125,-1.2269287109375,0.234039306640625,0.33990478515625
1700516439151570400,12.6995703125,-0.6680450439453125,-0.229827880859375,0.2238922119140625
1700516439161580500,12.70958056640625,-1.004119873046875,-0.5296173095703125,-0.1068267822265625
1700516439171591700,12.719591796875,-0.9453125,0.1160430908203125,0.083831787109375
1700516439181602000,12.72960205078125,-0.9828643798828125,-0.2216339111328125,0.0615997314453125
1700516439191613000,12.739613037109375,-0.967315673828125,-0.2967376708984375,-0.140655517578125
1700516439201623000,12.749623046875,-0.9982147216796875,-0.022674560546875,0.022186279296875
1700516439211634000,12.759634033203126,-0.6571044921875,-0.0146636962890625,-0.0362091064453125
1700516439221644000,12.76964404296875,-0.9261627197265625,-0.1836090087890625,0.0906982421875
1700516439231655200,12.7796552734375,-1.1951904296875,-0.31121826171875,0.01824951171875
1700516439241665000,12.7896650390625,-0.7740020751953125,0.2429656982421875,0.077667236328125
1700516439251676200,12.79967626953125,-0.1507110595703125,-0.052703857421875,0.1402587890625
1700516439261686000,12.80968603515625,-0.37030029296875,-0.1817626953125,0.0016326904296875
1700516439271697200,12.819697265625,-1.688140869140625,0.0707855224609375,0.02398681640625
1700516439281707000,12.82970703125,-2.2858428955078125,-0.2149200439453125,0.2378997802734375
1700516439291718000,12.8397177734375,-2.568145751953125,-0.335601806640625,0.1648101806640625
1700516439301728000,12.84972802734375,-1.008880615234375,0.2384490966796875,0.3825225830078125
1700516439311739000,12.85973876953125,-0.1370697021484375,-0.559295654296875,0.07574462890625
1700516439321749000,12.8697490234375,-0.227630615234375,-0.3651580810546875,-0.1702880859375
