time,seconds_elapsed,z,y,x
1700516426513638700,0.061638671875,0.02372598461806774,0.023418908938765526,-0.0066463639959692955
1700516426523648800,0.071648681640625,0.013149505481123924,0.02598060481250286,0.1296323835849762
1700516426533658600,0.08165869140625,0.012298839166760445,-0.16651126742362976,-0.0036070202477276325
1700516426543668700,0.091668701171875,-0.030716272071003914,0.14023268222808838,-0.22972404956817627
1700516426553678800,0.101678955078125,-0.0006950491806492209,-0.08422864228487015,0.001995278988033533
1700516426563688700,0.111688720703125,0.031171802431344986,0.06698857247829437,0.13042329251766205
1700516426573698800,0.12169873046875,0.0353865809738636,-0.06097419187426567,0.0008156914263963699
1700516426583709700,0.131709716796875,-0.04391622915863991,0.11831779778003693,-0.20407354831695557
1700516426593719800,0.1417197265625,0.02752116695046425,-0.055545624345541,0.010111336596310139
1700516426603729700,0.151729736328125,0.020741824060678482,-0.007497937418520451,-0.03666282445192337
1700516426613739800,0.16173974609375,0.021321997046470642,0.05602308362722397,0.09042620658874512
1700516426623749600,0.17174951171875,0.01495970506221056,-0.214784175157547,-0.028005631640553474
1700516426633759700,0.181759765625,-0.02814546413719654,0.12686215341091156,-0.3282216191291809
1700516426643769900,0.191769775390625,-0.019758904352784157,-0.09544069319963455,-0.09533244371414185
1700516426653779700,0.20177978515625,0.01721758209168911,0.01571500115096569,0.07984346151351929
1700516426663789800,0.211789794921875,0.031169351190328598,-0.09160932898521423,-0.006751089356839657
1700516426673799700,0.221799560546875,-0.0635417178273201,0.064467653632164,-0.22252213954925537
1700516426683809800,0.231809814453125,-0.0021934020332992077,-0.05432929843664169,-0.026670880615711212
1700516426693819600,0.241819580078125,-0.005190164782106876,0.0029924586415290833,0.0242826696485281
1700516426703829800,0.251829833984375,0.0216560959815979,0.08175332099199295,0.14545463025569916
1700516426713839900,0.26183984375,0.0033000975381582975,-0.2883346676826477,0.06914743036031723
1700516426723849700,0.271849609375,-0.0400063619017601,0.17494191229343414,-0.323801189661026
1700516426733859800,0.28185986328125,-0.023456217721104622,-0.09071923792362213,-0.09068600833415985
1700516426743869700,0.29186962890625,0.012754516676068306,0.021193981170654297,0.06121803820133209
1700516426753879800,0.3018798828125,0.04487711191177368,-0.08713851124048233,0.02022688277065754
1700516426763889700,0.3118896484375,-0.05538291111588478,0.054011158645153046,-0.20123040676116943
1700516426773899800,0.321899658203125,0.010820784606039524,-0.0031220796518027782,-0.07927647978067398
1700516426783910000,0.331909912109375,0.006888095289468765,0.010464303195476532,-0.016304438933730125
1700516426793919700,0.341919677734375,0.03679163008928299,0.12379594147205353,0.12118685245513916
1700516426803929900,0.351929931640625,0.02933637797832489,-0.24402308464050293,0.13099579513072968
1700516426813939700,0.361939697265625,-0.033065665513277054,0.1479284167289734,-0.2820465564727783
1700516426823949800,0.37194970703125,-0.021809281781315804,-0.006339188665151596,-0.10886570066213608
1700516426833960000,0.3819599609375,0.02118864469230175,0.008369079791009426,0.11326024681329727
1700516426843969800,0.3919697265625,0.03995088115334511,-0.10379607230424881,0.09737209230661392
1700516426853980000,0.40197998046875,-0.05168875679373741,0.041787754744291306,-0.17005695402622223
1700516426863989800,0.41198974609375,-0.0064429836347699165,0.005721098743379116,-0.0597408227622509
1700516426874000000,0.421999755859375,-0.004366208799183369,-0.010748270899057388,0.031246598809957504
1700516426884009700,0.432009765625,0.024639343842864037,0.14442986249923706,0.1375565230846405
1700516426894019800,0.442019775390625,0.02447776310145855,-0.2567688524723053,0.17514194548130035
1700516426904030000,0.452030029296875,-0.03684311732649803,0.1543228179216385,-0.2608787715435028
1700516426914039800,0.462039794921875,-0.029020152986049652,-0.0171523354947567,-0.07882386445999146
1700516426924050000,0.4720498046875,0.026439644396305084,0.03366849943995476,0.1208232045173645
1700516426934059800,0.482059814453125,0.03871167451143265,-0.11237946152687073,0.1207505390048027
1700516426944070000,0.49206982421875,-0.05563480034470558,0.0352289080619812,-0.17412583529949188
1700516426954079700,0.502079833984375,-0.002463169163092971,0.026148801669478416,-0.06700139492750168
1700516426964089900,0.51208984375,-0.002799792680889368,-0.03984566032886505,0.045975763350725174
1700516426974100000,0.522099853515625,0.02715674415230751,0.13646303117275238,0.13356755673885345
1700516426984109800,0.53210986328125,0.019767537713050842,-0.22332923114299774,0.16294248402118683
1700516426994120000,0.542119873046875,-0.028814855962991714,0.13099099695682526,-0.2580801248550415
1700516427004129800,0.5521298828125,-0.028764521703124046,-0.0028991522267460823,-0.0809415653347969
1700516427014140000,0.562139892578125,0.024542968720197678,0.022760169580578804,0.12029989063739777
1700516427024150000,0.57214990234375,0.03961379826068878,-0.09250730276107788,0.10817638039588928
1700516427034159900,0.582159912109375,-0.04659917950630188,0.026339862495660782,-0.19154559075832367
1700516427044170000,0.592169921875,-0.013270249590277672,0.04252469167113304,-0.0604778490960598
1700516427054179800,0.602179931640625,-0.009570229798555374,-0.07138894498348236,0.02419796958565712
1700516427064190000,0.61218994140625,0.01320032961666584,0.14677694439888,0.09725753217935562
1700516427074199800,0.62219970703125,0.02049155905842781,-0.22812844812870026,0.18922117352485657
1700516427084210000,0.6322099609375,-0.02935216575860977,0.12669408321380615,-0.23694372177124023
1700516427094220000,0.642219970703125,-0.026358919218182564,0.0014211104717105627,-0.07816718518733978
1700516427104230000,0.65222998046875,0.027140257880091667,0.02327953651547432,0.11753520369529724
1700516427114240000,0.662239990234375,0.03368240222334862,-0.06822609901428223,0.11139881610870361
1700516427124249600,0.67224951171875,-0.0352599136531353,0.0221333596855402,-0.16300317645072937
1700516427134259700,0.682259765625,-0.002612488344311714,0.051295507699251175,-0.04881668835878372
1700516427144269800,0.692269775390625,-0.007586208172142506,-0.05121568590402603,0.02743946947157383
1700516427154279700,0.70227978515625,0.022342190146446228,0.15462903678417206,0.07130864262580872
1700516427164289800,0.712289794921875,0.01886969432234764,-0.2103545218706131,0.16755715012550354
1700516427174299100,0.722299072265625,-0.028748570010066032,0.0967051163315773,-0.26061445474624634
1700516427184309200,0.732309326171875,-0.03127750754356384,-0.0033322663512080908,-0.09544016420841217
1700516427194319400,0.7423193359375,0.031295474618673325,0.0036119050346314907,0.11068052053451538
1700516427204329200,0.7523291015625,0.03469100221991539,-0.04874743893742561,0.0842912569642067
1700516427214339300,0.76233935546875,-0.03897499293088913,0.008663835935294628,-0.18281827867031097
1700516427224349200,0.77234912109375,-0.00016314839012920856,0.03800787776708603,-0.038368966430425644
1700516427234359300,0.782359375,-0.007062389515340328,-0.048381369560956955,0.041951484978199005
1700516427244368400,0.792368408203125,0.01846161298453808,0.14194169640541077,0.09474945068359375
1700516427254378200,0.802378173828125,0.007280741818249226,-0.1908818781375885,0.14325924217700958
1700516427264388400,0.812388427734375,-0.029629606753587723,0.11433342099189758,-0.22752495110034943
1700516427274398200,0.822398193359375,-0.018829956650733948,-0.037542663514614105,-0.0295221246778965
1700516427284408300,0.832408203125,0.024506332352757454,0.04569896310567856,0.1252666562795639
1700516427294418400,0.84241845703125,0.03060317039489746,-0.0731278583407402,0.0857464000582695
1700516427304428300,0.85242822265625,-0.048829335719347,0.01167251542210579,-0.18487630784511566
1700516427314438400,0.8624384765625,0.006829068996012211,0.033110734075307846,-0.013364195823669434
1700516427324448300,0.8724482421875,-0.003302927128970623,-0.029096713289618492,0.06139339879155159
1700516427334458400,0.882458251953125,0.021280860528349876,0.13862188160419464,0.09649763256311417
1700516427344468500,0.892468505859375,0.009571473114192486,-0.1789957582950592,0.13837771117687225
1700516427354478300,0.902478271484375,-0.026497460901737213,0.10680606216192245,-0.22309055924415588
1700516427364488400,0.912488525390625,-0.01630687527358532,-0.0446268692612648,-0.023741228505969048
1700516427374498300,0.922498291015625,0.020744415000081062,0.06705427914857864,0.11378229409456253
1700516427384508400,0.93250830078125,0.02717568166553974,-0.07286234200000763,0.08199001103639603
1700516427394518300,0.942518310546875,-0.04995736479759216,0.027727525681257248,-0.19468730688095093
1700516427404528400,0.9525283203125,0.007124297320842743,0.02534293197095394,-0.013313522562384605
1700516427414538500,0.96253857421875,-0.006917813792824745,-0.025744447484612465,0.056882355362176895
1700516427424548400,0.97254833984375,0.02188720367848873,0.13863570988178253,0.07744835317134857
1700516427434558500,0.982558349609375,0.006495020352303982,-0.18203094601631165,0.13782493770122528
1700516427444568000,0.992568115234375,-0.024522017687559128,0.10683521628379822,-0.21590650081634521
1700516427454578200,1.002578125,-0.018023254349827766,-0.05338562652468681,-0.00927188340574503
1700516427464588300,1.01258837890625,0.01828947849571705,0.06493036448955536,0.1078435555100441
1700516427474598100,1.02259814453125,0.02292631007730961,-0.06475845724344254,0.07994350790977478
1700516427484608300,1.032608154296875,-0.04427722841501236,0.03221070021390915,-0.17983853816986084
1700516427494618000,1.0426181640625,0.0016257253009825945,0.012612154707312584,-0.005353126209229231
1700516427504628200,1.052628173828125,-0.005925667472183704,-0.01990663819015026,0.057067107409238815
1700516427514638000,1.06263818359375,0.013419358059763908,0.13523881137371063,0.08023592084646225
1700516427524648200,1.072648193359375,0.0065217711962759495,-0.17293205857276917,0.14792069792747498
1700516427534658300,1.082658203125,-0.025761589407920837,0.10619484633207321,-0.21494588255882263
1700516427544668200,1.092668212890625,-0.02041476219892502,-0.043980807065963745,-0.021061629056930542
1700516427554678300,1.10267822265625,0.021202415227890015,0.059343136847019196,0.10627272725105286
1700516427564688100,1.112688232421875,0.02183784544467926,-0.0518459677696228,0.0870729312300682
1700516427574698200,1.1226982421875,-0.035990361124277115,0.028491351753473282,-0.19029474258422852
1700516427584708000,1.1327080078125,-0.00368674797937274,0.01087587233632803,-0.006295870989561081
1700516427594718200,1.14271826171875,-0.0011366214603185654,-0.02602105215191841,0.06230004131793976
1700516427604728300,1.152728271484375,0.011211657896637917,0.13768745958805084,0.07268370687961578
1700516427614738200,1.16273828125,0.011316467076539993,-0.1790979504585266,0.15006962418556213
1700516427624748300,1.172748291015625,-0.030616601929068565,0.10319766402244568,-0.2226000875234604
1700516427634758100,1.182758056640625,-0.02089206501841545,-0.03976578637957573,-0.025569289922714233
1700516427644768300,1.192768310546875,0.021037274971604347,0.05102004110813141,0.11175475269556046
1700516427654778400,1.2027783203125,0.016066543757915497,-0.06348004192113876,0.0810423493385315
1700516427664788200,1.212788330078125,-0.038170862942934036,0.024050872772932053,-0.20152409374713898
1700516427674798300,1.22279833984375,-0.005739186890423298,0.007661832496523857,-0.007915366441011429
1700516427684808200,1.23280810546875,-0.006434005685150623,-0.028587251901626587,0.07022257894277573
1700516427694818300,1.242818359375,0.004737549927085638,0.13128435611724854,0.08026880025863647
1700516427704828200,1.252828125,0.0019745202735066414,-0.18074889481067657,0.1216450035572052
1700516427714838300,1.26283837890625,-0.03361310437321663,0.09912583231925964,-0.23121799528598785
1700516427724848400,1.272848388671875,-0.019993431866168976,-0.055703163146972656,-0.032265208661556244
1700516427734858200,1.282858154296875,0.023088322952389717,0.06498567014932632,0.11753518879413605
1700516427744867300,1.292867431640625,0.023809771984815598,-0.07030211389064789,0.08781750500202179
1700516427754877400,1.30287744140625,-0.03491944074630737,0.04758298024535179,-0.22042761743068695
1700516427764887300,1.31288720703125,-0.0034328866750001907,0.017588598653674126,-0.02389112114906311
1700516427774897400,1.3228974609375,0.000398511067032814,-0.028270313516259193,0.08920256793498993
1700516427784907300,1.3329072265625,0.011127854697406292,0.14557631313800812,0.09003932774066925
1700516427794917400,1.34291748046875,0.007859719917178154,-0.18627174198627472,0.14105311036109924
1700516427804927200,1.35292724609375,-0.03073534369468689,0.11522124707698822,-0.23446351289749146
1700516427814937300,1.362937255859375,-0.014789877459406853,-0.06298920512199402,-0.019097724929451942
1700516427824947500,1.372947509765625,0.018307089805603027,0.058579303324222565,0.12641818821430206
1700516427834957300,1.382957275390625,0.019843967631459236,-0.0703313872218132,0.10311301052570343
1700516427844967400,1.392967529296875,-0.04361782968044281,0.03743875026702881,-0.20487837493419647
1700516427854977300,1.402977294921875,-0.0012924122856929898,0.01725328527390957,-0.031360384076833725
1700516427864987400,1.4129873046875,-0.0014346250100061297,-0.03703152388334274,0.09560501575469971
1700516427874997500,1.42299755859375,0.01123078353703022,0.13216227293014526,0.10049755871295929
1700516427885007400,1.43300732421875,0.0098129166290164,-0.16756559908390045,0.13628031313419342
1700516427895017500,1.443017578125,-0.032777756452560425,0.10889390110969543,-0.2381817102432251
1700516427905027300,1.45302734375,-0.01674259826540947,-0.04831516370177269,-0.038799092173576355
1700516427915037200,1.463037109375,0.019548356533050537,0.04615074768662453,0.12234369665384293
1700516427925047000,1.473047119140625,0.023571595549583435,-0.06105586513876915,0.1008320078253746
1700516427935057200,1.48305712890625,-0.037428807467222214,0.025604108348488808,-0.21022479236125946
1700516427945067300,1.4930673828125,-0.004292422439903021,0.030504591763019562,-0.04618019610643387
1700516427955077000,1.5030771484375,-0.00015825137961655855,-0.05241398885846138,0.08946024626493454
1700516427965087200,1.513087158203125,0.006907381117343903,0.13316865265369415,0.07853516191244125
1700516427975097000,1.52309716796875,0.011783410795032978,-0.1690157800912857,0.1511264592409134
1700516427985107200,1.533107177734375,-0.03438808023929596,0.08911590278148651,-0.23354318737983704
1700516427995117300,1.543117431640625,-0.024885034188628197,-0.030414074659347534,-0.047121819108724594
1700516428005127200,1.553127197265625,0.01812368631362915,0.019781185314059258,0.12335164844989777
1700516428015137300,1.56313720703125,0.023388834670186043,-0.050405193120241165,0.09992971271276474
1700516428025147100,1.573147216796875,-0.03795814886689186,0.00023002165835350752,-0.19037587940692902
1700516428035157200,1.5831572265625,-0.008806832134723663,0.03615620732307434,-0.059250541031360626
1700516428045167000,1.5931669921875,-0.0029832981526851654,-0.07512318342924118,0.09366311132907867
1700516428055177200,1.60317724609375,0.005626486614346504,0.12944170832633972,0.084452785551548
1700516428065187300,1.613187255859375,0.01026810985058546,-0.14979471266269684,0.17345376312732697
1700516428075197200,1.623197265625,-0.037744224071502686,0.06923912465572357,-0.2221185863018036
1700516428085206300,1.633206298828125,-0.030045822262763977,0.0010475536109879613,-0.06607946008443832
1700516428095217200,1.643217041015625,0.0169384628534317,0.003370096441358328,0.12953798472881317
1700516428105226200,1.653226318359375,0.021411508321762085,-0.02661816217005253,0.10586193948984146
1700516428115236400,1.663236328125,-0.03120868280529976,-0.007773194462060928,-0.17415794730186462
1700516428125246200,1.67324609375,-0.014968193136155605,0.050263211131095886,-0.0713929608464241
1700516428135256300,1.68325634765625,-0.00375275406986475,-0.08187425881624222,0.07877019047737122
1700516428145266200,1.69326611328125,0.005261779762804508,0.1328210085630417,0.08224960416555405
1700516428155276300,1.7032763671875,0.009310693480074406,-0.15961693227291107,0.15351437032222748
1700516428165286400,1.713286376953125,-0.03420243039727211,0.07678043097257614,-0.20555831491947174
1700516428175296800,1.723296875,-0.023447774350643158,-0.026730051264166832,-0.06153078377246857
1700516428185307000,1.733306884765625,0.016037316992878914,0.03304140269756317,0.11345833539962769
1700516428195316700,1.743316650390625,0.0216316320002079,-0.04416359215974808,0.12204975634813309
1700516428205326800,1.753326904296875,-0.028710633516311646,0.003485951106995344,-0.17605091631412506
1700516428215336700,1.763336669921875,-0.017373114824295044,0.058193426579236984,-0.08247365802526474
1700516428225346800,1.773346923828125,0.005618220195174217,-0.08251947909593582,0.09152796864509583
1700516428235357000,1.78335693359375,0.0016600610688328743,0.1264556497335434,0.07144438475370407
1700516428245366800,1.79336669921875,0.01385281141847372,-0.11693011224269867,0.17255796492099762
1700516428255377000,1.803376953125,-0.0329844132065773,0.06331772357225418,-0.20012564957141876
1700516428265386800,1.81338671875,-0.02438133955001831,0.00259551964700222,-0.07328061759471893
1700516428275396900,1.82339697265625,0.01423568744212389,0.011512941680848598,0.1147526353597641
1700516428285406700,1.83340673828125,0.023065665736794472,-0.035725679248571396,0.11792285740375519
1700516428295416800,1.843416748046875,-0.022670991718769073,-0.008826814591884613,-0.1659996509552002
1700516428305427000,1.853427001953125,-0.0174219012260437,0.0767940804362297,-0.08651652932167053
1700516428315436800,1.863436767578125,0.006576335057616234,-0.09992028772830963,0.09622035920619965
1700516428325447000,1.873447021484375,0.006513218395411968,0.12742871046066284,0.07095761597156525
1700516428335456800,1.883456787109375,0.013953032903373241,-0.11248940974473953,0.15491406619548798
1700516428345467000,1.893466796875,-0.038109369575977325,0.05855211243033409,-0.1757836937904358
1700516428355476700,1.903476806640625,-0.01590103656053543,0.0057359193451702595,-0.0730193629860878
1700516428365486800,1.91348681640625,0.009368634782731533,0.009676332585513592,0.1025356873869896
1700516428375497000,1.9234970703125,0.01702520251274109,-0.022659683600068092,0.12315697968006134
1700516428385506800,1.9335068359375,-0.020713919773697853,-0.030857691541314125,-0.14043444395065308
1700516428395517000,1.943516845703125,-0.02585678920149803,0.09224777668714523,-0.10344994813203812
1700516428405526800,1.95352685546875,0.010506544262170792,-0.11717921495437622,0.10087469965219498
1700516428415537000,1.963536865234375,0.003758325707167387,0.10298729687929153,0.055133163928985596
1700516428425547000,1.973547119140625,0.017550304532051086,-0.049064554274082184,0.1948830634355545
1700516428435555800,1.983555908203125,-0.01958972029387951,0.004125368781387806,-0.12732070684432983
1700516428445566000,1.99356591796875,-0.02766362577676773,0.07697747647762299,-0.13347554206848145
1700516428455576000,2.003576171875,0.008725568652153015,-0.04360432177782059,0.10598669201135635
1700516428465586000,2.0135859375,0.02378867380321026,0.03321428969502449,0.12600593268871307
1700516428475596000,2.023595947265625,0.0009798790561035275,-0.051864851266145706,-0.10253384709358215
1700516428485606000,2.03360595703125,-0.03639012947678566,0.09606628119945526,-0.13058891892433167
1700516428495616000,2.043615966796875,0.01382493507117033,-0.1023065522313118,0.08080334961414337
1700516428505625900,2.0536259765625,0.011083743534982204,0.08910921961069107,0.04598119109869003
1700516428515636000,2.063635986328125,0.017833024263381958,-0.05363316833972931,0.18263769149780273
1700516428525646000,2.07364599609375,-0.01813802495598793,-0.016951054334640503,-0.09241224825382233
1700516428535656000,2.083656005859375,-0.023301362991333008,0.05604246258735657,-0.13397885859012604
1700516428545666000,2.093666015625,0.0023401924408972263,-0.041371747851371765,0.08001187443733215
1700516428555676000,2.103676025390625,0.016454126685857773,0.03820022568106651,0.13026805222034454
1700516428565686000,2.11368603515625,0.012552596628665924,-0.08906158804893494,-0.07584276795387268
1700516428575696000,2.12369580078125,-0.0383383184671402,0.08674251288175583,-0.14706170558929443
1700516428585706000,2.1337060546875,0.01513689011335373,-0.08678160607814789,0.08565836399793625
1700516428595716000,2.143716064453125,0.01582452282309532,0.05434632673859596,0.04705878719687462
1700516428605726000,2.153725830078125,0.024821745231747627,0.0034152334555983543,0.1676216870546341
1700516428615736000,2.163736083984375,-0.0047591435723006725,-0.07318028807640076,-0.04594344273209572
1700516428625746000,2.173745849609375,-0.019612392410635948,0.09901677817106247,-0.18485312163829803
1700516428635756000,2.183756103515625,0.006848510354757309,-0.06926490366458893,0.07517340034246445
1700516428645766000,2.193765869140625,0.01714908331632614,0.0502801313996315,0.134559765458107
1700516428655775700,2.203775634765625,0.01856091618537903,-0.08168191462755203,-0.05322469025850296
1700516428665785900,2.213785888671875,-0.04231761395931244,0.09422945976257324,-0.18675479292869568
1700516428675795700,2.223795654296875,0.018298594281077385,-0.08555461466312408,0.08083374798297882
1700516428685805800,2.233805908203125,0.031475912779569626,0.05412285402417183,0.058966264128685
1700516428695815700,2.243815673828125,0.03372599557042122,0.026042766869068146,0.15400430560112
1700516428705825800,2.25382568359375,-0.003934561274945736,-0.09722297638654709,-0.02783314138650894
1700516428715836000,2.2638359375,-0.012037149630486965,0.10727312415838242,-0.1912185549736023
1700516428725845800,2.273845703125,0.0033436715602874756,-0.07752761989831924,0.07718120515346527
1700516428735855900,2.28385595703125,0.016857201233506203,0.05817267671227455,0.1392570436000824
1700516428745865700,2.29386572265625,0.02658679336309433,-0.07173365354537964,-0.02562272548675537
1700516428755875800,2.303875732421875,-0.04714350029826164,0.08641815185546875,-0.1931886076927185
1700516428765886000,2.313885986328125,0.023624945431947708,-0.05549903213977814,0.06585334241390228
1700516428775895800,2.323895751953125,0.02839520014822483,0.04558230936527252,0.06624642014503479
1700516428785906000,2.333906005859375,0.03885449841618538,0.051734209060668945,0.1430935263633728
1700516428795915000,2.3439150390625,0.0012040591100230813,-0.10191420465707779,-0.0003608334809541702
1700516428805926000,2.35392578125,-0.00625572120770812,0.09940426051616669,-0.19040746986865997
1700516428815935000,2.36393505859375,0.0003307522274553776,-0.07731221616268158,0.04854656755924225
1700516428825944800,2.37394482421875,0.020029090344905853,0.05215442553162575,0.13283587992191315
1700516428835955000,2.383954833984375,0.026080409064888954,-0.07093693315982819,0.004495537374168634
1700516428845964800,2.39396484375,-0.044202011078596115,0.06639616191387177,-0.20943166315555573
1700516428855975000,2.403974853515625,0.019182322546839714,-0.04799947142601013,0.03490893915295601
1700516428865985000,2.413985107421875,0.00757280457764864,0.02026134356856346,0.07957121729850769
1700516428875995000,2.423994873046875,0.03724505752325058,0.09487931430339813,0.10837885737419128
1700516428886005000,2.4340048828125,-0.004930621944367886,-0.14935359358787537,0.026854176074266434
1700516428896014800,2.444014892578125,-0.010833133943378925,0.1229330375790596,-0.22074609994888306
1700516428906025000,2.45402490234375,-0.00010964937973767519,-0.08937069773674011,0.04053504392504692
1700516428916034800,2.464034912109375,0.01830705627799034,0.05031440407037735,0.11899980157613754
1700516428926045000,2.474044921875,0.025734612718224525,-0.05805095285177231,0.028951134532690048
1700516428936055000,2.484054931640625,-0.04553421214222908,0.05294225737452507,-0.20296479761600494
1700516428946065000,2.49406494140625,0.01353123877197504,-0.030133450403809547,0.01326737366616726
1700516428956075000,2.504074951171875,-0.0076743559911847115,0.018221106380224228,0.0941612720489502
1700516428966084900,2.5140849609375,0.02095755562186241,0.12713241577148438,0.09954245388507843
1700516428976095000,2.524094970703125,-0.007753659971058369,-0.15070602297782898,0.06464698165655136
1700516428986105000,2.53410498046875,-0.007655921392142773,0.11839521676301956,-0.2254258543252945
1700516428996115000,2.544114990234375,-0.007369575090706348,-0.06670890003442764,0.022159429267048836
1700516429006125000,2.554125,0.015910979360342026,0.039107806980609894,0.11996668577194214
1700516429016135000,2.564135009765625,0.026712791994214058,-0.04164188355207443,0.044280823320150375
1700516429026145000,2.57414501953125,-0.039423082023859024,0.036261435598134995,-0.1955413520336151
1700516429036155000,2.58415478515625,0.0053513990715146065,0.0021817400120198727,-0.009628383442759514
1700516429046165000,2.5941650390625,-0.00729355588555336,-0.013326912187039852,0.09060420840978622
1700516429056175000,2.604175048828125,0.007327883504331112,0.14268699288368225,0.07750042527914047
1700516429066185000,2.61418505859375,0.0004992724861949682,-0.12343362718820572,0.10104463249444962
1700516429076195000,2.624195068359375,-0.012517552822828293,0.08642714470624924,-0.2278592884540558
1700516429086205000,2.634204833984375,-0.01767476461827755,-0.05437151715159416,-0.012179732322692871
1700516429096215000,2.644215087890625,0.010472544468939304,0.026195012032985687,0.10753369331359863
1700516429106225000,2.654224853515625,0.023315638303756714,-0.04209483042359352,0.0640258938074112
1700516429116235000,2.664235107421875,-0.033096231520175934,0.014786731451749802,-0.1821814775466919
1700516429126244900,2.674244873046875,-0.001566801918670535,0.019568704068660736,-0.04632432013750076
1700516429136254700,2.684254638671875,-0.003387669799849391,-0.06594010442495346,0.09099869430065155
1700516429146264800,2.694264892578125,0.0016289267223328352,0.13708731532096863,0.07098396122455597
1700516429156274700,2.704274658203125,0.0037646605633199215,-0.11474855244159698,0.1410541981458664
1700516429166284800,2.714284912109375,-0.022907696664333344,0.07371802628040314,-0.21434544026851654
1700516429176298500,2.724298583984375,-0.030206210911273956,-0.030446616932749748,-0.044500682502985
1700516429186308600,2.73430859375,0.009802991524338722,0.008917833678424358,0.11215551197528839
1700516429196318700,2.744318603515625,0.017578372731804848,-0.02316981740295887,0.089115671813488
1700516429206328600,2.75432861328125,-0.022170372307300568,0.004336642101407051,-0.16593019664287567
1700516429216338700,2.764338623046875,-0.012780047953128815,0.04907209798693657,-0.0760374665260315
1700516429226348500,2.7743486328125,0.003328348509967327,-0.09607896953821182,0.09471829980611801
1700516429236358700,2.784358642578125,-0.0012283516116440296,0.11948446184396744,0.07315456867218018
1700516429246368800,2.79436865234375,0.011693306267261505,-0.08645378798246384,0.15660683810710907
1700516429256378600,2.804378662109375,-0.02988189458847046,0.05138477310538292,-0.18965373933315277
1700516429266388700,2.814388671875,-0.028360962867736816,-0.0011396848130971193,-0.07267225533723831
1700516429276398600,2.824398681640625,0.013595515862107277,0.0030651986598968506,0.10955588519573212
1700516429286408700,2.83440869140625,0.00982101820409298,-0.013790479861199856,0.10276535898447037
1700516429296418600,2.84441845703125,-0.014573334716260433,-0.017013471573591232,-0.14676879346370697
1700516429306428700,2.8544287109375,-0.024404926225543022,0.05751296132802963,-0.10282370448112488
1700516429316438800,2.864438720703125,0.009899179451167583,-0.1030433252453804,0.09115470945835114
1700516429326448600,2.87444873046875,0.002544327639043331,0.1005508080124855,0.05670591816306114
1700516429336458800,2.884458740234375,0.011048242449760437,-0.08584451675415039,0.16040506958961487
1700516429346468600,2.894468505859375,-0.025989403948187828,0.03332129493355751,-0.1509576141834259
1700516429356478700,2.904478759765625,-0.025111883878707886,0.017844239249825478,-0.08689607679843903
1700516429366488600,2.914488525390625,0.009841307066380978,-0.013885462656617165,0.09087338298559189
1700516429376498700,2.924498779296875,0.008158938959240913,0.005304650869220495,0.11878027766942978
1700516429386508800,2.9345087890625,0.006322422996163368,-0.05225931107997894,-0.12143312394618988
1700516429396518700,2.9445185546875,-0.03578183799982071,0.05644755810499191,-0.11990382522344589
1700516429406528800,2.95452880859375,0.01795089803636074,-0.08566378057003021,0.08967868983745575
1700516429416538600,2.96453857421875,0.007154327817261219,0.05097077414393425,0.0501161590218544
1700516429426548700,2.974548828125,0.023545552045106888,-0.041971947997808456,0.15404069423675537
1700516429436558800,2.984558837890625,-0.00979391299188137,-0.006214492954313755,-0.10131976008415222
1700516429446568700,2.994568603515625,-0.020909948274493217,0.056100279092788696,-0.12327006459236145
1700516429456578800,3.004578857421875,0.008595723658800125,-0.04253852367401123,0.08477036654949188
1700516429466588700,3.014588623046875,0.007572270464152098,0.03527531400322914,0.12377475202083588
1700516429476598800,3.024598876953125,0.011994588188827038,-0.055601224303245544,-0.08556854724884033
1700516429486608600,3.034608642578125,-0.03947499394416809,0.06931380927562714,-0.15895408391952515
1700516429496618800,3.04461865234375,0.01379001047462225,-0.07887084037065506,0.08604706078767776
1700516429506628900,3.05462890625,0.025228288024663925,0.04543806239962578,0.05171278491616249
1700516429516638700,3.064638671875,0.0321350134909153,-0.0006434664828702807,0.14550262689590454
1700516429526648800,3.07464892578125,0.001296140835620463,-0.052794020622968674,-0.06755531579256058
1700516429536658700,3.08465869140625,-0.014016125351190567,0.07825007289648056,-0.16281384229660034
1700516429546668800,3.094668701171875,0.011425318196415901,-0.06984405219554901,0.07816283404827118
1700516429556678700,3.1046787109375,0.011480795219540596,0.04156467318534851,0.12244793772697449
1700516429566688800,3.114688720703125,0.019727807492017746,-0.06273403763771057,-0.05581527575850487
1700516429576699000,3.124698974609375,-0.042405080050230026,0.06865660101175308,-0.17698852717876434
1700516429586708700,3.134708740234375,0.014386563561856747,-0.06234482303261757,0.07345966249704361
1700516429596718800,3.14471875,0.02047785557806492,0.04409662261605263,0.06374568492174149
1700516429606728700,3.154728759765625,0.03286927938461304,0.057690996676683426,0.13171489536762238
1700516429616738800,3.16473876953125,-0.0023798784241080284,-0.10832731425762177,-0.028498120605945587
1700516429626749000,3.1747490234375,-0.011471377685666084,0.10306801646947861,-0.19948530197143555
1700516429636758800,3.1847587890625,0.008520210161805153,-0.08768819272518158,0.06800984591245651
1700516429646769000,3.194768798828125,0.014354664832353592,0.040604524314403534,0.12046373635530472
1700516429656778500,3.204778564453125,0.022953802719712257,-0.06102556735277176,-0.0302744060754776
1700516429666788600,3.21478857421875,-0.05412020906805992,0.06367961317300797,-0.19653315842151642
1700516429676798500,3.224798583984375,0.015330540016293526,-0.05871019512414932,0.058563172817230225
1700516429686808600,3.23480859375,0.01817799173295498,0.026111483573913574,0.07481778413057327
1700516429696818700,3.244818603515625,0.0345381535589695,0.07361583411693573,0.12374135851860046
1700516429706828500,3.25482861328125,0.00010401266627013683,-0.12389350682497025,-0.013223415240645409
1700516429716838700,3.264838623046875,-0.006647767499089241,0.10394587367773056,-0.21051165461540222
1700516429726848500,3.2748486328125,0.00843051727861166,-0.0874997153878212,0.05603373795747757
1700516429736858600,3.284858642578125,0.0137514378875494,0.03470398113131523,0.12510140240192413
1700516429746868700,3.29486865234375,0.024592634290456772,-0.0556967556476593,-0.024152260273694992
1700516429756878600,3.304878662109375,-0.051685262471437454,0.054467979818582535,-0.21211141347885132
1700516429766888700,3.314888671875,0.02025763690471649,-0.05990919470787048,0.05190584808588028
1700516429776898600,3.324898681640625,0.018613893538713455,0.011639272794127464,0.07116890698671341
1700516429786908700,3.33490869140625,0.029455356299877167,0.07726062834262848,0.11400371789932251
1700516429796918500,3.34491845703125,0.012270347215235233,-0.122650146484375,-0.024515824392437935
1700516429806928600,3.3549287109375,-0.011768409982323647,0.08600559085607529,-0.20178700983524323
1700516429816938800,3.364938720703125,0.0033402687404304743,-0.08433396369218826,0.040434904396533966
1700516429826948600,3.374948486328125,0.015179350972175598,0.02978302352130413,0.11012290418148041
1700516429836959500,3.38495947265625,0.024631744250655174,-0.05351724103093147,-0.02016429789364338
1700516429846969600,3.394969482421875,-0.048778556287288666,0.06101759150624275,-0.22705115377902985
1700516429856979700,3.404979736328125,0.015109204687178135,-0.06102696433663368,0.02543008141219616
1700516429866989600,3.414989501953125,0.01176747027784586,-0.00043605396058410406,0.07239998131990433
1700516429876999700,3.424999755859375,0.030551081523299217,0.11102625727653503,0.08903896808624268
1700516429887009500,3.435009521484375,-0.0011067109880968928,-0.1840658336877823,0.004647119902074337
1700516429897019600,3.44501953125,-0.013606932945549488,0.11925815045833588,-0.248774915933609
1700516429907029500,3.455029541015625,-0.005821714177727699,-0.08562974631786346,0.004995566327124834
1700516429917039600,3.46503955078125,0.01578451134264469,0.018456440418958664,0.09055893868207932
1700516429927049700,3.4750498046875,0.014752802439033985,-0.08181716501712799,-0.0123666450381279
1700516429937059600,3.4850595703125,-0.054635271430015564,0.03547070547938347,-0.27098146080970764
1700516429947069700,3.495069580078125,-0.0075529795140028,-0.03614355996251106,-0.05661217123270035
1700516429957079600,3.50507958984375,-0.004482661373913288,-0.03490098565816879,0.017815660685300827
1700516429967089700,3.515089599609375,0.017899610102176666,0.10294636338949203,0.08188332617282867
1700516429977099800,3.525099853515625,-0.0020735813304781914,-0.2188599705696106,0.06759636849164963
1700516429987109600,3.535109619140625,-0.038523733615875244,0.13039016723632812,-0.28936177492141724
1700516429997119700,3.54511962890625,-0.029916398227214813,-0.036042220890522,-0.07528915256261826
1700516430007129600,3.555129638671875,0.006652265787124634,0.010914900340139866,0.09064442664384842
1700516430017139700,3.5651396484375,0.023661483079195023,-0.13029983639717102,0.05152946338057518
1700516430027149600,3.575149658203125,-0.062367938458919525,0.04215448349714279,-0.20931464433670044
1700516430037159700,3.58515966796875,-0.014798599295318127,0.047359343618154526,-0.0764419436454773
1700516430047169800,3.595169677734375,-0.0012564255157485604,-0.016011906787753105,0.009513179771602154
1700516430057179600,3.6051796875,0.02146615833044052,0.11679535359144211,0.08260330557823181
1700516430067190500,3.6151904296875,-0.00031983107328414917,-0.21847984194755554,0.1273324191570282
1700516430077200600,3.62520068359375,-0.03918721154332161,0.088934525847435,-0.24273079633712769
1700516430087210800,3.635210693359375,-0.034455038607120514,0.01438705250620842,-0.08516514301300049
1700516430097220600,3.645220703125,0.018411189317703247,0.027111943811178207,0.08610726147890091
1700516430107230700,3.655230712890625,0.03599071502685547,-0.07617716491222382,0.068281389772892
1700516430117240600,3.665240478515625,-0.046164337545633316,0.012165877968072891,-0.2095220386981964
1700516430127250700,3.675250732421875,-0.024014027789235115,0.06198004260659218,-0.09193628281354904
1700516430137260800,3.6852607421875,0.005048645660281181,-0.07188302278518677,0.06381138414144516
1700516430147270700,3.695270751953125,0.005677151493728161,0.11727278679609299,0.09895046055316925
1700516430157280800,3.70528076171875,0.015162356197834015,-0.17039357125759125,0.1703050583600998
1700516430167290600,3.71529052734375,-0.025444990023970604,0.10572084039449692,-0.23280936479568481
1700516430177300700,3.72530078125,-0.022538818418979645,0.08117015659809113,-0.08377553522586823
1700516430187310600,3.735310546875,0.025599149987101555,0.013489117845892906,0.14778606593608856
1700516430197320700,3.74532080078125,0.0336652547121048,-0.08026887476444244,0.16527672111988068
1700516430207330800,3.755330810546875,-0.03852984681725502,0.02566501498222351,-0.16293364763259888
1700516430217340700,3.765340576171875,-0.0217715073376894,0.06413726508617401,-0.10523837804794312
1700516430227351600,3.7753515625,-0.005241000093519688,-0.11218290030956268,0.03071492165327072
1700516430237361700,3.785361572265625,0.010042192414402962,0.08670567721128464,0.07760539650917053
1700516430247371800,3.795371826171875,0.00762563943862915,-0.16084632277488708,0.17128528654575348
1700516430257381600,3.805381591796875,-0.03245798498392105,0.04062426835298538,-0.23046761751174927
1700516430267391700,3.815391845703125,-0.03482554107904434,0.07368794828653336,-0.15688712894916534
1700516430277401600,3.825401611328125,0.011727897450327873,-0.018755676224827766,0.08946763724088669
1700516430287411700,3.83541162109375,0.0340968519449234,-0.07534199208021164,0.14088955521583557
1700516430297421600,3.845421630859375,-0.03272146359086037,-0.03955812007188797,-0.141251340508461
1700516430307431700,3.855431640625,-0.023257918655872345,0.12753792107105255,-0.13951469957828522
1700516430317441800,3.86544189453125,0.004176517482846975,-0.13210785388946533,0.048221077769994736
1700516430327451600,3.87545166015625,0.010247459635138512,0.08994944393634796,0.09203726798295975
1700516430337461800,3.885461669921875,0.012141185812652111,-0.1545141190290451,0.21466584503650665
1700516430347471600,3.8954716796875,-0.03695711866021156,0.021018289029598236,-0.18569514155387878
1700516430357482800,3.905482666015625,-0.03571562096476555,0.07851319760084152,-0.14976820349693298
1700516430367492600,3.91549267578125,0.0028685228899121284,-0.03774895891547203,0.10278680920600891
1700516430377502700,3.925502685546875,0.030293848365545273,-0.05646757781505585,0.16105614602565765
1700516430387512600,3.9355126953125,-0.038227956742048264,-0.06511859595775604,-0.11847537755966187
1700516430397522700,3.945522705078125,-0.029515212401747704,0.1282515525817871,-0.14278094470500946
1700516430407532800,3.95553271484375,-0.001847897656261921,-0.12216442823410034,0.054918013513088226
1700516430417542700,3.965542724609375,0.007628760300576687,0.09162915498018265,0.10392141342163086
1700516430427552800,3.975552734375,0.018286198377609253,-0.12698307633399963,0.20395852625370026
1700516430437562600,3.985562744140625,-0.04250745475292206,0.039078209549188614,-0.1524149775505066
1700516430447572700,3.99557275390625,-0.0213457103818655,0.06307542324066162,-0.12667791545391083
1700516430457582600,4.00558251953125,0.003651144914329052,0.003131138626486063,0.09592220187187195
1700516430467592700,4.0155927734375,0.03169076889753342,-0.015590617433190346,0.1694808304309845
1700516430477603600,4.025603515625,-0.01798059046268463,-0.06412569433450699,-0.10197430849075317
1700516430487613700,4.03561376953125,-0.027076084166765213,0.16061820089817047,-0.13703960180282593
1700516430497623800,4.045623779296875,0.018314246088266373,-0.10082817822694778,0.08159369230270386
1700516430507633700,4.055633544921875,0.014786623418331146,0.09607583284378052,0.08714984357357025
1700516430517643800,4.065643798828125,0.031213954091072083,-0.0290030837059021,0.2150968462228775
1700516430527653600,4.075653564453125,-0.025344129651784897,-0.03560426086187363,-0.09772948920726776
1700516430537663700,4.085663818359375,-0.01917257532477379,0.13998837769031525,-0.1788526475429535
1700516430547673600,4.095673583984375,0.00934481993317604,-0.05273367837071419,0.0830647200345993
1700516430557683700,4.10568359375,0.029178285971283913,0.021640142425894737,0.14018121361732483
1700516430567693800,4.11569384765625,-0.011945714242756367,-0.0679565817117691,-0.09033668786287308
1700516430577704700,4.12570458984375,-0.03716159239411354,0.15281090140342712,-0.1569056212902069
1700516430587714600,4.135714599609375,0.019717402756214142,-0.10821430385112762,0.06045731529593468
1700516430597724700,4.145724609375,0.017968881875276566,0.09174401313066483,0.049276433885097504
1700516430607734800,4.15573486328125,0.03170493245124817,-0.004358816426247358,0.1864534616470337
1700516430617744600,4.16574462890625,-0.01078303437680006,-0.08687308430671692,-0.07191789895296097
1700516430627754800,4.175754638671875,-0.02176324650645256,0.14032678306102753,-0.2262696623802185
1700516430637764600,4.1857646484375,0.003199466969817877,-0.07615707069635391,0.04794026166200638
1700516430647774700,4.195774658203125,0.03436191380023956,0.04505350813269615,0.1264965832233429
1700516430657784600,4.20578466796875,-0.0026097926311194897,-0.08042801171541214,-0.08622416108846664
1700516430667795700,4.215795654296875,-0.04340755566954613,0.13546380400657654,-0.20316649973392487
1700516430677805600,4.2258056640625,0.030051214620471,-0.08082082867622375,0.045487526804208755
1700516430687815700,4.235815673828125,0.020913641899824142,0.04525161534547806,0.035921718925237656
1700516430697825800,4.24582568359375,0.036986563354730606,0.00452759861946106,0.15180185437202454
1700516430707835600,4.255835693359375,-0.01001183595508337,-0.14053265750408173,-0.05066870152950287
1700516430717845800,4.265845703125,-0.023657171055674553,0.13091592490673065,-0.24349422752857208
1700516430727855600,4.275855712890625,0.002609853632748127,-0.09453131258487701,0.0372796505689621
1700516430737865700,4.28586572265625,0.030779177322983742,0.04015875980257988,0.14284992218017578
1700516430747876900,4.295876953125,0.004670877940952778,-0.14941011369228363,-0.04093508794903755
1700516430757887000,4.305886962890625,-0.05558283254504204,0.1403181254863739,-0.21420586109161377
1700516430767896800,4.315896728515625,0.01689828932285309,-0.09427281469106674,0.056306056678295135
1700516430777906700,4.32590673828125,0.016574352979660034,0.04305758327245712,0.062442827969789505
1700516430787916500,4.33591650390625,0.03418716788291931,0.041743580251932144,0.17706714570522308
1700516430797926700,4.3459267578125,0.00088747579138726,-0.18815505504608154,0.010981193743646145
1700516430807936800,4.355936767578125,-0.021245524287223816,0.18671496212482452,-0.27636802196502686
1700516430817946600,4.365946533203125,0.0009816990932449698,-0.08682882785797119,0.03326842561364174
1700516430827957800,4.375957763671875,0.034465622156858444,0.07273340225219727,0.1603962928056717
1700516430837968000,4.3859677734375,0.01216793805360794,-0.13396181166172028,-0.008177313953638077
1700516430847978000,4.39597802734375,-0.06328660249710083,0.14409910142421722,-0.22407737374305725
1700516430857987800,4.40598779296875,0.02478152886033058,-0.07905815541744232,0.02163974568247795
1700516430867998000,4.415998046875,0.008381783030927181,0.036926500499248505,0.038628049194812775
1700516430878007800,4.4260078125,0.03252106159925461,0.06476899981498718,0.15796102583408356
1700516430888018000,4.436017822265625,0.00046539073809981346,-0.23005704581737518,0.03299964219331741
1700516430898028800,4.44602880859375,-0.031715381890535355,0.19201022386550903,-0.29796040058135986
1700516430908039000,4.456038818359375,-0.0065857963636517525,-0.08130625635385513,-0.0016605537384748459
1700516430918048800,4.466048828125,0.03254329040646553,0.06898713111877441,0.15599125623703003
1700516430928059000,4.476058837890625,0.013329115696251392,-0.15009142458438873,0.01333930715918541
1700516430938069000,4.486069091796875,-0.05992554873228073,0.13166344165802002,-0.20961298048496246
1700516430948078800,4.496078857421875,0.016192123293876648,-0.05948307365179062,0.024931352585554123
1700516430958089000,4.5060888671875,0.015016688033938408,0.036389149725437164,0.03603241592645645
1700516430968099800,4.516099853515625,0.023298585787415504,0.07347527146339417,0.18411403894424438
1700516430978110000,4.52610986328125,0.016915172338485718,-0.22971126437187195,0.06956566870212555
1700516430988119800,4.536119873046875,-0.02080664038658142,0.17810285091400146,-0.2812512218952179
1700516430998130000,4.5461298828125,-0.004198875278234482,-0.07873883098363876,-0.01734553650021553
1700516431008139800,4.556139892578125,0.0368441678583622,0.050454042851924896,0.15392979979515076
1700516431018150000,4.56614990234375,0.0103748869150877,-0.13556835055351257,0.001877411501482129
1700516431028159700,4.57615966796875,-0.04159590229392052,0.09594210982322693,-0.2227112203836441
1700516431038171000,4.5861708984375,0.016531918197870255,-0.057587333023548126,0.01601618342101574
1700516431048180700,4.5961806640625,0.024733122438192368,0.01255154050886631,0.013088304549455643
1700516431058190800,4.60619091796875,0.011434387415647507,0.037844810634851456,0.15723267197608948
1700516431068200700,4.61620068359375,0.01037551462650299,-0.16774828732013702,0.01900715008378029
1700516431078210800,4.6262109375,-0.01812661439180374,0.09194638580083847,-0.25512465834617615
1700516431088221000,4.636220947265625,0.001421786961145699,-0.07765596359968185,-0.006000330671668053
1700516431098231800,4.646231689453125,0.02003781497478485,0.019034625962376595,0.150714710354805
1700516431108242000,4.656241943359375,0.011728077195584774,-0.11661262810230255,-0.036953434348106384
1700516431118251800,4.666251708984375,-0.04827147722244263,0.07875771075487137,-0.185951367020607
1700516431128262000,4.676261962890625,0.011352705769240856,-0.027948761358857155,0.053611427545547485
1700516431138271700,4.686271728515625,0.028808239847421646,0.0203627310693264,0.07746759802103043
1700516431148281900,4.69628173828125,0.015041295439004898,0.047528039664030075,0.19614951312541962
1700516431158291700,4.706291748046875,0.0017353020375594497,-0.10032689571380615,-0.010065238922834396
1700516431168302800,4.716302734375,-0.02422066405415535,0.0946204885840416,-0.19775578379631042
1700516431178312000,4.72631201171875,-0.009863479062914848,-0.055879440158605576,0.04233476519584656
1700516431188322000,4.736322021484375,0.01948189176619053,0.04830315336585045,0.20056621730327606
1700516431198332200,4.746332275390625,-0.006943476386368275,-0.05576131492853165,-0.04078632965683937
1700516431208342000,4.756342041015625,-0.03994164243340492,0.09415894001722336,-0.2086874544620514
1700516431218352000,4.76635205078125,0.004499378614127636,-0.0737772062420845,0.053642403334379196
1700516431228363000,4.776363037109375,0.023583590984344482,0.03336362540721893,0.06021615117788315
1700516431238373000,4.786373046875,0.02021024189889431,0.05073482170701027,0.14898201823234558
1700516431248383000,4.796383056640625,0.0037002393510192633,-0.13909316062927246,-0.021872276440262794
1700516431258393000,4.80639306640625,-0.014188644476234913,0.12524206936359406,-0.2591821253299713
1700516431268403000,4.81640283203125,0.0018944513285532594,-0.07501806318759918,0.03724823147058487
1700516431278413000,4.8264130859375,0.03384235501289368,0.055459871888160706,0.1950027197599411
1700516431288424000,4.836423828125,0.00867441575974226,-0.07725262641906738,-0.031561173498630524
1700516431298434000,4.84643408203125,-0.028946856036782265,0.07025501132011414,-0.193280890583992
1700516431308444000,4.85644384765625,0.015532994642853737,-0.08808454871177673,0.06388857960700989
1700516431318454000,4.8664541015625,0.02075536549091339,0.014318695291876793,0.06270824372768402
1700516431328464100,4.876464111328125,0.022175362333655357,0.03811856731772423,0.1597953736782074
1700516431338475000,4.88647509765625,-0.011581814847886562,-0.15434052050113678,0.008290900848805904
1700516431348485000,4.896485107421875,-0.02225123904645443,0.11529094725847244,-0.25533461570739746
1700516431358495000,4.906494873046875,-0.009088334627449512,-0.07210366427898407,0.035811688750982285
1700516431368505000,4.916505126953125,0.020640533417463303,0.05389580503106117,0.17688679695129395
1700516431378515000,4.926514892578125,-0.0054441154934465885,-0.07224494963884354,-0.0340387299656868
1700516431388525000,4.936525146484375,-0.039157070219516754,0.09761545807123184,-0.18626421689987183
1700516431398536000,4.946535888671875,0.019476594403386116,-0.0558633953332901,0.07769471406936646
1700516431408546000,4.956546142578125,0.02779231406748295,0.05257812514901161,0.059993743896484375
1700516431418556000,4.966555908203125,0.029411667957901955,0.07091889530420303,0.15990903973579407
1700516431428566000,4.97656591796875,0.00856763869524002,-0.12948530912399292,0.012154476717114449
1700516431438575900,4.986575927734375,-0.011523982509970665,0.117146335542202,-0.23797506093978882
1700516431448587300,4.996587158203125,-0.00342317926697433,-0.08015687763690948,0.018209317699074745
1700516431458597000,5.00659716796875,0.03668145835399628,0.04311162233352661,0.15593625605106354
1700516431468607000,5.01660693359375,-0.00644204206764698,-0.08305510133504868,-0.036690179258584976
1700516431478616800,5.026616943359375,-0.03331726789474487,0.11507212370634079,-0.22637367248535156
1700516431488627000,5.036626953125,0.012958887033164501,-0.08029977232217789,0.07687167823314667
1700516431498638000,5.04663818359375,0.02372746355831623,0.04369070753455162,0.06214361637830734
1700516431508648200,5.056648193359375,0.032525479793548584,0.08007907122373581,0.12558703124523163
1700516431518658000,5.066657958984375,0.008543881587684155,-0.11201898008584976,0.014864854514598846
1700516431528668200,5.076668212890625,-0.0025974526070058346,0.12077272683382034,-0.20963695645332336
1700516431538678300,5.08667822265625,-0.00004098378121852875,-0.07514795660972595,0.032474715262651443
1700516431548689200,5.096689208984375,0.035902101546525955,0.06321018189191818,0.15203067660331726
1700516431558699000,5.106698974609375,0.014841143041849136,-0.0715264305472374,0.01587773859500885
1700516431568709000,5.116709228515625,-0.030890924856066704,0.08094006776809692,-0.20981638133525848
1700516431578719200,5.12671923828125,0.0068841190077364445,-0.04388677701354027,0.03958142176270485
1700516431588729000,5.13672900390625,0.0008525921730324626,0.03313636779785156,0.08725546300411224
1700516431598740200,5.146740234375,0.030996832996606827,0.09632617235183716,0.1156223863363266
1700516431608750000,5.15675,-0.0077292583882808685,-0.13362206518650055,0.05431774631142616
1700516431618760200,5.16676025390625,-0.01006019301712513,0.12501421570777893,-0.25027918815612793
1700516431628770000,5.17677001953125,-0.007115802261978388,-0.07573645561933517,0.021599721163511276
1700516431638780200,5.1867802734375,0.029260531067848206,0.05751148238778114,0.13424508273601532
1700516431648791000,5.196791015625,0.005558930337429047,-0.07383163273334503,0.05064206197857857
1700516431658801200,5.20680126953125,-0.023148251697421074,0.0695444792509079,-0.22340109944343567
1700516431668811000,5.21681103515625,0.003479365259408951,-0.019521478563547134,0.0019763701129704714
1700516431678821000,5.226821044921875,-0.0038313260301947594,-0.0027605192735791206,0.09882153570652008
1700516431688831000,5.2368310546875,0.027442973107099533,0.10214672237634659,0.1026943027973175
1700516431698842000,5.246842041015625,-0.001254946575500071,-0.13035117089748383,0.06912978738546371
1700516431708852000,5.25685205078125,-0.006584997288882732,0.07138781249523163,-0.24333517253398895
1700516431718862000,5.266862060546875,-0.013062622398138046,-0.05214201658964157,-0.01637677289545536
1700516431728872000,5.276871826171875,0.01922767236828804,0.030278557911515236,0.13715019822120667
1700516431738882000,5.286882080078125,0.008370752446353436,-0.056650806218385696,0.07903270423412323
1700516431748893000,5.296892822265625,-0.031552162021398544,0.03815693035721779,-0.20540274679660797
1700516431758903000,5.306903076171875,0.004340562038123608,0.02592027746140957,-0.031234195455908775
1700516431768913200,5.3169130859375,-0.00803940836340189,-0.045217547565698624,0.10281096398830414
1700516431778923000,5.326923095703125,0.00930700171738863,0.10226359218358994,0.10930794477462769
1700516431788934000,5.336933837890625,0.0017622667364776134,-0.06782771646976471,0.12602967023849487
1700516431798944000,5.346944091796875,-0.024577293545007706,0.04471695423126221,-0.2421109974384308
1700516431808954000,5.3569541015625,-0.023256631568074226,-0.033099815249443054,-0.05174638330936432
1700516431818964000,5.3669638671875,0.011991064995527267,0.0315033458173275,0.1353464424610138
1700516431828974000,5.37697412109375,0.007415754720568657,-0.03836894780397415,0.09438196569681168
1700516431838985000,5.38698486328125,-0.02214142680168152,0.008697489276528358,-0.2017611563205719
1700516431848995000,5.3969951171875,-0.00679336441680789,0.05288305878639221,-0.06896769255399704
1700516431859005000,5.4070048828125,-0.0071771168150007725,-0.0861155167222023,0.09165780246257782
1700516431869015000,5.41701513671875,0.0033492939546704292,0.08719129115343094,0.08977148681879044
1700516431879026200,5.427026123046875,-0.004716394003480673,-0.08045843988656998,0.16312621533870697
1700516431889036300,5.437036376953125,-0.026177477091550827,0.05271851643919945,-0.21317018568515778
1700516431899046100,5.447046142578125,-0.030293915420770645,-0.004982537589967251,-0.06171634793281555
1700516431909056000,5.457055908203125,0.018274419009685516,0.010708540678024292,0.12182764708995819
1700516431919065900,5.46706591796875,0.004477777983993292,-0.04959980770945549,0.12157534807920456
1700516431929077200,5.4770771484375,-0.0181399155408144,-0.007201751694083214,-0.19692672789096832
1700516431939087000,5.487087158203125,-0.012845258228480816,0.06319647282361984,-0.08818742632865906
1700516431949097200,5.49709716796875,-0.0031508193351328373,-0.09241895377635956,0.10040964931249619
1700516431959107000,5.507107177734375,0.0006854148814454675,0.08506249636411667,0.10361266881227493
1700516431969118200,5.5171181640625,-0.001502371858805418,-0.07246614247560501,0.16386455297470093
1700516431979128000,5.527128173828125,-0.021780990064144135,0.05071587488055229,-0.19200095534324646
1700516431989138200,5.53713818359375,-0.026339789852499962,0.00470311101526022,-0.06350689381361008
1700516431999148000,5.54714794921875,0.016063984483480453,0.0025946306996047497,0.1306614875793457
1700516432009158100,5.557158203125,0.013857023790478706,-0.06049032881855965,0.14819227159023285
1700516432019169000,5.5671689453125,-0.0049592312425374985,-0.04204867035150528,-0.1786895990371704
1700516432029179100,5.57717919921875,-0.009563304483890533,0.0572478249669075,-0.09021379798650742
1700516432039189000,5.58718896484375,0.008649881929159164,-0.10178743302822113,0.10762344300746918
1700516432049199000,5.59719921875,0.0029001168441027403,0.01686358079314232,0.08611682057380676
1700516432059210000,5.6072099609375,0.00801069661974907,-0.04837355017662048,0.17811250686645508
1700516432069220000,5.61722021484375,-0.0012051720404997468,0.03359055519104004,-0.1597193330526352
1700516432079230000,5.62722998046875,-0.014404082670807838,0.035145312547683716,-0.08213353902101517
1700516432089240000,5.637239990234375,0.01736023649573326,-0.025144392624497414,0.09926527738571167
1700516432099251000,5.6472509765625,0.019977271556854248,-0.02102445624768734,0.13169650733470917
1700516432109261000,5.657260986328125,-0.013599863275885582,-0.031890418380498886,-0.17749996483325958
1700516432119271000,5.66727099609375,-0.021494777873158455,0.052569448947906494,-0.09808949381113052
1700516432129281000,5.677281005859375,-0.0039666518568992615,-0.07090961188077927,0.036639295518398285
1700516432139292000,5.6872919921875,-0.024835150688886642,-0.0007152168545871973,-0.12428499758243561
1700516432149302000,5.697302001953125,-0.09473807364702225,0.1382967233657837,0.4214790165424347
1700516432159312100,5.70731201171875,0.06976056098937988,-0.4024457335472107,-0.12293598055839539
1700516432169322000,5.717322021484375,-0.12892135977745056,0.4056614637374878,-0.3209761083126068
1700516432179333400,5.72733349609375,-0.005528257694095373,-0.07138457894325256,0.19692790508270264
1700516432189343500,5.737343505859375,-0.028052475303411484,-0.1781190186738968,0.10530716925859451
1700516432199353300,5.747353271484375,-0.09534208476543427,0.04148586094379425,-0.344624400138855
1700516432209363500,5.757363525390625,-0.05342499166727066,0.09276236593723297,-0.0971115306019783
1700516432219374300,5.767374267578125,-0.03700420632958412,0.0045582614839077,0.08126898109912872
1700516432229384400,5.777384521484375,0.03009387105703354,-0.20513318479061127,0.26899468898773193
1700516432239394300,5.787394287109375,0.015767395496368408,0.11615855991840363,-0.27932408452033997
1700516432249404400,5.797404296875,-0.15716975927352905,0.18502630293369293,-0.14786221086978912
1700516432259415300,5.807415283203125,0.05112773925065994,-0.04069264233112335,0.029341500252485275
1700516432269425400,5.81742529296875,-0.019830593839287758,-0.21216613054275513,0.09396976232528687
1700516432279435500,5.827435546875,-0.0076673817820847034,0.11214414983987808,-0.11921116709709167
1700516432289445400,5.8374453125,0.025906290858983994,0.051756709814071655,-0.28834399580955505
1700516432299455500,5.84745556640625,-0.06847325712442398,-0.14939889311790466,0.33356592059135437
1700516432309466400,5.85746630859375,0.11757197976112366,-0.12475347518920898,-0.1382247656583786
1700516432319476500,5.8674765625,-0.18350733816623688,0.4464333653450012,-0.11153104901313782
1700516432329486300,5.877486328125,0.0687699168920517,-0.2943454086780548,0.11363495886325836
1700516432339497200,5.887497314453125,0.0004202033160254359,0.02152949385344982,-0.16581988334655762
1700516432349507300,5.89750732421875,-0.0719943419098854,-0.08875653147697449,0.08416333049535751
1700516432359517400,5.907517333984375,0.04140070825815201,0.4172383248806,0.15355728566646576
1700516432369527300,5.91752734375,0.10778959095478058,-1.0365464687347412,0.24267011880874634
1700516432379538200,5.9275380859375,-0.06714128702878952,0.8263034820556641,-0.536711573600769
1700516432389548300,5.93754833984375,-0.10022733360528946,-0.12806960940361023,0.48974502086639404
1700516432399558400,5.947558349609375,0.1894291490316391,-0.41999804973602295,0.011073971167206764
1700516432409568300,5.957568359375,-0.183516725897789,0.24096044898033142,-0.06316270679235458
1700516432419579400,5.967579345703125,-0.07656098157167435,0.4790857136249542,0.3694724440574646
1700516432429589500,5.977589599609375,0.0966949537396431,-0.8502891659736633,0.29839855432510376
1700516432439599600,5.987599609375,-0.15044578909873962,0.7687321305274963,-0.3220764100551605
1700516432449609500,5.997609375,0.06385133415460587,-0.4803372621536255,0.20098334550857544
1700516432459620400,6.007620361328125,-0.000044733635149896145,0.11057368665933609,-0.12923114001750946
1700516432469630500,6.01763037109375,-0.047853268682956696,-0.13388453423976898,-0.23280678689479828
1700516432479640600,6.027640625,0.10062084347009659,-0.08680694550275803,-0.058759450912475586
1700516432489650400,6.037650390625,-0.050548963248729706,-0.14258313179016113,-0.2431601732969284
1700516432499661600,6.04766162109375,-0.04899929463863373,0.4519146680831909,0.010884156450629234
1700516432509671400,6.05767138671875,0.11747543513774872,-0.33405205607414246,-0.06609105318784714
1700516432519681500,6.067681640625,-0.19542737305164337,0.22097578644752502,0.07355708628892899
1700516432529691400,6.07769140625,0.09231626987457275,-0.42223700881004333,0.31300297379493713
1700516432539702500,6.08770263671875,0.06126785650849342,0.017338575795292854,-0.3867523670196533
1700516432549712400,6.09771240234375,-0.311418354511261,0.7918811440467834,0.12961938977241516
1700516432559722500,6.107722412109375,0.14654189348220825,-1.1595778465270996,0.012945827096700668
1700516432569732400,6.117732421875,-0.095282182097435,0.893119752407074,-0.3547523021697998
1700516432579743500,6.127743408203125,-0.24778109788894653,-0.3301880955696106,0.55693519115448
1700516432589753300,6.13775341796875,0.13087059557437897,-0.7556498646736145,-0.19000819325447083
1700516432599763500,6.147763427734375,-0.1808358132839203,1.4467695951461792,-0.1626114398241043
1700516432609774300,6.1577744140625,0.106438048183918,-1.193276286125183,0.26900842785835266
1700516432619784400,6.167784423828125,-0.025250237435102463,0.5737242698669434,-0.14824627339839935
1700516432629794300,6.177794189453125,-0.0600883811712265,0.12090300768613815,0.4304943382740021
1700516432639804400,6.187804443359375,0.1523769199848175,-0.8758297562599182,0.06807385385036469
1700516432649815300,6.197815185546875,-0.11233437061309814,0.8942996859550476,0.02521400898694992
1700516432659825400,6.207825439453125,0.11107565462589264,-0.8019758462905884,-0.1505976915359497
1700516432669835300,6.217835205078125,0.053456563502550125,0.6781830191612244,-0.3088153004646301
1700516432679845400,6.227845458984375,-0.1255042552947998,-0.036707278341054916,0.24964532256126404
1700516432689856300,6.237856201171875,0.11696323752403259,-0.6591173410415649,-0.019217824563384056
1700516432699866400,6.247866455078125,0.007651308551430702,0.6757578253746033,0.20102287828922272
1700516432709876200,6.257876220703125,0.07850417494773865,-0.7181748151779175,-0.16398625075817108
1700516432719887600,6.2678876953125,0.060839056968688965,0.3697718381881714,-0.3648666739463806
1700516432729897500,6.2778974609375,0.023785168305039406,-0.4244568347930908,-0.34314674139022827
1700516432739907600,6.287907470703125,0.010700390674173832,0.4525541663169861,-0.20762647688388824
1700516432749917400,6.29791748046875,-0.01733364164829254,0.06850821524858475,0.7941545844078064
1700516432759928600,6.307928466796875,-0.007435422856360674,-0.8868194818496704,0.5234687328338623
1700516432769938400,6.3179384765625,-0.03827083483338356,0.7749658823013306,0.3112776279449463
1700516432779948500,6.327948486328125,-0.08228161185979843,-0.3680620789527893,-0.07885146141052246
1700516432789958400,6.33795849609375,0.004144354723393917,0.08087177574634552,-0.40009528398513794
1700516432799969500,6.347969482421875,-0.04991062730550766,-0.23707692325115204,-0.3252563178539276
1700516432809979400,6.3579794921875,-0.1045893207192421,0.04303623363375664,-0.4788040816783905
1700516432819989500,6.367989501953125,-0.020695947110652924,0.261529803276062,0.009789463132619858
1700516432830000400,6.37800048828125,0.004963342100381851,-0.84099280834198,-0.13475866615772247
1700516432840010500,6.388010498046875,0.03218603506684303,0.6159636378288269,0.12319230288267136
1700516432850020400,6.398020263671875,0.01814185082912445,-0.507273256778717,0.1374330222606659
1700516432860030500,6.408030517578125,-0.012599063105881214,0.717612624168396,0.3487916588783264
1700516432870041300,6.418041259765625,-0.008646398782730103,-0.37703147530555725,0.5821873545646667
1700516432880051500,6.428051513671875,-0.08991629630327225,0.3420203626155853,0.33748993277549744
1700516432890061300,6.438061279296875,-0.04862692207098007,0.16793829202651978,0.457027792930603
1700516432900072400,6.448072509765625,-0.07578915357589722,-0.6913744211196899,-0.24488465487957
1700516432910082300,6.458082275390625,-0.018790053203701973,0.27321290969848633,-0.3716188669204712
1700516432920092400,6.468092529296875,-0.09880238771438599,-0.702838659286499,-0.7732974290847778
1700516432930102300,6.478102294921875,0.05442577600479126,0.7596908807754517,-0.3751026690006256
1700516432940113400,6.488113525390625,0.05056165158748627,-0.6985809206962585,0.25971871614456177
1700516432950123300,6.498123291015625,-0.11118730157613754,0.6795162558555603,0.4919753968715668
1700516432960133400,6.50813330078125,0.00915322545915842,-0.007246924564242363,0.5435071587562561
1700516432970144500,6.51814453125,0.0020452491007745266,-0.112077996134758,0.2236819863319397
1700516432980154600,6.528154541015625,-0.018185516819357872,0.3797849118709564,0.3326266407966614
1700516432990164500,6.53816455078125,-0.002959425561130047,-0.7027101516723633,-0.1651325672864914
1700516433000174300,6.54817431640625,-0.016537297517061234,0.47828197479248047,0.13379886746406555
1700516433010185500,6.558185546875,-0.09882072359323502,-0.5335922241210938,-0.07931846380233765
1700516433020195600,6.568195556640625,0.12318596243858337,0.5163279175758362,0.0510537251830101
1700516433030205400,6.578205322265625,0.08301644027233124,-0.47264522314071655,0.07899320870637894
1700516433040216300,6.58821630859375,-0.08037220686674118,0.3610815703868866,-0.3160794973373413
1700516433050226400,6.598226318359375,0.04328208789229393,-0.07754986733198166,-0.14234845340251923
1700516433060236500,6.608236572265625,-0.03665095195174217,-0.3491426408290863,-0.37851303815841675
1700516433070247400,6.618247314453125,0.0763525664806366,0.27160078287124634,0.26143524050712585
1700516433080257500,6.628257568359375,-0.10688867419958115,-0.565619170665741,0.24840004742145538
1700516433090267400,6.638267333984375,0.07632508873939514,0.400661438703537,0.3128996789455414
1700516433100277500,6.648277587890625,0.004771510139107704,-0.7241522669792175,-0.13285230100154877
1700516433110288400,6.658288330078125,0.029200952500104904,0.4664834141731262,-0.18180333077907562
1700516433120298500,6.668298583984375,-0.07605624198913574,-0.18641018867492676,0.20587004721164703
1700516433130308400,6.678308349609375,-0.0019295511301606894,0.33468228578567505,0.5209411978721619
1700516433140319200,6.6883193359375,0.03577374666929245,-0.422287255525589,0.21675412356853485
1700516433150329300,6.698329345703125,-0.05571302771568298,0.4169538915157318,-0.2142268270254135
1700516433160339500,6.70833935546875,-0.05838331580162048,-0.1666085422039032,0.0647021159529686
1700516433170349300,6.718349365234375,-0.09434611350297928,0.20922580361366272,0.07024788111448288
1700516433180360700,6.728360595703125,0.09769099950790405,-0.3587498664855957,0.2114773690700531
1700516433190370800,6.738370849609375,-0.06942768394947052,-0.041681356728076935,-0.3339255154132843
1700516433200381000,6.748380859375,0.049033500254154205,0.02559422329068184,-0.16085267066955566
1700516433210392000,6.75839208984375,-0.05259166285395622,-0.2562752664089203,-0.1986253559589386
1700516433220402000,6.76840185546875,0.13459549844264984,-0.0458659827709198,0.07326170802116394
1700516433230412000,6.778412109375,-0.06743723899126053,-0.5123332738876343,-0.40133729577064514
1700516433240423000,6.7884228515625,0.07126246392726898,0.598298192024231,-0.35388386249542236
1700516433250433000,6.79843310546875,-0.015279884450137615,-0.5049237012863159,-0.17051832377910614
1700516433260443000,6.80844287109375,0.0007132129976525903,0.41643059253692627,0.18756504356861115
1700516433270453000,6.818452880859375,-0.04870093986392021,-0.49332597851753235,-0.1096501275897026
1700516433280464000,6.8284638671875,0.003949535079300404,0.5391116142272949,0.14926671981811523
1700516433290474000,6.838473876953125,-0.06206916272640228,-0.3999713957309723,0.19620972871780396
1700516433300483800,6.84848388671875,-0.04955819994211197,0.5579770803451538,0.4257684350013733
1700516433310495000,6.858494873046875,-0.022608071565628052,-0.3832075297832489,0.08108508586883545
1700516433320504800,6.8685048828125,-0.012048732489347458,0.4098645746707916,0.07378196716308594
1700516433330515000,6.878514892578125,-0.0000639746431261301,-0.27940014004707336,0.06232026219367981
1700516433340525800,6.88852587890625,-0.05926986411213875,0.6743587851524353,0.5118111371994019
1700516433350536000,6.898535888671875,0.11312347650527954,-0.45916885137557983,0.057040464133024216
1700516433360545800,6.9085458984375,-0.048660676926374435,0.6560776829719543,0.28624188899993896
1700516433370557000,6.918556884765625,0.03950966149568558,-0.28790852427482605,0.1452655792236328
1700516433380566800,6.92856689453125,-0.0324304923415184,0.32409337162971497,0.28500086069107056
1700516433390577000,6.938576904296875,-0.015894390642642975,-0.24663883447647095,-0.311349093914032
1700516433400586800,6.948586669921875,-0.05789949372410774,0.17323258519172668,-0.015548178926110268
1700516433410598000,6.958597900390625,-0.10613545775413513,-0.3832208216190338,0.021728353574872017
1700516433420607700,6.968607666015625,0.04612526297569275,0.04610312730073929,-0.028199445456266403
1700516433430617900,6.978617919921875,-0.15636073052883148,-0.2999882400035858,-0.44640684127807617
1700516433440629000,6.98862890625,-0.0175766758620739,0.12879513204097748,-0.017443779855966568
1700516433450639000,6.99863916015625,-0.07838916033506393,-0.29908111691474915,0.023444795981049538
1700516433460649000,7.00864892578125,0.01955319568514824,0.12884683907032013,0.16097724437713623
1700516433470660000,7.01866015625,-0.09111179411411285,-0.28129249811172485,-0.4514763057231903
1700516433480670000,7.028669921875,-0.04981435835361481,0.20430703461170197,-0.0822189673781395
1700516433490680000,7.03868017578125,-0.1339489370584488,-0.5114423036575317,-0.4475284814834595
1700516433500691000,7.04869091796875,-0.14252737164497375,-0.05042476952075958,-0.06584106385707855
1700516433510701000,7.058701171875,-0.04750632122159004,-0.3645147681236267,-0.5949105024337769
1700516433520711000,7.0687109375,-0.02077614516019821,-0.025086738169193268,-0.0028558908961713314
1700516433530721800,7.0787216796875,-0.11640866100788116,0.11434785276651382,0.20666298270225525
1700516433540732000,7.08873193359375,-0.037171345204114914,-0.45648422837257385,0.012006099335849285
1700516433550742000,7.098741943359375,0.037366271018981934,0.5878695845603943,-0.1621081829071045
1700516433560751900,7.108751953125,-0.0210712980479002,-0.16020917892456055,0.3668968379497528
1700516433570762800,7.1187626953125,0.07870695739984512,0.48447391390800476,0.653245747089386
1700516433580772900,7.12877294921875,0.10503232479095459,-0.14680154621601105,0.20422139763832092
1700516433590783000,7.138782958984375,0.047827888280153275,0.4699287712574005,0.4133504033088684
1700516433600793900,7.1487939453125,-0.07896722108125687,-0.06578318774700165,0.021833281964063644
1700516433610804000,7.158803955078125,0.09853778779506683,-0.40980714559555054,0.046202272176742554
1700516433620813800,7.168813720703125,-0.1125861182808876,0.38274359703063965,-0.18164946138858795
1700516433630824700,7.17882470703125,-0.006041297689080238,-0.2668676972389221,0.3368866443634033
1700516433640834800,7.188834716796875,-0.01057949848473072,0.2950776219367981,0.3390168249607086
1700516433650845000,7.198844970703125,0.03634513542056084,-0.45830482244491577,-0.0663309320807457
1700516433660856000,7.20885595703125,0.009893286041915417,0.488493412733078,-0.19354693591594696
1700516433670866000,7.218865966796875,-0.054605115205049515,-0.39924195408821106,0.16561365127563477
1700516433680876000,7.2288759765625,0.11383841186761856,0.24418598413467407,0.3946631848812103
1700516433690887000,7.238886962890625,-0.017632532864809036,0.19108042120933533,-0.3111985921859741
1700516433700897000,7.24889697265625,-0.03544140234589577,-0.017505936324596405,0.17657963931560516
1700516433710907000,7.258906982421875,-0.08427605777978897,0.0862920954823494,0.17498041689395905
1700516433720918000,7.26891796875,0.019990673288702965,-0.46421706676483154,-0.14983724057674408
1700516433730927900,7.278927978515625,-0.061411239206790924,0.3474870026111603,-0.5199787616729736
1700516433740938000,7.28893798828125,-0.072539322078228,-0.47128596901893616,-0.31676819920539856
1700516433750948900,7.298948974609375,-0.13009607791900635,0.44111859798431396,0.05831409618258476
1700516433760959000,7.308958984375,0.0026604654267430305,-0.29692623019218445,-0.4137727916240692
1700516433770968800,7.31896875,0.11232784390449524,0.043362122029066086,-0.13716594874858856
1700516433780980000,7.32897998046875,-0.12226052582263947,0.19988279044628143,0.20752453804016113
1700516433790989800,7.33898974609375,0.10444265604019165,-0.19240322709083557,0.3641360104084015
1700516433801000000,7.349,-0.007805279456079006,0.2736557424068451,0.012997249141335487
1700516433811010800,7.3590107421875,-0.04900198429822922,-0.34214699268341064,0.23098470270633698
1700516433821021000,7.36902099609375,-0.061308350414037704,0.43722087144851685,0.4331608712673187
1700516433831030800,7.37903076171875,0.029446054250001907,0.03153541311621666,-0.234194815158844
1700516433841042000,7.3890419921875,0.00413183867931366,-0.12136948853731155,-0.09284677356481552
1700516433851051800,7.3990517578125,-0.16710302233695984,-0.003221539780497551,-0.04559297859668732
1700516433861062000,7.409061767578125,0.08229473978281021,-0.6637709736824036,-0.16883324086666107
1700516433871073000,7.419072998046875,-0.16608817875385284,0.06279902160167694,-0.6944229602813721
1700516433881083100,7.429083251953125,-0.1503755748271942,-0.23483414947986603,-0.20643071830272675
1700516433891093000,7.439093017578125,-0.10078218579292297,0.07020245492458344,0.44860199093818665
1700516433901103900,7.449103759765625,-0.03169911727309227,-0.20725727081298828,0.05104971304535866
1700516433911114000,7.459114013671875,0.03928397595882416,0.3455846309661865,0.2300327867269516
1700516433921124000,7.4691240234375,-0.05391107127070427,0.061505094170570374,0.20856605470180511
1700516433931135000,7.479135009765625,0.03999997675418854,-0.19499140977859497,-0.019886016845703125
1700516433941144800,7.489144775390625,-0.00808214582502842,0.5897856950759888,0.1691492646932602
1700516433951155000,7.499155029296875,-0.08854556828737259,-0.2120593637228012,0.5584083795547485
1700516433961165800,7.509165771484375,0.021059786900877953,-0.04052522033452988,0.36677300930023193
1700516433971176000,7.519176025390625,-0.05794608220458031,0.189046710729599,-0.5301061272621155
1700516433981185800,7.529185791015625,-0.09455911070108414,-0.2160033881664276,-0.07171352952718735
1700516433991197000,7.539197021484375,-0.19745300710201263,0.1689876914024353,0.008481176570057869
1700516434001206800,7.549206787109375,0.019955502822995186,-0.4518561363220215,-0.36963140964508057
1700516434011217000,7.559216796875,0.12162034213542938,0.2622004449367523,-0.3244628608226776
1700516434021227800,7.569227783203125,-0.0723981261253357,-0.28705787658691406,-0.1568048894405365
1700516434031238000,7.57923779296875,0.07120617479085922,-0.06285380572080612,-0.03867131099104881
1700516434041247700,7.589247802734375,-0.006721602752804756,0.26407864689826965,-0.21005162596702576
1700516434051259000,7.5992587890625,0.08928641676902771,-0.06531710922718048,0.11191176623106003
1700516434061268700,7.609268798828125,-0.05217205733060837,0.5407940745353699,0.3838677406311035
1700516434071278800,7.61927880859375,0.04138532653450966,-0.27605366706848145,-0.18078820407390594
1700516434081290000,7.6292900390625,0.2620624005794525,2.463001251220703,-0.969213604927063
1700516434091300000,7.639300048828125,-0.23503950238227844,-1.852388858795166,-0.23661503195762634
1700516434101310000,7.64931005859375,-0.1500641256570816,1.1260794401168823,1.4473482370376587
1700516434111321000,7.659321044921875,-0.12108467519283295,-0.038154155015945435,1.6027271747589111
1700516434121331000,7.6693310546875,0.13923855125904083,-0.5236389636993408,0.8636096119880676
1700516434131341000,7.679341064453125,-0.007431306876242161,0.18489854037761688,-0.1502901315689087
1700516434141352000,7.68935205078125,-0.10437600314617157,0.2929801046848297,-1.0501141548156738
1700516434151362000,7.699362060546875,-0.01951543614268303,0.26793038845062256,-0.4588324725627899
1700516434161372000,7.709371826171875,-0.1515166461467743,-0.0355047844350338,0.05773729085922241
1700516434171382800,7.7193828125,0.15730804204940796,-0.8224161267280579,-0.22101683914661407
1700516434181389000,7.72938916015625,0.04282326623797417,0.322444349527359,-0.42639055848121643
1700516434191399200,7.739399169921875,-0.04625920206308365,-0.4662761092185974,-0.7411881685256958
1700516434201410000,7.74941015625,-0.0011481648543849587,0.2595287561416626,-0.5578278303146362
1700516434211420200,7.759420166015625,-0.00016545841936022043,0.14720965921878815,-0.3894164264202118
1700516434221430000,7.769429931640625,0.07658056914806366,-0.053098201751708984,0.3125026226043701
1700516434231441200,7.779441162109375,-0.17113788425922394,0.42785003781318665,0.7456689476966858
1700516434241451300,7.789451171875,-0.037913672626018524,-0.17580105364322662,0.2889048755168915
1700516434251462100,7.799462158203125,-0.07905605435371399,0.6090876460075378,0.1406746655702591
1700516434261472300,7.80947216796875,-0.19184419512748718,-0.1660401076078415,0.10585266351699829
1700516434271482000,7.819482177734375,-0.055857062339782715,-0.19229355454444885,0.15332083404064178
1700516434281493200,7.8294931640625,-0.05366096645593643,0.2906528115272522,-0.46738824248313904
1700516434291503000,7.839503173828125,-0.07690077275037766,-0.25947824120521545,-0.049268487840890884
1700516434301513200,7.84951318359375,-0.11387435346841812,-0.051270149648189545,0.24777939915657043
1700516434311524000,7.859524169921875,-0.06909462809562683,-0.3295702338218689,-0.26021912693977356
1700516434321534200,7.8695341796875,0.16233357787132263,0.6082578897476196,-0.18731728196144104
1700516434331544000,7.8795439453125,-0.06289954483509064,-0.11299780011177063,0.0822441503405571
1700516434341555200,7.88955517578125,0.13284623622894287,-0.5327596068382263,-0.22033999860286713
1700516434351565000,7.89956494140625,0.05052021145820618,0.6430787444114685,-0.20382626354694366
1700516434361575200,7.9095751953125,-0.10287641733884811,-0.14161089062690735,0.06730994582176208
1700516434371586000,7.9195859375,0.04064266383647919,0.04009179025888443,0.035506471991539
1700516434381596200,7.92959619140625,0.01144664827734232,0.004120613913983107,-0.5131752490997314
1700516434391606000,7.93960595703125,0.022628994658589363,0.06688333302736282,-0.4287559688091278
1700516434401617200,7.9496171875,-0.17722336947917938,-0.007194148376584053,-0.1396222710609436
1700516434411627000,7.959626953125,-0.04706243798136711,-0.46754392981529236,-0.5445652604103088
1700516434421638100,7.96963818359375,0.16697655618190765,0.7280489206314087,0.010679837316274643
1700516434431648300,7.979648193359375,-0.0545521080493927,-0.052019987255334854,0.8966173529624939
1700516434441658400,7.989658447265625,0.1311727911233902,-0.17719800770282745,0.8285975456237793
1700516434451669200,7.999669189453125,0.008038615807890892,0.6836717128753662,0.2671653628349304
1700516434461679000,8.00967919921875,0.020275719463825226,-0.12741760909557343,0.5092895030975342
1700516434471689200,8.019689208984374,0.04925064370036125,0.3850976228713989,0.6304047703742981
1700516434481700000,8.0297001953125,0.04489501938223839,0.10196194797754288,-0.01534697413444519
1700516434491710200,8.039710205078125,0.011391119100153446,-0.2156495600938797,0.09729728102684021
1700516434501720000,8.049719970703125,-0.18514178693294525,0.2613508999347687,-0.012379597872495651
1700516434511731200,8.059731201171875,0.06317161023616791,-0.9818877577781677,-0.41116267442703247
1700516434521741000,8.069740966796875,-0.03489824756979942,0.5428937077522278,-0.6190970540046692
1700516434531751200,8.079751220703125,-0.16736920177936554,-0.44106999039649963,-0.10407630354166031
1700516434541762000,8.089761962890625,0.22444525361061096,-0.3933633863925934,0.00949111394584179
1700516434551772200,8.099772216796875,0.031838785856962204,0.2552524209022522,-0.22149096429347992
1700516434561783000,8.109782958984376,0.06289847195148468,-0.19519342482089996,0.23559048771858215
1700516434571793200,8.119793212890626,0.05279577150940895,0.34186309576034546,0.32012268900871277
1700516434581803000,8.129802978515626,0.14661018550395966,-0.2480120211839676,-0.2289077192544937
1700516434591814100,8.139814208984374,0.13405151665210724,0.34272024035453796,-0.19815194606781006
1700516434601824000,8.149823974609374,-0.1161593496799469,0.03685400262475014,-0.15610846877098083
1700516434611834000,8.159834228515624,-0.012237210758030415,-0.5171886682510376,-0.23832690715789795
1700516434621845200,8.16984521484375,-0.08991197496652603,-0.07528660446405411,-0.6186100244522095
1700516434631855400,8.17985546875,-0.1455044001340866,0.020710496231913567,-0.2643131911754608
1700516434641865200,8.189865234375,-0.11395175009965897,-0.08766996115446091,0.2939887046813965
1700516434651876000,8.1998759765625,0.025376586243510246,-0.5900981426239014,-0.2829238772392273
1700516434661886200,8.20988623046875,0.07193209230899811,0.8553541302680969,0.29010438919067383
1700516434671897000,8.21989697265625,0.11957710981369019,0.16703884303569794,0.896490752696991
1700516434681907200,8.2299072265625,0.2134731113910675,-0.18199463188648224,0.8971078991889954
1700516434691917000,8.2399169921875,0.08721210807561874,0.5782787799835205,0.6731365323066711
1700516434701928200,8.24992822265625,0.16281749308109283,-0.2696267366409302,0.6146541237831116
1700516434711938000,8.25993798828125,0.2978679835796356,-0.4896294176578522,0.2494169920682907
1700516434721948200,8.2699482421875,0.03447449952363968,0.7779293656349182,-0.4104386568069458
1700516434731959000,8.279958984375,0.09280704706907272,-0.8551743030548096,0.12193844467401505
1700516434741969200,8.28996923828125,0.026996122673153877,0.24305139482021332,-0.01423647627234459
1700516434751980000,8.29997998046875,0.12700821459293365,-0.061635274440050125,-0.43230801820755005
1700516434761990100,8.309990234375,0.07775849848985672,-0.20259277522563934,-0.18206077814102173
1700516434772000000,8.32,-0.07074655592441559,0.3139835298061371,-0.3152707517147064
1700516434782011100,8.33001123046875,0.19895777106285095,-0.8626332879066467,-0.3687824308872223
1700516434792021000,8.34002099609375,-0.03656339645385742,0.48924878239631653,-0.5428831577301025
1700516434802031000,8.350031005859375,-0.041675470769405365,-0.3749542832374573,-0.21932841837406158
1700516434812042200,8.360042236328125,0.10941417515277863,0.35110411047935486,0.32954269647598267
1700516434822052400,8.37005224609375,-0.012920853681862354,-0.04302370175719261,0.38629984855651855
1700516434832062200,8.380062255859375,0.037708234041929245,-0.06132121756672859,0.6569662094116211
1700516434842073000,8.390072998046875,-0.09524007886648178,0.4022504687309265,0.20092171430587769
1700516434852083200,8.400083251953125,-0.0040041785687208176,-0.2601376175880432,-0.18400812149047852
1700516434862094000,8.410093994140626,-0.0273212231695652,0.39399710297584534,-0.0138446856290102
1700516434872104200,8.420104248046876,-0.07468821108341217,-0.36934635043144226,0.2614284157752991
1700516434882114000,8.430114013671876,0.00021320907399058342,-0.10298851877450943,0.4751224219799042
1700516434892125200,8.440125244140624,0.043132711201906204,0.06977473944425583,-0.22668656706809998
1700516434902135000,8.450135009765624,0.0215902216732502,-0.602067232131958,-0.26357224583625793
1700516434912145200,8.460145263671874,-0.09013071656227112,0.4338459372520447,-0.26045554876327515
1700516434922156000,8.470156005859375,0.06422381848096848,-0.47215479612350464,-0.3317872881889343
1700516434932166100,8.480166259765625,0.10930607467889786,0.2591782510280609,0.19674526154994965
1700516434942177000,8.490177001953125,-0.024789124727249146,-0.01718691736459732,0.46144765615463257
1700516434952187100,8.500187255859375,0.1349209100008011,-0.5803576111793518,0.29910773038864136
1700516434962197000,8.510197021484375,-0.002247630385681987,0.6808721423149109,-0.39911437034606934
1700516434972208400,8.52020849609375,0.06617483496665955,-0.44493740797042847,-0.31294432282447815
1700516434982218200,8.53021826171875,-0.000972453854046762,0.42896267771720886,-0.16075089573860168
1700516434992229000,8.54022900390625,0.01266825757920742,-0.2038334310054779,-0.6073603630065918
1700516435002239200,8.5502392578125,0.08280789852142334,0.33085960149765015,0.15875105559825897
1700516435012249300,8.560249267578126,-0.03213467076420784,0.027007298544049263,0.3563765287399292
1700516435022260200,8.57026025390625,0.06959088146686554,-0.3875397741794586,0.2770251929759979
1700516435032270000,8.58027001953125,-0.06567293405532837,0.5770654082298279,0.036755066365003586
1700516435042280200,8.5902802734375,-0.02641584351658821,-0.30564960837364197,0.12525224685668945
1700516435052291000,8.600291015625,0.01438724622130394,0.3119904398918152,0.22466538846492767
1700516435062301200,8.61030126953125,-0.04500103369355202,0.21747082471847534,-0.1281137317419052
1700516435072312000,8.62031201171875,0.040168989449739456,0.4250434637069702,0.3371703326702118
1700516435082322200,8.630322265625,-0.05318151041865349,0.36071711778640747,0.2907910943031311
1700516435092332000,8.64033203125,0.049857255071401596,-0.6152579188346863,-0.16521185636520386
1700516435102343200,8.65034326171875,0.09717195481061935,0.6141027212142944,-0.4573061466217041
1700516435112353000,8.66035302734375,-0.053981609642505646,-0.48976343870162964,-0.5077387094497681
1700516435122363100,8.670363037109375,0.02238493040204048,-0.12490411102771759,-0.16973628103733063
1700516435132374000,8.6803740234375,-0.0006932232063263655,0.15691585838794708,-0.5338674187660217
1700516435142384000,8.690384033203125,0.16402718424797058,-0.18808910250663757,-0.12213468551635742
1700516435152395300,8.700395263671876,-0.009951531887054443,0.4022487699985504,0.03157924488186836
1700516435162405400,8.7104052734375,0.13391581177711487,-0.8258928060531616,-0.2861000597476959
1700516435172415200,8.720415283203126,0.0888841450214386,0.6304299235343933,-0.3452683091163635
1700516435182429400,8.730429443359375,0.018045978620648384,-0.2932029962539673,-0.1717337816953659
1700516435192439600,8.740439453125,-0.020596222952008247,-0.43827149271965027,-0.10796783864498138
1700516435202450400,8.750450439453125,0.0010892305290326476,0.30000272393226624,-0.8922348618507385
1700516435212460500,8.76046044921875,0.0797925665974617,0.4277588129043579,0.05318627506494522
1700516435222470400,8.770470458984375,-0.11918063461780548,-0.43948328495025635,0.5416558980941772
1700516435232481500,8.7804814453125,-0.08780833333730698,-0.28269127011299133,-0.25213515758514404
1700516435242491400,8.790491455078126,0.06787016987800598,0.9813809394836426,-0.2363995462656021
1700516435252502800,8.800502685546874,-0.035191237926483154,-0.450072705745697,-0.045664481818675995
1700516435262512600,8.8105126953125,-0.04356817156076431,-0.07976235449314117,0.06086796522140503
1700516435272522500,8.8205224609375,0.006508843973278999,0.3728613257408142,-0.16140371561050415
1700516435282533600,8.83053369140625,0.07752909511327744,-0.38521862030029297,-0.04198920354247093
1700516435292543700,8.840543701171875,0.012244102545082569,0.42166298627853394,0.3024033308029175
1700516435302553600,8.8505537109375,0.09650621563196182,-0.09495453536510468,0.02257658913731575
1700516435312564700,8.860564697265625,0.2161218225955963,0.6535694599151611,0.4342869222164154
1700516435322574600,8.87057470703125,0.0702468603849411,0.17828579246997833,0.9454142451286316
1700516435332585500,8.88058544921875,0.20726090669631958,-0.43918222188949585,0.6097297072410583
1700516435342595600,8.890595703125,0.027193129062652588,0.6113576292991638,0.38583964109420776
1700516435352605700,8.900605712890625,0.0606650672852993,-0.25222694873809814,0.28126928210258484
1700516435362616600,8.910616455078125,0.20514701306819916,-0.015758363530039787,0.0601239949464798
1700516435372626400,8.92062646484375,0.013438834808766842,0.523512065410614,-0.13788816332817078
1700516435382637600,8.930637451171876,0.05281243100762367,-0.28471049666404724,0.40492209792137146
1700516435392647400,8.9406474609375,0.02620052918791771,0.24122197926044464,0.03362097963690758
1700516435402657500,8.950657470703124,0.10577027499675751,-1.2034262418746948,-0.5199863910675049
1700516435412668400,8.96066845703125,-0.016287190839648247,0.07770631462335587,-0.8736696839332581
1700516435422678500,8.970678466796874,-0.056696318089962006,-0.7733452916145325,-1.0066518783569336
1700516435432689700,8.980689697265625,-0.06659235805273056,-0.12473532557487488,-0.49253609776496887
1700516435442699800,8.99069970703125,0.015451472252607346,-0.11183959245681763,-0.4386020302772522
1700516435452709600,9.000709716796875,0.04627436399459839,0.4454526901245117,0.5078715682029724
1700516435462720500,9.010720458984375,0.03275274857878685,0.44234004616737366,1.454785943031311
1700516435472730600,9.020730712890625,0.10059331357479095,-0.2902931869029999,0.9806157350540161
1700516435482741500,9.030741455078125,0.10533977299928665,0.6740586161613464,0.6715060472488403
1700516435492751600,9.040751708984375,-0.09451448172330856,-0.029222073033452034,0.18308871984481812
1700516435502761700,9.05076171875,-0.015879375860095024,-0.553088366985321,-0.5257595181465149
1700516435512772600,9.060772705078126,-0.028441505506634712,0.5102604627609253,-0.44869109988212585
1700516435522782500,9.070782470703126,-0.03741893544793129,-0.6223223209381104,-0.1693737655878067
1700516435532793600,9.080793701171874,0.007937630638480186,0.29576361179351807,0.18267004191875458
1700516435542803500,9.090803466796874,0.1415056735277176,0.14895327389240265,0.12492642551660538
1700516435552813600,9.1008134765625,0.11985763907432556,-0.0930337980389595,0.298096626996994
1700516435562824400,9.110824462890625,0.029331281781196594,0.6754418015480042,0.6129575967788696
1700516435572834600,9.12083447265625,0.19890832901000977,-0.402050256729126,0.16934789717197418
1700516435582845400,9.130845458984375,-0.044604815542697906,0.5499491095542908,0.24564625322818756
1700516435592855600,9.14085546875,-0.05212504789233208,-0.33575037121772766,0.10066375881433487
1700516435602865400,9.150865478515625,0.09660482406616211,-0.306934654712677,-0.2806771695613861
1700516435612876500,9.16087646484375,-0.04900510981678963,-0.2238437533378601,-0.9867589473724365
1700516435622886700,9.17088671875,-0.10441505163908005,-0.07943353801965714,-0.771109938621521
1700516435632897500,9.1808974609375,-0.14736439287662506,-0.5087164640426636,-1.063773274421692
1700516435642907600,9.19090771484375,-0.07128967344760895,-0.3789021074771881,-0.9122815132141113
1700516435652917500,9.20091748046875,0.02816154435276985,0.059005457907915115,-1.1295024156570435
1700516435662928600,9.2109287109375,0.11459194868803024,-0.01542629860341549,-0.09951809793710709
1700516435672938500,9.2209384765625,-0.049916576594114304,0.4334460496902466,0.7696926593780518
1700516435682949600,9.23094970703125,0.014661171473562717,-0.33344706892967224,0.23270203173160553
1700516435692959500,9.24095947265625,0.09727855771780014,0.778141438961029,0.6616576313972473
1700516435702969600,9.250969482421874,-0.04670431464910507,0.5033243298530579,0.7369028925895691
1700516435712980500,9.26098046875,-0.02177419513463974,-0.1108858734369278,0.16703057289123535
1700516435722990600,9.270990478515625,-0.020313899964094162,0.7008851170539856,0.3122299015522003
1700516435733001500,9.28100146484375,-0.02842588908970356,-0.29328009486198425,0.34268075227737427
1700516435743011600,9.291011474609375,0.0021997527219355106,-0.39339521527290344,0.27312394976615906
1700516435753021400,9.301021484375,-0.01228890847414732,0.3043258488178253,-0.08130709826946259
1700516435763032600,9.311032470703125,0.04661417752504349,-0.5397968888282776,0.026204369962215424
1700516435773042700,9.321042724609375,-0.022231997922062874,0.24977894127368927,0.19640912115573883
1700516435783053600,9.331053466796876,0.07512868940830231,-0.3239249289035797,-0.37382403016090393
1700516435793063700,9.341063720703126,0.109746053814888,0.42756637930870056,-0.41222521662712097
1700516435803073500,9.351073486328126,-0.04600053280591965,-0.15310758352279663,-0.36031147837638855
1700516435813084700,9.361084716796874,0.06974924355745316,-0.37139570713043213,-0.5937706232070923
1700516435823094500,9.371094482421874,-0.06681668758392334,0.4436187148094177,-0.8540157079696655
1700516435833105700,9.381105712890625,0.135305255651474,-0.0417594276368618,-0.36300739645957947
1700516435843115500,9.391115478515625,0.024475011974573135,0.3501215875148773,-0.12999550998210907
1700516435853125600,9.401125732421875,-0.059341590851545334,-0.1392481029033661,-0.15027281641960144
1700516435863136500,9.411136474609375,-0.08065956830978394,-0.035007722675800323,-0.5182522535324097
1700516435873146600,9.421146728515625,-0.13041220605373383,-0.31038203835487366,-0.4516969323158264
1700516435883157500,9.431157470703125,-0.11022012680768967,0.33560711145401,-0.07523725926876068
1700516435893167600,9.441167724609375,0.04059042036533356,-0.2231142520904541,-0.3790581226348877
1700516435903177500,9.451177490234375,0.09216058254241943,0.0077041867189109325,-0.6313080191612244
1700516435913188400,9.461188232421875,-0.09424817562103271,0.6283866167068481,0.4337793290615082
1700516435923198500,9.471198486328126,0.12493769824504852,-0.307540625333786,0.13918635249137878
1700516435933209600,9.481209716796876,0.18892787396907806,0.8177037835121155,0.7915367484092712
1700516435943219700,9.4912197265625,0.028702110052108765,0.21611186861991882,0.8778460621833801
1700516435953230600,9.501230712890624,0.0025011328980326653,-0.12398045510053635,0.87022465467453
1700516435963240700,9.51124072265625,0.033775657415390015,0.15994423627853394,0.16246500611305237
1700516435973250600,9.52125048828125,0.004245994612574577,-0.2641409933567047,0.30538833141326904
1700516435983261700,9.53126171875,0.004463262856006622,0.15924346446990967,0.4222869873046875
1700516435993271600,9.541271484375,-0.03389770910143852,-0.052590224891901016,-0.07561041414737701
1700516436003282400,9.551282470703125,0.013257107697427273,-0.18013159930706024,0.05421747267246246
1700516436013292500,9.56129248046875,-0.13391636312007904,0.15520325303077698,-0.4647042453289032
1700516436023302700,9.571302734375,0.035867612808942795,-0.5575199723243713,-0.84970623254776
1700516436033313500,9.5813134765625,-0.04558596760034561,0.2293887585401535,-1.0251837968826294
1700516436043323400,9.591323486328125,0.10189510136842728,-0.2996023893356323,-0.839847981929779
1700516436053334500,9.60133447265625,-0.17243312299251556,0.21335040032863617,-0.24388688802719116
1700516436063344400,9.611344482421876,-0.062161751091480255,-0.60425865650177,-0.20822027325630188
1700516436073355800,9.621355712890624,0.09017745405435562,0.32037490606307983,-0.32814455032348633
1700516436083365600,9.63136572265625,-0.17781715095043182,0.2997937500476837,0.34319138526916504
1700516436093375700,9.641375732421874,-0.06407354772090912,-0.3738784193992615,0.5898538827896118
1700516436103386600,9.65138671875,0.13458611071109772,0.2061799019575119,-0.03130321204662323
1700516436113396700,9.661396728515625,0.06995092332363129,0.5089126229286194,0.299507200717926
1700516436123407600,9.67140771484375,-0.04282054305076599,-0.01312153972685337,0.9495586156845093
1700516436133417700,9.681417724609375,0.12116838991641998,-0.1349041759967804,0.388642817735672
1700516436143427600,9.691427490234375,0.18264369666576385,0.7590702176094055,0.42152830958366394
1700516436153438500,9.7014384765625,0.007415418978780508,0.1590735763311386,0.6905017495155334
1700516436163448600,9.711448486328125,0.1178952306509018,-0.28611376881599426,0.13810499012470245
1700516436173459500,9.72145947265625,0.1616605520248413,0.946293294429779,0.15345518290996552
1700516436183466000,9.731466064453125,-0.008196208626031876,-0.45889613032341003,0.32208704948425293
1700516436193476900,9.741476806640625,0.07378014922142029,0.17180489003658295,0.18722164630889893
1700516436203487000,9.751487060546875,0.07791119813919067,0.20779964327812195,-0.17922835052013397
1700516436213496800,9.761496826171875,-0.0384734645485878,-0.10308951139450073,0.08589013665914536
1700516436223508000,9.771508056640625,-0.1795022189617157,0.1830301284790039,0.177191823720932
1700516436233517800,9.781517822265625,0.0727878138422966,-0.5669125318527222,-0.3000089228153229
1700516436243529000,9.791529052734376,0.05605974420905113,0.521303653717041,-0.1275455206632614
1700516436253538800,9.801538818359376,-0.13782131671905518,-0.6512757539749146,-0.18346284329891205
1700516436263549000,9.811548828125,-0.14188064634799957,-0.3092311918735504,-0.3549031913280487
1700516436273560000,9.82156005859375,-0.008549210615456104,-0.14083710312843323,-0.7360393404960632
1700516436283570200,9.831570068359374,0.0772751048207283,0.11849522590637207,-0.6765562891960144
1700516436293581000,9.8415810546875,-0.140774667263031,-0.3192485570907593,-0.7724111676216125
1700516436303591000,9.8515908203125,-0.1533551663160324,-0.07441810518503189,-0.552422285079956
1700516436313602000,9.86160205078125,0.14242561161518097,0.2823306918144226,-0.6688194274902344
1700516436323612000,9.87161181640625,0.011466531082987785,0.08986180275678635,-0.013797810301184654
1700516436333622000,9.8816220703125,-0.109897181391716,0.07727916538715363,0.6164328455924988
1700516436343633000,9.8916328125,0.041915252804756165,-0.2368592619895935,0.1704545021057129
1700516436353643000,9.90164306640625,0.08300809562206268,0.6739293336868286,0.18061205744743347
1700516436363654000,9.91165380859375,-0.144196018576622,0.3741585314273834,0.8605988621711731
1700516436373664000,9.9216640625,0.02239641174674034,-0.3693118691444397,0.3206413686275482
1700516436383675000,9.9316748046875,0.13455654680728912,1.1207619905471802,0.5949273109436035
1700516436393685000,9.94168505859375,-0.11320026218891144,-0.2446037232875824,0.700168788433075
1700516436403694800,9.95169482421875,0.003951624967157841,-0.29152488708496094,0.09586335718631744
1700516436413705700,9.961705810546874,0.0696699246764183,0.6123306751251221,-0.29343166947364807
1700516436423715800,9.9717158203125,0.006899168249219656,-0.6262822151184082,-0.16293013095855713
1700516436433727000,9.98172705078125,-0.003191016148775816,0.4765538275241852,-0.18906532227993011
1700516436443737000,9.991737060546875,0.17737187445163727,-0.12271533161401749,-0.38113999366760254
1700516436453748000,10.001748046875,-0.0010271535720676184,0.2123875766992569,0.3009378910064697
1700516436463758000,10.011758056640625,-0.030801204964518547,0.23328354954719543,0.28623127937316895
1700516436473768000,10.021767822265625,0.2195977121591568,-0.23112300038337708,0.14119897782802582
1700516436483779000,10.031779052734375,0.024513667449355125,0.35881856083869934,0.21283449232578278
1700516436493789000,10.041788818359375,0.013267138041555882,-0.40491026639938354,0.17145483195781708
1700516436503799800,10.0517998046875,-0.06779815256595612,0.2531346380710602,0.3579515516757965
1700516436513810000,10.061809814453126,0.026247389614582062,-0.41308334469795227,-0.2650560736656189
1700516436523820800,10.07182080078125,-0.05658899247646332,0.5836076140403748,0.028033701702952385
1700516436533831000,10.081830810546874,-0.1918211132287979,-0.2905060648918152,0.06479757279157639
1700516436543840800,10.0918408203125,-0.04051056131720543,-0.5225101113319397,-0.3061974048614502
1700516436553852000,10.101851806640624,0.07419844716787338,0.5696466565132141,-0.39552515745162964
1700516436563861800,10.11186181640625,-0.045987751334905624,-0.39107295870780945,0.020108219236135483
1700516436573873200,10.121873046875,-0.051415540277957916,-0.1029953584074974,0.17550605535507202
1700516436583883000,10.131883056640625,0.12715668976306915,0.45376086235046387,-0.28769099712371826
1700516436593894000,10.141893798828125,0.04393317177891731,0.4187062084674835,0.5445364117622375
1700516436603904000,10.151904052734375,-0.01804448291659355,0.02307017892599106,0.7724318504333496
1700516436613914000,10.1619140625,0.18385881185531616,-0.30532580614089966,0.04347991198301315
1700516436623925000,10.171925048828125,0.09090845286846161,0.7061370611190796,-0.1561916321516037
1700516436633934800,10.181934814453125,-0.14310671389102936,-0.2706131935119629,0.008881467394530773
1700516436643946000,10.191946044921876,0.07567135244607925,-0.26465731859207153,0.03078368678689003
1700516436653955800,10.201955810546876,0.07729002088308334,0.3737388551235199,-0.38423535227775574
1700516436663967000,10.211967041015624,-0.19647321105003357,-0.31086868047714233,0.15851037204265594
1700516436673976800,10.221976806640624,-0.060974765568971634,0.3327465057373047,-0.005233274307101965
1700516436683988000,10.231988037109375,0.021219249814748764,-0.5367318391799927,-0.16005545854568481
1700516436693997800,10.241997802734375,0.02992778643965721,0.49678051471710205,-0.05571441352367401
1700516436704008000,10.252008056640625,-0.18019548058509827,-0.3364875316619873,0.2177920788526535
1700516436714018800,10.262018798828125,0.05118820443749428,-0.4003775715827942,0.04975912347435951
1700516436724029000,10.27202880859375,0.04406721889972687,0.3719025254249573,-0.2735905051231384
1700516436734040000,10.2820400390625,-0.163658007979393,-0.14082306623458862,0.12414433062076569
1700516436744050000,10.2920498046875,-0.13101643323898315,0.10377031564712524,0.11893448233604431
1700516436754061000,10.30206103515625,0.05667037516832352,-0.4103904664516449,-0.3060578405857086
1700516436764071000,10.31207080078125,0.049665987491607666,0.47250914573669434,-0.2308519333600998
1700516436774082000,10.32208203125,-0.1447783261537552,-0.5597041249275208,-0.13797631859779358
1700516436784092000,10.332091796875,-0.06657668948173523,-0.3975814878940582,-0.35650086402893066
1700516436794102000,10.34210205078125,0.04340174049139023,0.32086771726608276,-0.5900217890739441
1700516436804113000,10.35211279296875,-0.0632203072309494,0.08282273262739182,-0.15122345089912415
1700516436814123000,10.362123046875,-0.10571423918008804,-0.033302269876003265,0.3282579183578491
1700516436824134000,10.3721337890625,-0.027513526380062103,-0.05529407411813736,-0.013836001977324486
1700516436834144000,10.38214404296875,0.026980074122548103,0.6627117395401001,0.20823808014392853
1700516436844155000,10.39215478515625,-0.17730896174907684,-0.22275979816913605,0.5677868127822876
1700516436854164700,10.402164794921875,0.05568806454539299,-0.26647183299064636,0.2874491512775421
1700516436864176000,10.412176025390625,-0.02077808789908886,0.2914702594280243,-0.03119385987520218
1700516436874186000,10.42218603515625,-0.16627483069896698,-0.38342908024787903,0.10099746286869049
1700516436884196000,10.432196044921875,-0.18394260108470917,0.15332253277301788,0.2056616246700287
1700516436894207000,10.44220703125,-0.015669966116547585,-0.438845157623291,-0.23017027974128723
1700516436904217000,10.452217041015626,-0.06744597852230072,0.48191478848457336,-0.06127617135643959
1700516436914228000,10.46222802734375,-0.14405180513858795,-0.5399651527404785,0.01520368829369545
1700516436924238000,10.472238037109374,0.14332185685634613,-0.13138438761234283,-0.40684232115745544
1700516436934249000,10.4822490234375,0.040880970656871796,0.5424265265464783,-0.1656547486782074
1700516436944258800,10.4922587890625,-0.14468839764595032,-0.49338498711586,0.3767765164375305
1700516436954270000,10.50227001953125,-0.07207944244146347,0.30803582072257996,0.34213995933532715
1700516436964279800,10.51227978515625,0.10931845009326935,0.08042752742767334,-0.12842151522636414
1700516436974290000,10.5222900390625,-0.22727182507514954,0.28221631050109863,0.220180943608284
1700516436984300800,10.53230078125,-0.24376896023750305,0.009530248120427132,0.10418014973402023
1700516436994311000,10.542310791015625,-0.04387820512056351,-0.6090994477272034,-0.11563344299793243
1700516437004322000,10.552322021484375,-0.10119906067848206,0.2165195643901825,-0.19729289412498474
1700516437014332200,10.562332275390625,-0.2099071592092514,-0.6517822742462158,0.05270842835307121
1700516437024343000,10.572343017578126,-0.1805969774723053,-0.0698702484369278,-0.029193062335252762
1700516437034353000,10.582352783203126,-0.0395333431661129,-0.19022329151630402,-0.42444130778312683
1700516437044364000,10.592364013671874,-0.09860783815383911,0.08066686987876892,-0.036522701382637024
1700516437054374000,10.602373779296874,-0.20176751911640167,-0.31356486678123474,0.08179648220539093
1700516437064385000,10.612385009765624,-0.05214918404817581,-0.600907564163208,-0.3082047402858734
1700516437074395000,10.622394775390624,0.11032894253730774,0.8168590068817139,-0.347837895154953
1700516437084405000,10.632405029296875,-0.01724831759929657,-0.2716098427772522,0.11504639685153961
1700516437094416000,10.642415771484375,-0.021858781576156616,0.11509737372398376,0.40434929728507996
1700516437104426000,10.652426025390625,0.06185426563024521,0.25648099184036255,0.15887533128261566
1700516437114436900,10.662436767578125,-0.09862995147705078,0.13616123795509338,0.30776041746139526
1700516437124447000,10.672447021484375,-0.21314729750156403,0.416647732257843,0.15638034045696259
1700516437134457900,10.682457763671875,-0.031968988478183746,-0.6123513579368591,-0.15105551481246948
1700516437144467700,10.6924677734375,-0.15095631778240204,0.4934326112270355,-0.14608654379844666
1700516437154479000,10.70247900390625,-0.2231713980436325,-0.5286702513694763,0.15209828317165375
1700516437164489000,10.712489013671876,-0.059896670281887054,-0.36379513144493103,0.21822449564933777
1700516437174500000,10.7225,-0.06986195594072342,0.0940302312374115,-0.24759885668754578
1700516437184510200,10.73251025390625,-0.12327124923467636,-0.2389763444662094,0.06879837065935135
1700516437194521000,10.74252099609375,-0.21950829029083252,0.17930559813976288,0.32310470938682556
1700516437204531200,10.75253125,0.03289829567074776,-0.6722419261932373,-0.13519684970378876
1700516437214541300,10.762541259765625,-0.03779850900173187,0.6037259101867676,-0.32383546233177185
1700516437224552400,10.772552490234375,-0.14149001240730286,-0.43911993503570557,-0.3956785500049591
1700516437234562000,10.78256201171875,-0.08203841000795364,-0.030605699867010117,-0.34419113397598267
1700516437244573400,10.792573486328125,-0.03382911533117294,-0.022237714380025864,-0.4390791654586792
1700516437254583300,10.802583251953125,-0.09524906426668167,0.1369388848543167,-0.006492322310805321
1700516437264594400,10.812594482421876,-0.2394537776708603,-0.09130241721868515,0.10327747464179993
1700516437274604300,10.822604248046876,-0.19872978329658508,-0.6514258980751038,-0.5535421967506409
1700516437284615200,10.832615234375,0.05942067876458168,0.9171152114868164,-0.41174909472465515
1700516437294625300,10.842625244140624,-0.12890954315662384,-0.36197176575660706,-0.21279366314411163
1700516437304636200,10.85263623046875,-0.09118148684501648,-0.2768387198448181,0.044784337282180786
1700516437314646300,10.862646240234374,0.06431329995393753,0.31859347224235535,-0.12709848582744598
1700516437324657200,10.8726572265625,-0.06418541073799133,0.002560382941737771,0.272279292345047
1700516437334667300,10.882667236328125,-0.07839204370975494,0.16300758719444275,0.512907087802887
1700516437344677000,10.892677001953125,0.07266506552696228,0.0011295692529529333,0.2341272085905075
1700516437354688300,10.902688232421875,0.01904125139117241,0.5401610732078552,0.45035696029663086
1700516437364698000,10.912697998046875,-0.0924249142408371,0.026726819574832916,0.5615307092666626
1700516437374709200,10.922709228515625,0.03139796108007431,-0.48451489210128784,0.1384209841489792
1700516437384719400,10.93271923828125,-0.023994989693164825,0.6196540594100952,-0.29916080832481384
1700516437394730200,10.942730224609376,-0.08798889070749283,-0.5272167921066284,-0.1396167129278183
1700516437404740400,10.952740234375,-0.07045627385377884,0.14512388408184052,0.050947148352861404
1700516437414751200,10.962751220703124,0.04836571589112282,-0.08866917341947556,-0.2837669253349304
1700516437424761300,10.97276123046875,-0.14422130584716797,0.23857396841049194,0.010274242609739304
1700516437434772200,10.982772216796874,-0.07859942317008972,-0.09168197214603424,-0.09515098482370377
1700516437444782300,10.9927822265625,0.09235145896673203,-0.4998854696750641,-0.49066197872161865
1700516437454793200,11.002793212890625,0.0169866643846035,0.43081316351890564,-0.4389769434928894
1700516437464803300,11.01280322265625,-0.07585781812667847,-0.47813650965690613,-0.1374978870153427
1700516437474814200,11.022814208984375,-0.14038486778736115,-0.010992232710123062,0.09304530173540115
1700516437484824000,11.032823974609375,-0.005603316705673933,-0.017449969425797462,-0.2206948697566986
1700516437494834200,11.042834228515625,-0.03131027892231941,0.2401573359966278,0.3227047622203827
1700516437504845300,11.05284521484375,-0.15611985325813293,0.05081187188625336,0.5192559361457825
1700516437514855400,11.06285546875,0.021817650645971298,-0.06059747561812401,0.09393823146820068
1700516437524866300,11.0728662109375,0.07712870836257935,0.3907082974910736,0.28412166237831116
1700516437534876400,11.08287646484375,-0.18507574498653412,-0.2677809000015259,0.49241599440574646
1700516437544887300,11.09288720703125,-0.028349243104457855,-0.008202825672924519,0.21585863828659058
1700516437554897400,11.1028974609375,0.08025500178337097,0.2740935683250427,-0.3290017247200012
1700516437564908300,11.112908203125,-0.07941754162311554,-0.07277721911668777,-0.00935995951294899
1700516437574918100,11.122918212890625,-0.057965509593486786,0.3228452205657959,0.18814966082572937
1700516437584929300,11.13292919921875,0.1638936847448349,-0.24378953874111176,-0.05314560607075691
1700516437594939100,11.142939208984375,0.0068167285062372684,0.48568034172058105,0.09124433249235153
1700516437604950300,11.1529501953125,-0.05995547026395798,0.063944011926651,0.006399333477020264
1700516437614960000,11.162960205078125,0.1040201485157013,-0.28730082511901855,-0.03863365575671196
1700516437624971300,11.17297119140625,0.050299275666475296,0.4911951720714569,-0.2489197701215744
1700516437634981000,11.182981201171875,-0.1501571238040924,-0.29167085886001587,0.3025636076927185
1700516437644992300,11.1929921875,-0.1001737117767334,0.1720961481332779,0.3571907579898834
1700516437655002400,11.20300244140625,0.08205708116292953,0.0040480284951627254,-0.002628125250339508
1700516437665013200,11.21301318359375,-0.03342028707265854,0.16630452871322632,0.2108611911535263
1700516437675023400,11.2230234375,-0.16273246705532074,0.005653857719153166,0.14777544140815735
1700516437685033200,11.233033203125,0.10417749732732773,-0.6436252593994141,-0.2879491150379181
1700516437695044400,11.24304443359375,0.08632979542016983,0.46907562017440796,-0.5120086073875427
1700516437705054200,11.25305419921875,-0.10035699605941772,-0.4036478102207184,-0.22794708609580994
1700516437715065300,11.2630654296875,-0.08560016006231308,-0.21173669397830963,-0.0868685245513916
1700516437725075200,11.2730751953125,0.0026056591887027025,-0.24714185297489166,-0.6092860698699951
1700516437735086000,11.283086181640625,0.08697700500488281,0.84998619556427,-0.5157545208930969
1700516437745096200,11.29309619140625,0.021364524960517883,0.24332375824451447,-0.029380498453974724
1700516437755107000,11.303107177734375,-0.029463768005371094,-0.36051154136657715,-0.22660915553569794
1700516437765117200,11.3131171875,0.08426350355148315,0.9496356248855591,0.2728087306022644
1700516437775128300,11.32312841796875,-0.05945158004760742,0.09287513792514801,1.0410971641540527
1700516437785138400,11.333138427734376,0.08442272245883942,-0.17226587235927582,1.27230966091156
1700516437795149300,11.3431494140625,0.1246660128235817,0.7770035266876221,0.6098307967185974
1700516437805159400,11.353159423828124,0.08648364245891571,-0.7083754539489746,0.6147599220275879
1700516437815170300,11.36317041015625,0.06772033870220184,0.33751049637794495,0.260071337223053
1700516437825180400,11.373180419921875,0.15099991858005524,0.1366787701845169,-0.3162560760974884
1700516437835191300,11.38319140625,-0.028637215495109558,-0.21343237161636353,0.026230687275528908
1700516437845201200,11.393201171875,0.08905169367790222,0.30502548813819885,-0.2963528633117676
1700516437855212300,11.40321240234375,0.09115160256624222,-0.8585926294326782,-0.6073250770568848
1700516437865222100,11.41322216796875,0.110748790204525,0.5707012414932251,-0.7562582492828369
1700516437875233300,11.4232333984375,-0.07899371534585953,-0.26406174898147583,-0.6344239115715027
1700516437885243100,11.4332431640625,-0.12527310848236084,-0.011982846073806286,-0.22798866033554077
1700516437895254300,11.443254150390626,-0.04629122093319893,-0.3381476402282715,-0.9913795590400696
1700516437905264400,11.453264404296876,-0.054131656885147095,0.578836977481842,0.1939115673303604
1700516437915275300,11.463275146484374,-0.15696004033088684,-0.06528870016336441,0.5690004825592041
1700516437925285400,11.473285400390624,-0.031428564339876175,-0.16217851638793945,-0.060367465019226074
1700516437935296300,11.483296142578125,0.17157036066055298,0.5005033016204834,0.11097259074449539
1700516437945306400,11.493306396484375,-0.1339668333530426,-0.007172863930463791,0.462966650724411
1700516437955317200,11.503317138671875,0.04177171364426613,-0.4004913866519928,0.22162912786006927
1700516437965327400,11.513327392578125,0.26344192028045654,0.6889306306838989,0.0915437564253807
1700516437975337200,11.523337158203125,0.061015840619802475,-0.2029327005147934,0.5327248573303223
1700516437985348400,11.533348388671875,0.24133870005607605,-0.1196134015917778,0.5542381405830383
1700516437995358200,11.543358154296875,0.1588081419467926,0.6836146712303162,-0.07839096337556839
1700516438005369000,11.553369140625,-0.004975460469722748,-0.18192414939403534,0.31242626905441284
1700516438015379200,11.563379150390626,0.02456831745803356,0.6213752627372742,-0.021821746602654457
1700516438025390300,11.573390380859376,0.06969863176345825,-0.38113948702812195,-0.39539241790771484
1700516438035400400,11.583400390625,-0.03668533265590668,0.5200108885765076,-0.6079545021057129
1700516438045411300,11.593411376953124,-0.07795979082584381,-0.41501644253730774,-0.4018231928348541
1700516438055421400,11.60342138671875,-0.08065624535083771,-0.33361825346946716,-0.38937532901763916
1700516438065432300,11.613432373046875,-0.0076089296489953995,0.090230792760849,-0.5236951112747192
1700516438075442400,11.6234423828125,-0.030254587531089783,-0.0842914804816246,0.0996587723493576
1700516438085453300,11.633453369140625,-0.044478971511125565,-0.243745818734169,0.3992139399051666
1700516438095463200,11.643463134765625,0.08231199532747269,0.18789292871952057,0.005228816531598568
1700516438105474300,11.653474365234375,0.08515121042728424,0.3176121413707733,0.3346233367919922
1700516438115484200,11.663484130859375,0.06664064526557922,0.045090071856975555,0.5219128131866455
1700516438125495300,11.673495361328126,0.15980759263038635,-0.16800841689109802,-0.028257818892598152
1700516438135505200,11.683505126953126,0.16536667943000793,0.7003653049468994,-0.14279158413410187
1700516438145516000,11.69351611328125,0.04933789372444153,0.10985913127660751,0.14868251979351044
1700516438155526100,11.703526123046874,0.1353611946105957,-0.34329554438591003,-0.100022092461586
1700516438165537300,11.713537353515624,0.06770354509353638,0.6975473165512085,-0.5037016868591309
1700516438175547400,11.72354736328125,-0.15610425174236298,-0.07939476519823074,-0.04833734408020973
1700516438185557500,11.7335576171875,-0.028389520943164825,-0.1770731508731842,0.22570978105068207
1700516438195567600,11.743567626953125,0.09830130636692047,0.25161483883857727,-0.17375187575817108
1700516438205578500,11.75357861328125,-0.1028539165854454,0.11124512553215027,0.40998411178588867
1700516438215588600,11.763588623046875,-0.054351355880498886,0.016980143263936043,0.6025232076644897
1700516438225599700,11.773599853515625,0.11568444222211838,-0.7397704124450684,0.10591845214366913
1700516438235609600,11.783609619140625,0.06664419174194336,0.710466742515564,-0.3148319721221924
1700516438245620700,11.793620849609376,0.0031298366375267506,0.0619656927883625,-0.17951741814613342
1700516438255630800,11.803630859375,0.1368442177772522,-0.25415125489234924,-0.07704458385705948
1700516438265641700,11.813641845703126,0.1661950647830963,0.3832746744155884,-0.06883133947849274
1700516438275651600,11.823651611328126,-0.0365990586578846,-0.03887924551963806,0.35412606596946716
1700516438285662700,11.833662841796874,0.23398280143737793,-0.21672306954860687,0.3223307430744171
1700516438295672600,11.843672607421874,0.052289705723524094,0.42883384227752686,-0.10041092336177826
1700516438305683700,11.85368359375,-0.08185283839702606,-0.3515571057796478,0.19372586905956268
1700516438315693600,11.863693603515625,0.024266939610242844,0.21859294176101685,0.1363603174686432
1700516438325704400,11.873704345703125,-0.045955631881952286,-0.4861246347427368,-0.0919262021780014
1700516438335714600,11.883714599609375,-0.07439978420734406,0.5180588960647583,-0.049334798008203506
1700516438345725400,11.893725341796875,-0.12441934645175934,-0.298564076423645,0.19756656885147095
1700516438355735600,11.903735595703125,0.05969376862049103,-0.681863009929657,-0.13482922315597534
1700516438365746700,11.91374658203125,-0.0017094853101298213,0.5990174412727356,-0.5556203722953796
1700516438375756800,11.9237568359375,-0.10238070785999298,-0.3534131646156311,-0.21789346635341644
1700516438385767700,11.933767578125,-0.023896677419543266,-0.49891507625579834,-0.11815264075994492
1700516438395777800,11.94377783203125,0.06299933791160583,0.30647996068000793,-0.34738263487815857
1700516438405788700,11.95378857421875,-0.09081649035215378,-0.17556679248809814,0.21815969049930573
1700516438415798800,11.963798828125,0.03915136307477951,-0.19899675250053406,0.44273263216018677
1700516438425809700,11.9738095703125,0.12338762730360031,-0.04225286841392517,-0.03710097074508667
1700516438435819500,11.983819580078125,-0.043824270367622375,0.503879964351654,0.26110169291496277
1700516438445830700,11.99383056640625,0.07004354149103165,0.00487957987934351,0.41226860880851746
1700516438455840500,12.003840576171875,0.10900186002254486,-0.27156904339790344,0.08443029969930649
1700516438465851600,12.0138515625,0.04962615296244621,0.630815863609314,-0.11759337037801743
1700516438475861500,12.023861572265625,-0.07240840792655945,-0.161164790391922,0.2652919590473175
1700516438485872600,12.03387255859375,0.12020785361528397,-0.6705930829048157,-0.07740746438503265
1700516438495882800,12.0438828125,-0.08447124809026718,0.5386394262313843,-0.6417579650878906
1700516438505893600,12.0538935546875,-0.17646446824073792,-0.6622651815414429,-0.33593064546585083
1700516438515903700,12.06390380859375,-0.11047693341970444,-0.46249210834503174,-0.2981531620025635
1700516438525914600,12.07391455078125,-0.05584244057536125,-0.08299238979816437,-0.8126922249794006
1700516438535924700,12.0839248046875,-0.0029898793436586857,0.3248792290687561,-0.30863043665885925
1700516438545935600,12.093935546875,-0.0323343351483345,-0.33285626769065857,0.2585960328578949
1700516438555945700,12.10394580078125,-0.05865462124347687,-0.17006176710128784,-0.22274023294448853
1700516438565956600,12.11395654296875,0.20992325246334076,0.685326337814331,0.10146774351596832
1700516438575966700,12.123966796875,-0.008748112246394157,0.01176919974386692,0.5014058351516724
1700516438585977600,12.1339775390625,0.11549996584653854,-0.3282654285430908,0.19177789986133575
1700516438595987500,12.143987548828125,0.1083080992102623,0.8230233788490295,-0.16090399026870728
1700516438605998800,12.153998779296876,-0.11848501861095428,-0.49989768862724304,0.3005498945713043
1700516438616008700,12.1640087890625,-0.049095023423433304,-0.29504865407943726,0.018289973959326744
1700516438626019800,12.174019775390626,0.008847198449075222,0.1758861243724823,-0.6343345642089844
1700516438636029700,12.18402978515625,-0.15034699440002441,0.21733662486076355,-0.12189522385597229
1700516438646040600,12.19404052734375,-0.060557685792446136,-0.6954638361930847,0.06149064749479294
1700516438656050700,12.20405078125,-0.15684720873832703,-0.12268579006195068,-0.314441978931427
1700516438666061600,12.2140615234375,0.05345194786787033,0.677753210067749,-0.30852341651916504
1700516438676071700,12.22407177734375,-0.024948850274086,-0.01704098843038082,0.1300313025712967
