time,seconds_elapsed,z,y,x
1700516898182579500,0.017579345703125,-1.0854339599609375,-0.094146728515625,-0.009674072265625
1700516898192590600,0.027590576171875,-0.90594482421875,-0.209259033203125,0.130645751953125
1700516898202600400,0.037600341796875,-0.7223052978515625,-0.1185150146484375,-0.0566864013671875
1700516898212611300,0.047611328125,-1.2386474609375,-0.1184234619140625,0.0836029052734375
1700516898222622500,0.05762255859375,-1.0801849365234375,0.0924835205078125,0.039398193359375
1700516898232633600,0.067633544921875,-0.8033447265625,-0.2625274658203125,0.0628814697265625
1700516898242643700,0.077643798828125,-0.9701385498046875,-0.1632537841796875,-0.0272064208984375
1700516898252654600,0.087654541015625,-1.1013336181640625,-0.108367919921875,0.1014556884765625
1700516898262665500,0.09766552734375,-1.0049285888671875,0.016998291015625,0.02813720703125
1700516898272676400,0.10767626953125,-1.12286376953125,-0.17706298828125,0.0334320068359375
1700516898282686500,0.1176865234375,-0.72064208984375,-0.130279541015625,0.08197021484375
1700516898292697300,0.127697265625,-0.90850830078125,-0.1620025634765625,-0.0478668212890625
1700516898302708500,0.13770849609375,-1.282623291015625,-0.043304443359375,0.1112213134765625
1700516898312719600,0.1477197265625,-0.93072509765625,0.0272674560546875,0.0272369384765625
1700516898322730500,0.15773046875,-0.8287811279296875,-0.30841064453125,0.0607452392578125
1700516898332740600,0.16774072265625,-1.067779541015625,-0.1089324951171875,-0.0108795166015625
1700516898342751500,0.17775146484375,-1.074920654296875,-0.06976318359375,0.12213134765625
1700516898352762400,0.187762451171875,-1.031646728515625,-0.039031982421875,-0.00067138671875
1700516898362773500,0.1977734375,-1.0518951416015625,-0.20660400390625,0.09686279296875
1700516898372783400,0.207783447265625,-0.6386871337890625,-0.089141845703125,0.024932861328125
1700516898382794500,0.21779443359375,-1.170623779296875,-0.19775390625,0.01971435546875
1700516898392805600,0.2278056640625,-1.1672210693359375,0.05078125,0.0819854736328125
1700516898402816500,0.23781640625,-0.8423919677734375,-0.10504150390625,0.0496368408203125
1700516898412826600,0.24782666015625,-0.8721466064453125,-0.267730712890625,0.0260162353515625
1700516898422837500,0.25783740234375,-1.142425537109375,-0.1084747314453125,0.0349884033203125
1700516898432848400,0.267848388671875,-1.013427734375,-0.025390625,0.0906219482421875
1700516898442859500,0.277859619140625,-1.086822509765625,-0.0877532958984375,0.0005340576171875
1700516898452869400,0.287869384765625,-0.9091339111328125,-0.214599609375,0.1112213134765625
1700516898462880500,0.297880615234375,-0.677276611328125,-0.08404541015625,-0.029937744140625
1700516898472891600,0.3078916015625,-1.29180908203125,-0.1846466064453125,0.0558624267578125
1700516898482902500,0.317902587890625,-1.065582275390625,0.116607666015625,0.0387420654296875
1700516898492912600,0.32791259765625,-0.820831298828125,-0.219970703125,0.067474365234375
1700516898502923500,0.337923583984375,-0.9156646728515625,-0.2025909423828125,-0.0142669677734375
1700516898512934400,0.347934326171875,-1.177581787109375,-0.1020050048828125,0.08441162109375
1700516898522945300,0.3579453125,-0.9837493896484375,-0.001678466796875,0.04150390625
1700516898532956700,0.367956787109375,-1.1314239501953125,-0.157257080078125,0.0228118896484375
1700516898542966500,0.377966552734375,-0.73126220703125,-0.1752166748046875,0.0925140380859375
1700516898552977700,0.387977783203125,-0.853057861328125,-0.1210784912109375,-0.0455474853515625
1700516898562988500,0.397988525390625,-1.341796875,-0.127105712890625,0.0993499755859375
1700516898572999400,0.40799951171875,-0.9514923095703125,0.100921630859375,0.0082244873046875
1700516898583009500,0.418009521484375,-0.785919189453125,-0.3104400634765625,0.0706787109375
1700516898593020400,0.4280205078125,-1.025543212890625,-0.124969482421875,-0.020355224609375
1700516898603031300,0.43803125,-1.1710662841796875,-0.1078948974609375,0.109710693359375
1700516898613042700,0.448042724609375,-0.9491119384765625,-0.0102691650390625,0.01654052734375
1700516898623052500,0.458052490234375,-1.100830078125,-0.2013092041015625,0.05792236328125
1700516898633063700,0.468063720703125,-0.6512298583984375,-0.1099700927734375,0.0565948486328125
1700516898643074600,0.478074462890625,-1.072998046875,-0.1624755859375,-0.0138397216796875
1700516898653085400,0.48808544921875,-1.2351531982421875,-0.04266357421875,0.0991058349609375
1700516898663096000,0.498095947265625,-0.866943359375,0.0150146484375,0.0140838623046875
1700516898673106200,0.508106201171875,-0.808868408203125,-0.302215576171875,0.0735321044921875
1700516898683117000,0.518116943359375,-1.12786865234375,-0.0994110107421875,-0.0102996826171875
1700516898693128200,0.528128173828125,-1.0917510986328125,-0.0885467529296875,0.12481689453125
1700516898703139000,0.53813916015625,-0.9720611572265625,-0.0301666259765625,0.0011138916015625
1700516898713149200,0.548149169921875,-1.05206298828125,-0.224456787109375,0.086578369140625
1700516898723160000,0.55816015625,-0.654296875,-0.0818023681640625,0.040618896484375
1700516898733171200,0.568171142578125,-1.1715240478515625,-0.1960601806640625,0.0169830322265625
1700516898743182000,0.57818212890625,-1.184112548828125,0.0269927978515625,0.084869384765625
1700516898753192200,0.588192138671875,-0.8443145751953125,-0.0682373046875,0.0390472412109375
1700516898763203000,0.598203125,-0.846282958984375,-0.2920074462890625,0.041015625
1700516898773214200,0.608214111328125,-1.146209716796875,-0.0920867919921875,0.0141448974609375
1700516898783225000,0.61822509765625,-1.0523681640625,-0.0686187744140625,0.1026153564453125
1700516898793235000,0.62823486328125,-1.0430450439453125,-0.0680999755859375,-0.007171630859375
1700516898803246000,0.63824609375,-0.963226318359375,-0.2011566162109375,0.0979156494140625
1700516898813257200,0.64825732421875,-0.6525421142578125,-0.1028594970703125,-0.00048828125
1700516898823268000,0.65826806640625,-1.2413482666015625,-0.1804351806640625,0.0330352783203125
1700516898833278200,0.6682783203125,-1.1295013427734375,0.0778961181640625,0.066162109375
1700516898843289000,0.6782890625,-0.8134613037109375,-0.1417999267578125,0.0436553955078125
1700516898853300000,0.688300048828125,-0.888458251953125,-0.2497100830078125,0.0205230712890625
1700516898863311000,0.69831103515625,-1.1524200439453125,-0.101043701171875,0.037139892578125
1700516898873322000,0.708322021484375,-1.012542724609375,-0.03021240234375,0.083740234375
1700516898883332000,0.71833203125,-1.0858917236328125,-0.1117401123046875,-0.00140380859375
1700516898893343200,0.72834326171875,-0.8726806640625,-0.1729278564453125,0.0960845947265625
1700516898903354000,0.73835400390625,-0.712554931640625,-0.1033477783203125,-0.0150604248046875
1700516898913365200,0.748365234375,-1.3214874267578125,-0.163116455078125,0.0703582763671875
1700516898923375000,0.758375,-1.0343780517578125,0.099853515625,0.04364013671875
1700516898933386000,0.768385986328125,-0.7816314697265625,-0.209564208984375,0.0618743896484375
1700516898943397000,0.778397216796875,-0.9617462158203125,-0.2061309814453125,0.004852294921875
1700516898953408000,0.788407958984375,-1.182830810546875,-0.1089935302734375,0.0877838134765625
1700516898963418000,0.798418212890625,-0.9635772705078125,-0.0063018798828125,0.0496978759765625
1700516898973429200,0.80842919921875,-1.1271209716796875,-0.1542816162109375,0.031005859375
1700516898983440100,0.818440185546875,-0.73712158203125,-0.1620941162109375,0.0856781005859375
1700516898993451000,0.828450927734375,-0.86700439453125,-0.1325531005859375,-0.0145721435546875
1700516899003462100,0.838462158203125,-1.3403167724609375,-0.120574951171875,0.099334716796875
1700516899013472000,0.848471923828125,-0.925689697265625,0.0751495361328125,0.0214996337890625
1700516899023483100,0.858483154296875,-0.7927093505859375,-0.2762451171875,0.0768280029296875
1700516899033494300,0.868494384765625,-1.0489654541015625,-0.1508331298828125,-0.012481689453125
1700516899043505200,0.878505126953125,-1.1679534912109375,-0.1092529296875,0.1116790771484375
1700516899053515300,0.888515380859375,-0.9389495849609375,-0.0055694580078125,0.0217132568359375
1700516899063526100,0.898526123046875,-1.1008758544921875,-0.2115020751953125,0.0536346435546875
1700516899073537000,0.908537109375,-0.680023193359375,-0.1047210693359375,0.059844970703125
1700516899083548200,0.918548095703125,-1.023193359375,-0.1641082763671875,-0.0073394775390625
1700516899093558000,0.92855810546875,-1.263153076171875,-0.0600738525390625,0.0906524658203125
1700516899103569200,0.938569091796875,-0.8842315673828125,0.022674560546875,0.018341064453125
1700516899113580300,0.948580322265625,-0.7802886962890625,-0.28778076171875,0.0628509521484375
1700516899123591200,0.958591064453125,-1.108489990234375,-0.119354248046875,-0.0092926025390625
1700516899133602000,0.96860205078125,-1.1257476806640625,-0.0968170166015625,0.1092987060546875
1700516899143612200,0.978612060546875,-0.95208740234375,-0.019866943359375,0.0019683837890625
1700516899153623000,0.988623046875,-1.0673980712890625,-0.204498291015625,0.066253662109375
1700516899163634200,0.99863427734375,-0.6395721435546875,-0.079193115234375,0.036224365234375
1700516899173645000,1.00864501953125,-1.1594390869140625,-0.1815338134765625,0.009796142578125
1700516899183655000,1.018655029296875,-1.2028350830078125,-0.0127410888671875,0.0823516845703125
1700516899193666300,1.028666259765625,-0.820098876953125,-0.0269317626953125,0.0307464599609375
1700516899203677200,1.03867724609375,-0.828460693359375,-0.2906646728515625,0.0551300048828125
1700516899213688000,1.04868798828125,-1.17852783203125,-0.10394287109375,0.0175323486328125
1700516899223698200,1.0586982421875,-1.0564727783203125,-0.07177734375,0.0892181396484375
1700516899233709000,1.068708984375,-0.9971160888671875,-0.0577239990234375,0.0081787109375
1700516899243720000,1.078719970703125,-1.03192138671875,-0.1904754638671875,0.07861328125
1700516899253731000,1.08873095703125,-0.6458282470703125,-0.0795745849609375,0.0240020751953125
1700516899263742200,1.0987421875,-1.2448272705078125,-0.1954193115234375,0.0286102294921875
1700516899273752300,1.10875244140625,-1.1011505126953125,0.0245208740234375,0.0575714111328125
1700516899283763200,1.11876318359375,-0.8123016357421875,-0.0795135498046875,0.0503692626953125
1700516899293774000,1.128774169921875,-0.881500244140625,-0.285064697265625,0.0377044677734375
1700516899303785000,1.138784912109375,-1.1969451904296875,-0.1009063720703125,0.0340728759765625
1700516899313795000,1.148795166015625,-0.996978759765625,-0.053314208984375,0.075775146484375
1700516899323806000,1.158805908203125,-1.0411529541015625,-0.1144256591796875,0.0265045166015625
1700516899333817000,1.168817138671875,-0.9672088623046875,-0.164825439453125,0.0756988525390625
1700516899343828200,1.178828125,-0.664520263671875,-0.0999908447265625,0.0179290771484375
1700516899353838000,1.188838134765625,-1.292572021484375,-0.19891357421875,0.0409393310546875
1700516899363849200,1.19884912109375,-1.0695037841796875,0.0634307861328125,0.0571746826171875
1700516899373860000,1.208860107421875,-0.79833984375,-0.1363525390625,0.0513153076171875
1700516899383871000,1.21887109375,-0.906646728515625,-0.2660675048828125,0.0278472900390625
1700516899393882000,1.228882080078125,-1.1932220458984375,-0.0890655517578125,0.0260009765625
1700516899403892000,1.23889208984375,-1.015655517578125,-0.03314208984375,0.06341552734375
1700516899413903400,1.2489033203125,-1.065399169921875,-0.12249755859375,0.00811767578125
1700516899423914200,1.258914306640625,-0.868377685546875,-0.160980224609375,0.066436767578125
1700516899433925000,1.268925048828125,-0.719879150390625,-0.1096649169921875,-0.007781982421875
1700516899443935200,1.278935302734375,-1.3093414306640625,-0.1527862548828125,0.04315185546875
1700516899453946000,1.288946044921875,-1.056304931640625,0.09381103515625,0.02935791015625
1700516899463957000,1.29895703125,-0.8035125732421875,-0.187469482421875,0.0557861328125
1700516899473968000,1.308968017578125,-0.91265869140625,-0.2238006591796875,-0.002044677734375
1700516899483979300,1.318979248046875,-1.17181396484375,-0.0754547119140625,0.0395965576171875
1700516899493989000,1.328989013671875,-1.06378173828125,-0.0230865478515625,0.052642822265625
1700516899504000300,1.339000244140625,-1.061370849609375,-0.126495361328125,0.0192413330078125
1700516899514011100,1.34901123046875,-0.812225341796875,-0.1534881591796875,0.0520172119140625
1700516899524022000,1.35902197265625,-0.7689971923828125,-0.118072509765625,-0.0217437744140625
1700516899534032100,1.3690322265625,-1.2720794677734375,-0.148895263671875,0.0588531494140625
1700516899544043000,1.37904296875,-1.115509033203125,0.13720703125,0.0271759033203125
1700516899554054100,1.38905419921875,-0.79766845703125,-0.2568817138671875,0.0523223876953125
1700516899564065300,1.399065185546875,-0.9128265380859375,-0.2268524169921875,0.0076904296875
1700516899574075100,1.4090751953125,-1.0411529541015625,-0.0545501708984375,0.0124969482421875
1700516899584086300,1.419086181640625,-1.1724395751953125,0.01177978515625,0.0962066650390625
1700516899594097200,1.42909716796875,-1.0712890625,-0.0761871337890625,-0.002532958984375
1700516899604108000,1.43910791015625,-0.677947998046875,-0.187103271484375,0.0372314453125
1700516899614119200,1.449119140625,-1.0426483154296875,-0.0723114013671875,0.063995361328125
1700516899624129000,1.45912890625,-1.155487060546875,-0.136932373046875,-0.0005950927734375
1700516899634140000,1.469139892578125,-0.9426116943359375,0.12554931640625,-0.0006103515625
1700516899644151300,1.4791513671875,-0.727020263671875,-0.2267303466796875,0.121063232421875
1700516899654162200,1.489162109375,-1.2168731689453125,-0.1917266845703125,-0.0039520263671875
1700516899664172300,1.49917236328125,-1.064178466796875,0.0168609619140625,-0.018341064453125
1700516899674183400,1.509183349609375,-1.0539703369140625,-0.01116943359375,0.0778350830078125
1700516899684194300,1.5191943359375,-0.9615020751953125,-0.1683197021484375,0.032135009765625
1700516899694205200,1.529205078125,-0.656402587890625,-0.1567840576171875,0.013153076171875
1700516899704216600,1.539216552734375,-1.1616668701171875,-0.0597991943359375,0.02789306640625
1700516899714226400,1.549226318359375,-1.1968536376953125,-0.103118896484375,0.01556396484375
1700516899724237600,1.559237548828125,-0.8471527099609375,0.1285247802734375,0.0045166015625
1700516899734248400,1.56924853515625,-0.7738494873046875,-0.27972412109375,0.1107330322265625
1700516899744259300,1.57925927734375,-1.288909912109375,-0.16766357421875,-0.024444580078125
1700516899754269400,1.58926953125,-1.0207061767578125,-0.0027008056640625,0.0255279541015625
1700516899764280300,1.5992802734375,-1.0450286865234375,-0.0369415283203125,0.0713043212890625
1700516899774291200,1.609291259765625,-0.8719635009765625,-0.20361328125,0.0055389404296875
1700516899784302600,1.619302490234375,-0.847686767578125,-0.09686279296875,0.0683746337890625
1700516899794313500,1.6293134765625,-1.178131103515625,-0.1038055419921875,0.023895263671875
1700516899804323300,1.6393232421875,-0.8797760009765625,-0.119171142578125,-0.0143890380859375
1700516899814334500,1.64933447265625,-1.077178955078125,0.11322021484375,0.1104583740234375
1700516899824345300,1.659345458984375,-0.90252685546875,-0.3119354248046875,0.0756683349609375
1700516899834356200,1.669356201171875,-0.95880126953125,-0.1338348388671875,-0.0714569091796875
1700516899844366300,1.679366455078125,-1.0836334228515625,-0.0632171630859375,0.169647216796875
1700516899854377200,1.689377197265625,-1.0315399169921875,-0.0299072265625,0.0085906982421875
1700516899864388400,1.699388427734375,-1.0813751220703125,-0.138275146484375,0.0400238037109375
1700516899874399500,1.7093994140625,-0.7608489990234375,-0.1003570556640625,0.1211395263671875
1700516899884410400,1.719410400390625,-0.8692626953125,-0.1729583740234375,-0.08441162109375
1700516899894420500,1.72942041015625,-1.28753662109375,0.0011444091796875,0.1160736083984375
1700516899904431400,1.739431396484375,-0.9493408203125,0.067901611328125,0.0493011474609375
1700516899914442200,1.749442138671875,-0.88262939453125,-0.322357177734375,0.0213470458984375
1700516899924453400,1.759453369140625,-1.039764404296875,-0.07061767578125,-0.009674072265625
1700516899934463200,1.769463134765625,-1.027801513671875,-0.066802978515625,0.09576416015625
1700516899944474400,1.779474365234375,-1.11859130859375,-0.0301361083984375,-0.0214385986328125
1700516899954485500,1.789485595703125,-1.033447265625,-0.1443634033203125,0.0774078369140625
1700516899964496400,1.799496337890625,-0.6440887451171875,-0.1045989990234375,0.0190277099609375
1700516899974507300,1.80950732421875,-1.0634918212890625,-0.1484832763671875,-0.044158935546875
1700516899984517400,1.819517333984375,-1.2605133056640625,0.03094482421875,0.1092529296875
1700516899994528300,1.8295283203125,-0.842376708984375,-0.0565948486328125,0.0082244873046875
1700516900004539100,1.8395390625,-0.886993408203125,-0.25830078125,0.0099945068359375
1700516900014550500,1.849550537109375,-1.097625732421875,-0.088165283203125,0.020751953125
1700516900024560400,1.859560302734375,-1.0402984619140625,-0.046478271484375,0.0714111328125
1700516900034571500,1.869571533203125,-1.1021270751953125,-0.089447021484375,-0.011199951171875
1700516900044582400,1.87958251953125,-0.8952178955078125,-0.1674957275390625,0.0947418212890625
1700516900054593300,1.88959326171875,-0.6854705810546875,-0.104095458984375,-0.0305023193359375
1700516900064604200,1.899604248046875,-1.270599365234375,-0.14239501953125,0.0406036376953125
1700516900074614300,1.9096142578125,-1.1002960205078125,0.0742950439453125,0.07391357421875
1700516900084625400,1.91962548828125,-0.8070068359375,-0.174041748046875,0.030364990234375
1700516900094636500,1.929636474609375,-0.9467315673828125,-0.2104034423828125,-0.01141357421875
1700516900104647400,1.9396474609375,-1.1403961181640625,-0.0914154052734375,0.077789306640625
1700516900114657300,1.9496572265625,-1.019561767578125,-0.013214111328125,0.058746337890625
1700516900124668400,1.95966845703125,-1.10235595703125,-0.1313018798828125,-0.005401611328125
1700516900134679300,1.96967919921875,-0.74566650390625,-0.1403961181640625,0.10980224609375
1700516900144690200,1.979690185546875,-0.85333251953125,-0.1087646484375,-0.075042724609375
1700516900154701600,1.98970166015625,-1.319610595703125,-0.0668792724609375,0.1235504150390625
1700516900164711400,1.99971142578125,-0.9542388916015625,0.0504608154296875,0.0217132568359375
1700516900174722600,2.00972265625,-0.797637939453125,-0.2634124755859375,0.0412750244140625
1700516900184733400,2.0197333984375,-1.030120849609375,-0.1148223876953125,-0.0240936279296875
1700516900194744300,2.029744384765625,-1.118408203125,-0.0576019287109375,0.1056976318359375
1700516900204755200,2.039755126953125,-1.041290283203125,-0.032623291015625,0.0023193359375
1700516900214765300,2.049765380859375,-1.015289306640625,-0.179290771484375,0.056304931640625
1700516900224776200,2.059776123046875,-0.6522216796875,-0.1140289306640625,0.03106689453125
1700516900234787600,2.06978759765625,-1.122802734375,-0.1152496337890625,-0.01983642578125
1700516900244798500,2.079798583984375,-1.2322540283203125,0.0272369384765625,0.11773681640625
1700516900254808300,2.089808349609375,-0.8371124267578125,-0.0957183837890625,0.0102996826171875
1700516900264819500,2.0998193359375,-0.8698272705078125,-0.24859619140625,0.0173187255859375
1700516900274830300,2.109830322265625,-1.1236572265625,-0.09442138671875,0.0377349853515625
1700516900284841200,2.11984130859375,-1.0532073974609375,-0.0089111328125,0.0895538330078125
1700516900294852400,2.129852294921875,-1.09625244140625,-0.1072235107421875,-0.015411376953125
1700516900304862200,2.1398623046875,-0.8046417236328125,-0.1866455078125,0.1074981689453125
1700516900314873300,2.149873291015625,-0.79248046875,-0.095855712890625,-0.0624847412109375
1700516900324884500,2.159884521484375,-1.285797119140625,-0.094024658203125,0.09857177734375
1700516900334895400,2.169895263671875,-1.031829833984375,0.053680419921875,0.0435333251953125
1700516900344906200,2.17990625,-0.7998046875,-0.2501068115234375,0.038604736328125
1700516900354916400,2.189916259765625,-0.97283935546875,-0.1368560791015625,-0.0271453857421875
1700516900364927200,2.19992724609375,-1.139984130859375,-0.0747222900390625,0.1080169677734375
1700516900374938400,2.2099384765625,-1.0391082763671875,-0.0146636962890625,0.024383544921875
1700516900384949500,2.219949462890625,-1.0420379638671875,-0.189453125,0.052337646484375
1700516900394959400,2.22995947265625,-0.6617431640625,-0.1187286376953125,0.0452880859375
1700516900404970500,2.239970458984375,-1.0605316162109375,-0.120941162109375,-0.0314483642578125
1700516900414981400,2.2499814453125,-1.260040283203125,0.0011444091796875,0.1225433349609375
1700516900424992300,2.2599921875,-0.88043212890625,-0.041778564453125,0.0067138671875
1700516900435003400,2.27000341796875,-0.8117218017578125,-0.27130126953125,0.0400848388671875
1700516900445013200,2.28001318359375,-1.1160430908203125,-0.0964508056640625,0.016571044921875
1700516900455024400,2.2900244140625,-1.0812225341796875,-0.0178680419921875,0.10540771484375
1700516900465035500,2.300035400390625,-1.0816802978515625,-0.066741943359375,-0.019287109375
1700516900475046400,2.31004638671875,-0.870880126953125,-0.203704833984375,0.1075286865234375
1700516900485057300,2.320057373046875,-0.73870849609375,-0.0789794921875,-0.038818359375
1700516900495067400,2.3300673828125,-1.2662353515625,-0.13519287109375,0.0730743408203125
1700516900505078300,2.340078369140625,-1.1009521484375,0.0754241943359375,0.052337646484375
1700516900515089200,2.350089111328125,-0.7927703857421875,-0.196624755859375,0.040496826171875
1700516900525100500,2.3601005859375,-0.901519775390625,-0.1824798583984375,-0.0130615234375
1700516900535111400,2.370111328125,-1.1956329345703125,-0.097900390625,0.0855560302734375
1700516900545121500,2.38012158203125,-1.01312255859375,-0.002777099609375,0.0475616455078125
1700516900555132400,2.39013232421875,-1.07012939453125,-0.1433563232421875,0.0016326904296875
1700516900565143300,2.400143310546875,-0.7318115234375,-0.1526336669921875,0.091583251953125
1700516900575154400,2.410154541015625,-0.9110565185546875,-0.09320068359375,-0.0601654052734375
1700516900585164300,2.420164306640625,-1.308074951171875,-0.1186676025390625,0.1217041015625
1700516900595175200,2.430175048828125,-0.968231201171875,0.0726470947265625,-0.0003662109375
1700516900605186600,2.4401865234375,-0.76043701171875,-0.2743682861328125,0.0609588623046875
1700516900615197400,2.450197509765625,-1.00860595703125,-0.1138763427734375,-0.0302734375
1700516900625208300,2.460208251953125,-1.189178466796875,-0.1060333251953125,0.1234283447265625
1700516900635218400,2.470218505859375,-0.9969482421875,0.00445556640625,-0.0095062255859375
1700516900645229300,2.480229248046875,-1.0422210693359375,-0.18853759765625,0.052642822265625
1700516900655240200,2.490240234375,-0.6594696044921875,-0.0968780517578125,0.0558624267578125
1700516900665251800,2.500251953125,-1.0609893798828125,-0.1386871337890625,-0.0404205322265625
1700516900675262700,2.5102626953125,-1.3008880615234375,-0.055389404296875,0.1269073486328125
1700516900685272600,2.5202724609375,-0.86334228515625,0.0337677001953125,-0.0063629150390625
1700516900695284000,2.530283935546875,-0.793975830078125,-0.29266357421875,0.0583343505859375
1700516900705294800,2.540294921875,-1.085418701171875,-0.0803375244140625,-0.0097198486328125
1700516900715305700,2.5503056640625,-1.149200439453125,-0.1074066162109375,0.1208953857421875
1700516900725316900,2.56031689453125,-0.989837646484375,-0.0115814208984375,-0.0221405029296875
1700516900735326700,2.57032666015625,-1.0155181884765625,-0.2019805908203125,0.0853729248046875
1700516900745337600,2.580337646484375,-0.6272430419921875,-0.0577239990234375,0.0182952880859375
1700516900755348700,2.5903486328125,-1.1806640625,-0.179351806640625,0.0044097900390625
1700516900765359900,2.60035986328125,-1.2271575927734375,0.0027008056640625,0.1020660400390625
1700516900775370800,2.610370849609375,-0.821380615234375,-0.0236968994140625,0.0061492919921875
1700516900785380900,2.620380859375,-0.817962646484375,-0.277008056640625,0.044342041015625
1700516900795391700,2.630391845703125,-1.1352386474609375,-0.0833282470703125,0.01141357421875
1700516900805403000,2.64040283203125,-1.110198974609375,-0.0877685546875,0.10711669921875
1700516900815413800,2.650413818359375,-1.0058746337890625,-0.04791259765625,-0.0221099853515625
1700516900825424600,2.660424560546875,-0.979766845703125,-0.1815948486328125,0.08917236328125
1700516900835434800,2.670434814453125,-0.6176605224609375,-0.069549560546875,0.001678466796875
1700516900845446000,2.68044580078125,-1.2691802978515625,-0.1790313720703125,0.0190582275390625
1700516900855456800,2.690456787109375,-1.1666107177734375,0.035430908203125,0.094329833984375
1700516900865468000,2.700468017578125,-0.7934722900390625,-0.0675048828125,0.0074615478515625
1700516900875477800,2.710477783203125,-0.8578643798828125,-0.26666259765625,0.0342864990234375
1700516900885488600,2.720488525390625,-1.17095947265625,-0.0835113525390625,0.0322723388671875
1700516900895499800,2.730499755859375,-1.065948486328125,-0.059967041015625,0.0840606689453125
1700516900905511000,2.740510986328125,-1.0284881591796875,-0.0849456787109375,-0.0146331787109375
1700516900915521800,2.750521728515625,-0.9245147705078125,-0.1710662841796875,0.095184326171875
1700516900925532000,2.760531982421875,-0.64776611328125,-0.076324462890625,-0.016845703125
1700516900935542800,2.770542724609375,-1.3325653076171875,-0.169952392578125,0.0478515625
1700516900945553700,2.7805537109375,-1.0959930419921875,0.068206787109375,0.069305419921875
1700516900955564800,2.790564697265625,-0.7838287353515625,-0.1316375732421875,0.0200042724609375
1700516900965575700,2.80057568359375,-0.8815765380859375,-0.234466552734375,0.0148773193359375
1700516900975585800,2.810585693359375,-1.213592529296875,-0.0916900634765625,0.06011962890625
1700516900985597000,2.820596923828125,-1.020721435546875,-0.0272064208984375,0.05999755859375
1700516900995607800,2.83060791015625,-1.05426025390625,-0.11761474609375,-0.0110015869140625
1700516901005618700,2.84061865234375,-0.8384552001953125,-0.15838623046875,0.104949951171875
1700516901015629800,2.8506298828125,-0.742584228515625,-0.0792388916015625,-0.0449676513671875
1700516901025639700,2.8606396484375,-1.3601531982421875,-0.1583099365234375,0.090240478515625
1700516901035650800,2.87065087890625,-1.0212554931640625,0.092071533203125,0.032989501953125
1700516901045661700,2.88066162109375,-0.7756195068359375,-0.197784423828125,0.042205810546875
1700516901055672800,2.8906728515625,-0.9190673828125,-0.1810150146484375,-0.01055908203125
1700516901065684000,2.90068408203125,-1.242919921875,-0.104278564453125,0.094635009765625
1700516901075693800,2.91069384765625,-0.9790496826171875,-0.00579833984375,0.0325164794921875
1700516901085704700,2.92070458984375,-1.068115234375,-0.15179443359375,0.0086517333984375
1700516901095715800,2.9307158203125,-0.75732421875,-0.1346282958984375,0.0950927734375
1700516901105726700,2.940726806640625,-0.8453826904296875,-0.0980682373046875,-0.0558319091796875
1700516901115737600,2.950737548828125,-1.379302978515625,-0.136260986328125,0.115814208984375
1700516901125747700,2.960747802734375,-0.948516845703125,0.09295654296875,0.005157470703125
1700516901135758800,2.9707587890625,-0.7629241943359375,-0.2516632080078125,0.059814453125
1700516901145769700,2.980769775390625,-0.9867095947265625,-0.1354827880859375,-0.0250701904296875
1700516901155780900,2.99078076171875,-1.2344512939453125,-0.1117095947265625,0.117523193359375
1700516901165791700,3.000791748046875,-0.95751953125,-0.0010986328125,0.0062408447265625
1700516901175801900,3.0108017578125,-1.0706634521484375,-0.171966552734375,0.03173828125
1700516901185812700,3.020812744140625,-0.6778106689453125,-0.107177734375,0.0795135498046875
1700516901195823600,3.03082373046875,-0.9597320556640625,-0.1255645751953125,-0.055023193359375
1700516901205834800,3.040834716796875,-1.368682861328125,-0.0976715087890625,0.1304168701171875
1700516901215846000,3.050845947265625,-0.8610076904296875,0.0754241943359375,-0.008453369140625
1700516901225855700,3.060855712890625,-0.7885589599609375,-0.2863006591796875,0.0597686767578125
1700516901235867000,3.070866943359375,-1.0612030029296875,-0.105133056640625,-0.0204315185546875
1700516901245877800,3.080877685546875,-1.1880645751953125,-0.104736328125,0.1210479736328125
1700516901255888600,3.090888671875,-0.9625091552734375,-0.0179443359375,-0.0089111328125
1700516901265899800,3.100899658203125,-1.0548248291015625,-0.1860809326171875,0.056915283203125
1700516901275910000,3.110909912109375,-0.6192474365234375,-0.08721923828125,0.0475311279296875
1700516901285920800,3.120920654296875,-1.1205291748046875,-0.149322509765625,-0.03094482421875
1700516901295932000,3.130931884765625,-1.290985107421875,-0.0359344482421875,0.13031005859375
1700516901305942800,3.14094287109375,-0.806488037109375,0.00958251953125,-0.0104522705078125
1700516901315953700,3.15095361328125,-0.817138671875,-0.291900634765625,0.0540618896484375
1700516901325963800,3.1609638671875,-1.1392669677734375,-0.087493896484375,0.0003509521484375
1700516901335974700,3.170974609375,-1.1198272705078125,-0.0677337646484375,0.115203857421875
1700516901345985800,3.18098583984375,-0.9889373779296875,-0.052398681640625,-0.02392578125
1700516901355997000,3.190996826171875,-0.9758453369140625,-0.1943511962890625,0.09307861328125
1700516901366007800,3.2010078125,-0.628326416015625,-0.0666961669921875,-0.001922607421875
1700516901376018000,3.211017822265625,-1.278961181640625,-0.1617279052734375,0.02960205078125
1700516901386028800,3.22102880859375,-1.152618408203125,0.05084228515625,0.0870361328125
1700516901396039700,3.231039794921875,-0.779052734375,-0.108673095703125,0.0134735107421875
1700516901406050600,3.241050537109375,-0.8625946044921875,-0.2419891357421875,0.0224609375
1700516901416062000,3.25106201171875,-1.211578369140625,-0.0934600830078125,0.047454833984375
1700516901426071800,3.26107177734375,-1.044677734375,-0.0149993896484375,0.079925537109375
1700516901436083000,3.2710830078125,-1.0372467041015625,-0.1100921630859375,-0.023284912109375
1700516901446093800,3.28109375,-0.8327484130859375,-0.173370361328125,0.11199951171875
1700516901456104700,3.291104736328125,-0.7512359619140625,-0.0803985595703125,-0.0545654296875
1700516901466115800,3.30111572265625,-1.37371826171875,-0.1404571533203125,0.099700927734375
1700516901476125700,3.311125732421875,-1.0086822509765625,0.0850982666015625,0.027557373046875
1700516901486136600,3.321136474609375,-0.7563323974609375,-0.2242889404296875,0.0424346923828125
1700516901496148000,3.33114794921875,-0.9568634033203125,-0.168060302734375,-0.0143585205078125
1700516901506158800,3.341158935546875,-1.2354888916015625,-0.101348876953125,0.0987396240234375
1700516901516169700,3.351169677734375,-0.977447509765625,0.0035552978515625,0.029754638671875
1700516901526179800,3.361179931640625,-1.0617218017578125,-0.1741790771484375,0.0130157470703125
1700516901536190700,3.371190673828125,-0.680419921875,-0.1219635009765625,0.084625244140625
1700516901546201600,3.38120166015625,-0.985931396484375,-0.1157073974609375,-0.0537567138671875
1700516901556213000,3.391212890625,-1.3415069580078125,-0.0663909912109375,0.13250732421875
1700516901566224000,3.401223876953125,-0.8799591064453125,0.0359954833984375,-0.007415771484375
1700516901576234800,3.41123486328125,-0.762847900390625,-0.2801055908203125,0.0543975830078125
1700516901586244900,3.421244873046875,-1.087493896484375,-0.105926513671875,-0.011260986328125
1700516901596255700,3.431255859375,-1.17535400390625,-0.073577880859375,0.121002197265625
1700516901606266600,3.4412666015625,-0.980743408203125,-0.02227783203125,-0.017486572265625
1700516901616277800,3.45127783203125,-0.9963836669921875,-0.2094879150390625,0.0748138427734375
1700516901626289000,3.461288818359375,-0.6250762939453125,-0.078948974609375,0.01629638671875
1700516901636299000,3.471299072265625,-1.2279052734375,-0.1500701904296875,0.00775146484375
1700516901646310000,3.481309814453125,-1.1949920654296875,0.025054931640625,0.0973358154296875
1700516901656320800,3.49132080078125,-0.8035430908203125,-0.0846710205078125,0.00494384765625
1700516901666331400,3.501331298828125,-0.818450927734375,-0.2566680908203125,0.0290679931640625
1700516901676342300,3.51134228515625,-1.200775146484375,-0.0939178466796875,0.0359954833984375
1700516901686352100,3.52135205078125,-1.0721282958984375,-0.0264434814453125,0.0916290283203125
1700516901696363300,3.53136328125,-1.0319366455078125,-0.0853729248046875,-0.02734375
1700516901706374100,3.5413740234375,-0.857666015625,-0.192962646484375,0.1091461181640625
1700516901716385000,3.551385009765625,-0.734100341796875,-0.066680908203125,-0.047760009765625
1700516901726396400,3.561396484375,-1.35430908203125,-0.1546173095703125,0.09381103515625
1700516901736406300,3.57140625,-1.0451202392578125,0.090484619140625,0.028411865234375
1700516901746417400,3.58141748046875,-0.7657470703125,-0.2139434814453125,0.0435028076171875
1700516901756428300,3.59142822265625,-0.9005584716796875,-0.172149658203125,-0.01580810546875
1700516901766439200,3.601439208984375,-1.2382965087890625,-0.107696533203125,0.0886383056640625
1700516901776450000,3.611449951171875,-1.003509521484375,0.0034942626953125,0.041748046875
1700516901786460200,3.621460205078125,-1.0482330322265625,-0.148162841796875,0.00238037109375
1700516901796471300,3.63147119140625,-0.73455810546875,-0.141143798828125,0.090667724609375
1700516901806482400,3.641482421875,-0.8990631103515625,-0.0947418212890625,-0.0611419677734375
1700516901816493300,3.651493408203125,-1.345306396484375,-0.119873046875,0.1269073486328125
1700516901826504200,3.661504150390625,-0.9443206787109375,0.088958740234375,-0.013458251953125
1700516901836514300,3.671514404296875,-0.770599365234375,-0.282989501953125,0.0794830322265625
1700516901846525200,3.681525146484375,-0.990081787109375,-0.1121826171875,-0.040130615234375
1700516901856536000,3.6915361328125,-1.20477294921875,-0.113189697265625,0.12896728515625
1700516901866547500,3.70154736328125,-1.0084991455078125,0.004608154296875,0.003265380859375
1700516901876558300,3.711558349609375,-1.03338623046875,-0.1809844970703125,0.045562744140625
1700516901886568200,3.721568115234375,-0.675384521484375,-0.094268798828125,0.0678558349609375
1700516901896579300,3.731579345703125,-1.025482177734375,-0.1422119140625,-0.0356292724609375
1700516901906590200,3.741590087890625,-1.3301544189453125,-0.0468902587890625,0.1278839111328125
1700516901916601000,3.75160107421875,-0.871551513671875,0.0540924072265625,0.0048065185546875
1700516901926612200,3.7616123046875,-0.8026885986328125,-0.316802978515625,0.06591796875
1700516901936622000,3.7716220703125,-1.0240478515625,-0.074462890625,-0.0274810791015625
1700516901946633200,3.78163330078125,-1.1774139404296875,-0.0921173095703125,0.1276702880859375
1700516901956644400,3.791644287109375,-1.0346527099609375,-0.011474609375,-0.0090179443359375
1700516901966655200,3.8016552734375,-0.98614501953125,-0.1785888671875,0.0664215087890625
1700516901976666000,3.811666015625,-0.638916015625,-0.0911102294921875,0.0285491943359375
1700516901986676200,3.82167626953125,-1.13995361328125,-0.1603546142578125,-0.0092926025390625
1700516901996687000,3.83168701171875,-1.2606048583984375,0.007293701171875,0.1104278564453125
1700516902006698200,3.8416982421875,-0.8211517333984375,-0.0149993896484375,-0.001617431640625
1700516902016709400,3.85170947265625,-0.84918212890625,-0.3018646240234375,0.0488128662109375
1700516902026720300,3.86172021484375,-1.084686279296875,-0.0782318115234375,-0.000823974609375
1700516902036731100,3.871731201171875,-1.115936279296875,-0.080230712890625,0.1104278564453125
1700516902046741200,3.8817412109375,-1.0480804443359375,-0.0407867431640625,-0.0210418701171875
1700516902056752000,3.891752197265625,-0.956207275390625,-0.1773681640625,0.090362548828125
1700516902066763300,3.90176318359375,-0.6150970458984375,-0.1045074462890625,-0.01055908203125
1700516902076774400,3.9117744140625,-1.2403564453125,-0.1642608642578125,0.0309600830078125
1700516902086785300,3.921785400390625,-1.1846466064453125,0.044097900390625,0.08392333984375
1700516902096795400,3.93179541015625,-0.799285888671875,-0.0862274169921875,0.019989013671875
1700516902106806300,3.94180615234375,-0.87103271484375,-0.2607269287109375,0.0184326171875
1700516902116817200,3.951817138671875,-1.15576171875,-0.0842132568359375,0.0338134765625
1700516902126828300,3.961828369140625,-1.0638885498046875,-0.0555572509765625,0.0841217041015625
1700516902136839200,3.971839111328125,-1.042205810546875,-0.080413818359375,-0.0211639404296875
1700516902146849300,3.981849365234375,-0.8867340087890625,-0.173583984375,0.0991363525390625
1700516902156860400,3.9918603515625,-0.6884002685546875,-0.0807647705078125,-0.0373687744140625
1700516902166871300,4.001871337890625,-1.329437255859375,-0.16436767578125,0.0624847412109375
1700516902176882200,4.011882080078125,-1.0817108154296875,0.087249755859375,0.0534210205078125
1700516902186893300,4.021893310546875,-0.796600341796875,-0.15301513671875,0.0344696044921875
1700516902196903200,4.031903076171875,-0.8895111083984375,-0.215057373046875,-0.011627197265625
1700516902206914300,4.041914306640625,-1.2090301513671875,-0.0866546630859375,0.0680694580078125
1700516902216925200,4.05192529296875,-1.0179901123046875,-0.027923583984375,0.0572509765625
1700516902226936300,4.061936279296875,-1.0611572265625,-0.1094970703125,-0.0132598876953125
1700516902236947200,4.071947265625,-0.8182373046875,-0.155731201171875,0.0972442626953125
1700516902246957300,4.081957275390625,-0.7640838623046875,-0.08355712890625,-0.061279296875
1700516902256968200,4.09196826171875,-1.3522186279296875,-0.1541290283203125,0.1002349853515625
1700516902266979300,4.101979248046875,-1.0130462646484375,0.09906005859375,0.019073486328125
1700516902276990200,4.111990234375,-0.7959136962890625,-0.2097625732421875,0.0440826416015625
1700516902287001000,4.1220009765625,-0.9275360107421875,-0.1924896240234375,-0.02606201171875
1700516902297011200,4.13201123046875,-1.1973419189453125,-0.0958099365234375,0.0957794189453125
1700516902307022300,4.142022216796875,-0.9972381591796875,-0.0016326904296875,0.03790283203125
1700516902317033200,4.152033203125,-1.104583740234375,-0.1367950439453125,0.00933837890625
1700516902327044400,4.16204443359375,-0.763641357421875,-0.1466827392578125,0.09600830078125
1700516902337055200,4.17205517578125,-0.8099365234375,-0.1167449951171875,-0.0584259033203125
1700516902347065000,4.182065185546875,-1.336669921875,-0.125335693359375,0.1230010986328125
1700516902357076200,4.192076171875,-0.996826171875,0.1096649169921875,0.00592041015625
1700516902367087400,4.20208740234375,-0.8228302001953125,-0.2564849853515625,0.05694580078125
1700516902377098200,4.21209814453125,-0.9687652587890625,-0.1652069091796875,-0.0134429931640625
1700516902387109400,4.222109375,-1.1210174560546875,-0.0961761474609375,0.1074066162109375
1700516902397119200,4.232119140625,-1.0193023681640625,-0.0057525634765625,0.0106353759765625
1700516902407130400,4.24213037109375,-1.1430206298828125,-0.13623046875,0.0390472412109375
1700516902417141200,4.252141357421875,-0.699066162109375,-0.124542236328125,0.0786895751953125
1700516902427152100,4.262152099609375,-0.8170623779296875,-0.1439361572265625,-0.07452392578125
1700516902437163300,4.272163330078125,-1.3652801513671875,-0.0799560546875,0.140899658203125
1700516902447173400,4.28217333984375,-0.9628448486328125,0.1023101806640625,-0.0003814697265625
1700516902457184300,4.292184326171875,-0.8490142822265625,-0.2925567626953125,0.046051025390625
1700516902467195400,4.3021953125,-0.9900054931640625,-0.137451171875,-0.0167388916015625
1700516902477206300,4.312206298828125,-1.070465087890625,-0.0754852294921875,0.1136474609375
1700516902487217200,4.322217041015625,-1.064208984375,-0.0135345458984375,-0.0014190673828125
1700516902497228000,4.33222802734375,-1.1457672119140625,-0.1556396484375,0.0569305419921875
1700516902507238100,4.342238037109375,-0.595550537109375,-0.126739501953125,0.0616607666015625
1700516902517249300,4.352249267578125,-0.9239044189453125,-0.14593505859375,-0.0638580322265625
1700516902527260400,4.362260498046875,-1.338043212890625,-0.0442657470703125,0.145599365234375
1700516902537271300,4.372271240234375,-0.93524169921875,0.0447235107421875,0.025787353515625
1700516902547282200,4.3822822265625,-0.836456298828125,-0.30755615234375,0.0194549560546875
1700516902557292300,4.392292236328125,-1.042999267578125,-0.1150360107421875,0.0073699951171875
1700516902567303200,4.40230322265625,-1.049530029296875,-0.0588531494140625,0.1183319091796875
1700516902577314000,4.41231396484375,-1.1093597412109375,-0.0313568115234375,-0.0179595947265625
1700516902587325400,4.422325439453125,-1.1014556884765625,-0.189544677734375,0.095916748046875
1700516902597335300,4.432335205078125,-0.5213623046875,-0.1173095703125,0.0061187744140625
1700516902607346200,4.44234619140625,-1.084197998046875,-0.125701904296875,-0.045654296875
1700516902617357300,4.452357421875,-1.2989349365234375,0.0124053955078125,0.143951416015625
1700516902627368200,4.4623681640625,-0.8677978515625,-0.0675811767578125,0.013031005859375
1700516902637379000,4.472379150390625,-0.828521728515625,-0.281951904296875,-0.0056304931640625
1700516902647390200,4.48239013671875,-1.1056060791015625,-0.08074951171875,0.0373382568359375
1700516902657400000,4.492400146484375,-1.033966064453125,-0.0326080322265625,0.0725250244140625
1700516902667411700,4.50241162109375,-1.16546630859375,-0.0695343017578125,-0.016357421875
1700516902677422800,4.5124228515625,-0.8699951171875,-0.200714111328125,0.11474609375
1700516902687434000,4.52243408203125,-0.618377685546875,-0.070556640625,-0.0751953125
1700516902697443800,4.53244384765625,-1.2848358154296875,-0.1201019287109375,0.05181884765625
1700516902707455000,4.542455078125,-1.13299560546875,0.06011962890625,0.085296630859375
1700516902717465900,4.5524658203125,-0.795928955078125,-0.172119140625,0.018798828125
1700516902727476700,4.562476806640625,-0.9503173828125,-0.1865997314453125,-0.025482177734375
1700516902737488000,4.57248779296875,-1.145965576171875,-0.09912109375,0.1018218994140625
1700516902747499000,4.5824990234375,-1.0156097412109375,0.0187835693359375,0.0398712158203125
1700516902757508900,4.5925087890625,-1.156646728515625,-0.1465606689453125,0.0149993896484375
1700516902767520000,4.60252001953125,-0.67877197265625,-0.148590087890625,0.102783203125
1700516902777531000,4.61253076171875,-0.907867431640625,-0.0921173095703125,-0.0789337158203125
1700516902787541800,4.622541748046875,-1.295318603515625,-0.058349609375,0.13311767578125
1700516902797551900,4.6325517578125,-0.9853973388671875,0.0201263427734375,0.0288848876953125
1700516902807562800,4.642562744140625,-0.7630462646484375,-0.2740020751953125,0.0279541015625
1700516902817574000,4.652573974609375,-1.0638580322265625,-0.1255950927734375,-0.008087158203125
1700516902827585000,4.6625849609375,-1.0973663330078125,-0.084808349609375,0.099090576171875
1700516902837596000,4.672595947265625,-1.0413360595703125,-0.027557373046875,-0.001861572265625
1700516902847606000,4.68260595703125,-1.033172607421875,-0.2247161865234375,0.0826416015625
1700516902857617000,4.692616943359375,-0.607635498046875,-0.10491943359375,0.003875732421875
1700516902867627800,4.702627685546875,-1.1466827392578125,-0.1397705078125,-0.0050506591796875
1700516902877639000,4.712638916015625,-1.20953369140625,0.0063323974609375,0.1152496337890625
1700516902887649800,4.72264990234375,-0.85015869140625,-0.110931396484375,0.0286865234375
1700516902897660000,4.732659912109375,-0.81024169921875,-0.2396392822265625,-0.0041351318359375
1700516902907671000,4.742671142578125,-1.188385009765625,-0.1116180419921875,0.062774658203125
1700516902917682000,4.752681884765625,-1.0302734375,-0.02056884765625,0.0726165771484375
1700516902927692800,4.76269287109375,-1.106597900390625,-0.0806732177734375,-0.0149078369140625
1700516902937704000,4.772703857421875,-0.8281402587890625,-0.19647216796875,0.1168975830078125
1700516902947713800,4.7827138671875,-0.7679290771484375,-0.073699951171875,-0.0700836181640625
1700516902957725000,4.792724853515625,-1.3059234619140625,-0.1287078857421875,0.0968017578125
1700516902967735800,4.80273583984375,-1.0370941162109375,0.07952880859375,0.0263214111328125
1700516902977747000,4.812746826171875,-0.76275634765625,-0.2217864990234375,0.045379638671875
1700516902987757800,4.8227578125,-0.976226806640625,-0.162994384765625,-0.0277557373046875
1700516902997768000,4.832767822265625,-1.2185516357421875,-0.082244873046875,0.1126708984375
1700516903007778800,4.84277880859375,-0.9716796875,-0.0005035400390625,0.01922607421875
1700516903017790000,4.8527900390625,-1.0948638916015625,-0.1627044677734375,0.0320281982421875
1700516903027800800,4.86280078125,-0.65069580078125,-0.1281280517578125,0.069580078125
1700516903037811700,4.872811767578125,-1.023956298828125,-0.1112518310546875,-0.0469512939453125
1700516903047821800,4.88282177734375,-1.3137359619140625,-0.0666351318359375,0.1336517333984375
1700516903057833000,4.8928330078125,-0.895721435546875,0.0265045166015625,-0.005767822265625
1700516903067843800,4.90284375,-0.720245361328125,-0.2915496826171875,0.0478363037109375
1700516903077855000,4.91285498046875,-1.150665283203125,-0.09716796875,-0.005340576171875
1700516903087865900,4.922865966796875,-1.15570068359375,-0.067962646484375,0.1206817626953125
1700516903097875700,4.932875732421875,-0.9783782958984375,-0.0287628173828125,-0.0165557861328125
1700516903107886800,4.942886962890625,-0.9776611328125,-0.2213897705078125,0.0836029052734375
1700516903117898000,4.95289794921875,-0.6354827880859375,-0.081329345703125,0.00238037109375
1700516903127908900,4.962908935546875,-1.23638916015625,-0.1572113037109375,0.029754638671875
1700516903137920000,4.972919921875,-1.1866302490234375,0.0239715576171875,0.0882110595703125
1700516903147929900,4.982929931640625,-0.7941436767578125,-0.105804443359375,0.0237884521484375
1700516903157941000,4.99294091796875,-0.770538330078125,-0.2508392333984375,0.011627197265625
1700516903167952000,5.002951904296875,-1.2798919677734375,-0.09716796875,0.062286376953125
1700516903177962800,5.012962646484375,-1.04681396484375,-0.02044677734375,0.08135986328125
1700516903187974000,5.022973876953125,-1.0274658203125,-0.0839385986328125,-0.013214111328125
1700516903197984000,5.03298388671875,-0.856842041015625,-0.2035980224609375,0.1075439453125
1700516903207995000,5.042994873046875,-0.75115966796875,-0.0675201416015625,-0.0466461181640625
1700516903218006000,5.053006103515625,-1.343841552734375,-0.1602020263671875,0.0919189453125
1700516903228017000,5.063016845703125,-1.0491180419921875,0.079559326171875,0.02264404296875
1700516903238027800,5.07302783203125,-0.7382659912109375,-0.2060699462890625,0.0457611083984375
1700516903248038000,5.083037841796875,-0.8938446044921875,-0.1768951416015625,-0.0208587646484375
1700516903258048800,5.093048828125,-1.300079345703125,-0.1031494140625,0.101776123046875
1700516903268060000,5.103059814453125,-0.96136474609375,-0.00067138671875,0.0308380126953125
1700516903278071000,5.113071044921875,-1.0561981201171875,-0.142791748046875,0.0100860595703125
1700516903288081000,5.123080810546875,-0.7377777099609375,-0.15240478515625,0.091583251953125
1700516903298091800,5.133091796875,-0.8967742919921875,-0.0924835205078125,-0.047271728515625
1700516903308103000,5.14310302734375,-1.3503875732421875,-0.133544921875,0.1197509765625
1700516903318113800,5.15311376953125,-0.952850341796875,0.08465576171875,0.0029296875
1700516903328124700,5.163124755859375,-0.72125244140625,-0.267822265625,0.057708740234375
1700516903338134800,5.173134765625,-1.018890380859375,-0.1336822509765625,-0.0228271484375
1700516903348146000,5.18314599609375,-1.25152587890625,-0.10211181640625,0.113922119140625
1700516903358156800,5.19315673828125,-0.9426422119140625,0.0030670166015625,0.0069580078125
1700516903368168000,5.20316796875,-1.0754547119140625,-0.1729888916015625,0.0348358154296875
1700516903378178800,5.2131787109375,-0.6634063720703125,-0.112640380859375,0.0589141845703125
1700516903388189000,5.22318896484375,-1.0459747314453125,-0.140533447265625,-0.025054931640625
1700516903398199800,5.23319970703125,-1.304046630859375,-0.08203125,0.1228790283203125
1700516903408210700,5.243210693359375,-0.87628173828125,0.059112548828125,-0.0085296630859375
1700516903418221800,5.253221923828125,-0.7471160888671875,-0.292724609375,0.0590972900390625
1700516903428233000,5.26323291015625,-1.120635986328125,-0.10284423828125,-0.015045166015625
1700516903438242800,5.273242919921875,-1.1705169677734375,-0.101593017578125,0.1237640380859375
1700516903448254000,5.28325390625,-0.9326324462890625,-0.0185394287109375,-0.008148193359375
1700516903458264800,5.293264892578125,-1.044036865234375,-0.201690673828125,0.0693817138671875
1700516903468275700,5.303275634765625,-0.640472412109375,-0.072723388671875,0.0244903564453125
1700516903478287000,5.313287109375,-1.172210693359375,-0.1745452880859375,0.0085906982421875
1700516903488297000,5.323296875,-1.2118682861328125,-0.03582763671875,0.106170654296875
1700516903498307800,5.333307861328125,-0.843658447265625,-0.002960205078125,0.0059051513671875
1700516903508319000,5.343319091796875,-0.7661895751953125,-0.28460693359375,0.0419158935546875
1700516903518329900,5.353329833984375,-1.2050018310546875,-0.094482421875,0.0097808837890625
1700516903528340000,5.363340087890625,-1.0996551513671875,-0.069000244140625,0.1044921875
1700516903538350800,5.373350830078125,-0.953826904296875,-0.036346435546875,-0.02325439453125
1700516903548361700,5.38336181640625,-1.0015106201171875,-0.1881256103515625,0.087921142578125
1700516903558372900,5.393372802734375,-0.669525146484375,-0.060546875,0.0070953369140625
1700516903568384000,5.403384033203125,-1.2424163818359375,-0.1843719482421875,0.0365447998046875
1700516903578393900,5.413393798828125,-1.14569091796875,0.02105712890625,0.0821075439453125
1700516903588405000,5.423405029296875,-0.835601806640625,-0.02801513671875,0.01641845703125
1700516903598416000,5.433415771484375,-0.8267669677734375,-0.3078460693359375,0.05841064453125
1700516903608426800,5.4434267578125,-1.1981353759765625,-0.0894012451171875,0.0150299072265625
1700516903618438000,5.45343798828125,-1.042266845703125,-0.0771942138671875,0.103759765625
1700516903628447700,5.46344775390625,-1.0108489990234375,-0.06744384765625,-0.0188446044921875
1700516903638459000,5.473458984375,-0.97308349609375,-0.184326171875,0.088836669921875
1700516903648470000,5.483469970703125,-0.64404296875,-0.1039581298828125,0.001708984375
1700516903658481000,5.49348095703125,-1.187774658203125,-0.209136962890625,0.027587890625
1700516903668491300,5.5034912109375,-1.152923583984375,-0.002838134765625,0.0858154296875
1700516903678501400,5.51350146484375,-0.837493896484375,-0.02337646484375,-0.02349853515625
1700516903688512300,5.52351220703125,-0.8409423828125,-0.30548095703125,0.0320587158203125
1700516903698523600,5.533523681640625,-1.115631103515625,-0.0970916748046875,0.058624267578125
1700516903708534500,5.543534423828125,-1.0126800537109375,-0.0459747314453125,0.1056976318359375
1700516903718544400,5.55354443359375,-1.1096343994140625,-0.164764404296875,-0.01397705078125
1700516903728555500,5.563555419921875,-1.1165771484375,-0.1728973388671875,0.1882171630859375
1700516903738566400,5.57356640625,-0.5147247314453125,-0.164276123046875,-0.0333709716796875
1700516903748577300,5.583577392578125,-1.3214111328125,-0.1458892822265625,-0.054229736328125
1700516903758588400,5.59358837890625,-1.1078948974609375,-0.0254364013671875,0.151885986328125
1700516903768598300,5.603598388671875,-0.7750396728515625,-0.043914794921875,-0.0381011962890625
1700516903778609400,5.613609375,-0.8999786376953125,-0.24615478515625,0.0600128173828125
1700516903788620500,5.62362060546875,-1.125762939453125,-0.1165771484375,0.0377960205078125
1700516903798631400,5.63363134765625,-1.044403076171875,-0.08624267578125,0.077178955078125
1700516903808642300,5.643642333984375,-0.9525909423828125,-0.1246185302734375,0.0287628173828125
1700516903818652400,5.65365234375,-1.2380218505859375,-0.106536865234375,0.0749359130859375
1700516903828663300,5.663663330078125,-0.5452728271484375,-0.0045318603515625,0.1585845947265625
1700516903838674400,5.67367431640625,-0.9356689453125,-0.2779693603515625,-0.1916656494140625
1700516903848685600,5.683685546875,-1.6267242431640625,0.037506103515625,0.2055816650390625
1700516903858695400,5.6936953125,-0.6542205810546875,0.0562896728515625,-0.0055999755859375
1700516903868706600,5.70370654296875,-0.7476348876953125,-0.3278045654296875,0.0090484619140625
1700516903878717400,5.713717529296875,-1.1650390625,-0.05902099609375,0.049896240234375
1700516903888728300,5.723728271484375,-1.1860504150390625,-0.0525360107421875,0.0663909912109375
1700516903898739500,5.733739501953125,-0.958343505859375,-0.1976470947265625,0.042083740234375
1700516903908749300,5.743749267578125,-1.3016815185546875,0.1571807861328125,0.006866455078125
1700516903918760200,5.75376025390625,-0.2621307373046875,-0.265838623046875,0.1842498779296875
1700516903928771600,5.763771484375,-1.049346923828125,-0.394012451171875,-0.256500244140625
1700516903938782500,5.773782470703125,-1.9788360595703125,0.471923828125,0.4114532470703125
1700516903948793300,5.78379345703125,-0.3459930419921875,-0.6053314208984375,0.01324462890625
1700516903958803500,5.793803466796875,-0.7548675537109375,-0.404754638671875,-0.1845245361328125
1700516903968814300,5.803814453125,-1.4002227783203125,-0.0825042724609375,0.2257843017578125
1700516903978825200,5.8138251953125,-1.0335540771484375,0.183990478515625,-0.0402374267578125
1700516903988836600,5.823836669921875,-0.4971923828125,-0.1453857421875,0.1669769287109375
1700516903998846500,5.833846435546875,-0.73565673828125,-0.796783447265625,-0.25933837890625
1700516904008857600,5.843857666015625,-1.8106689453125,0.4733428955078125,0.1680755615234375
1700516904018868500,5.853868408203125,-0.680419921875,-0.3983612060546875,0.2452545166015625
1700516904028879400,5.86387939453125,-0.8297119140625,-0.56512451171875,-0.39031982421875
1700516904038890200,5.87389013671875,-1.6328125,0.013275146484375,0.2081146240234375
1700516904048900400,5.883900390625,-0.440155029296875,-0.0233612060546875,0.2113800048828125
1700516904058911200,5.8939111328125,-0.5138397216796875,-0.6186065673828125,-0.28887939453125
1700516904068922600,5.903922607421875,-2.0381011962890625,-0.0308685302734375,0.1807403564453125
1700516904078933500,5.91393359375,-0.5837249755859375,-0.351226806640625,0.31243896484375
1700516904088944400,5.9239443359375,-0.5807647705078125,-0.4521484375,-0.336669921875
1700516904098954500,5.93395458984375,-1.885650634765625,-0.210693359375,0.266357421875
1700516904108965400,5.94396533203125,-0.4092254638671875,-0.5415496826171875,0.2093658447265625
1700516904118976300,5.953976318359375,-0.5843505859375,-0.1141510009765625,-0.2891693115234375
1700516904128987400,5.9639873046875,-1.7740020751953125,-0.655029296875,0.395416259765625
1700516904138997200,5.973997314453125,-0.503662109375,-0.6848907470703125,-0.0740814208984375
1700516904149008600,5.984008544921875,-0.8678741455078125,0.1445465087890625,-0.0352325439453125
1700516904159019500,5.99401953125,-1.1817169189453125,-0.556915283203125,0.221923828125
1700516904169030400,6.004030517578125,-0.5762176513671875,-0.6849517822265625,-0.0998687744140625
1700516904179041300,6.014041259765625,-1.2362518310546875,-0.2373504638671875,0.0549163818359375
1700516904189051400,6.024051513671875,-1.330963134765625,-0.904937744140625,0.1609954833984375
1700516904199062300,6.034062255859375,-0.56884765625,-0.0605010986328125,-0.1626739501953125
1700516904209073400,6.044073486328125,-0.9731292724609375,-0.268096923828125,0.1674957275390625
1700516904219084500,6.05408447265625,-0.885711669921875,-0.631500244140625,-0.101593017578125
1700516904229095400,6.064095458984375,-1.085418701171875,-0.0956878662109375,-0.0272064208984375
1700516904239105500,6.07410546875,-1.2734527587890625,-0.833831787109375,0.209197998046875
1700516904249116400,6.084116455078125,-0.7868804931640625,-0.1591033935546875,-0.1746063232421875
1700516904259127300,6.094127197265625,-0.911773681640625,-0.4292144775390625,0.2317657470703125
1700516904269138400,6.104138427734375,-0.814056396484375,-0.66107177734375,-0.122344970703125
1700516904279148300,6.114148193359375,-1.3030548095703125,-0.510894775390625,0.12860107421875
1700516904289159400,6.124159423828125,-1.0366973876953125,-0.6970062255859375,0.15216064453125
1700516904299170600,6.134170654296875,-0.531646728515625,-0.0947418212890625,-0.1182708740234375
1700516904309181400,6.144181396484375,-0.8948516845703125,-0.3973541259765625,0.179443359375
1700516904319192300,6.1541923828125,-1.0462799072265625,-0.6503143310546875,-0.0146636962890625
1700516904329202400,6.164202392578125,-0.7690582275390625,-0.5391082763671875,0.0087738037109375
1700516904339213300,6.17421337890625,-1.6690216064453125,-0.664031982421875,0.0723724365234375
1700516904349224400,6.184224365234375,-0.42950439453125,-0.224761962890625,-0.0142059326171875
1700516904359235600,6.194235595703125,-1.192474365234375,-0.6413726806640625,0.1024322509765625
1700516904369245400,6.204245361328125,-0.9518280029296875,-0.853973388671875,-0.0066375732421875
1700516904379256600,6.214256591796875,-0.76568603515625,-0.66522216796875,0.0403594970703125
1700516904389267500,6.224267333984375,-1.39556884765625,-0.6990966796875,-0.0215911865234375
1700516904399278300,6.2342783203125,-0.578125,-0.5183258056640625,0.0880126953125
1700516904409289500,6.24428955078125,-1.044677734375,-0.8127899169921875,-0.0194244384765625
1700516904419299300,6.25429931640625,-0.79962158203125,-0.712921142578125,0.07635498046875
1700516904429310200,6.264310302734375,-1.0083770751953125,-0.670501708984375,0.1472320556640625
1700516904439321600,6.274321533203125,-0.45306396484375,0.003448486328125,-0.027313232421875
1700516904449332500,6.28433251953125,-0.51361083984375,-0.3145751953125,0.1673126220703125
1700516904459343400,6.29434326171875,-1.44476318359375,-0.4483642578125,-0.0975189208984375
1700516904469353500,6.304353515625,-0.888214111328125,-0.7248992919921875,0.030487060546875
1700516904479364400,6.3143642578125,-1.687286376953125,-0.531158447265625,-0.050201416015625
1700516904489375200,6.324375244140625,-0.7773895263671875,-0.4646453857421875,0.0521240234375
1700516904499386400,6.334386474609375,-0.8888397216796875,-0.8559417724609375,0.0482940673828125
1700516904509396200,6.344396240234375,-0.7860260009765625,-0.9001312255859375,-0.006866455078125
1700516904519407600,6.35440771484375,-0.77490234375,-0.644622802734375,0.1489105224609375
1700516904529418500,6.36441845703125,-0.8922119140625,-0.458465576171875,-0.088653564453125
1700516904539429400,6.374429443359375,-0.8271942138671875,-0.66400146484375,0.128814697265625
1700516904549440300,6.384440185546875,-1.0855865478515625,-0.340057373046875,-0.0794830322265625
1700516904559450400,6.394450439453125,-0.3964385986328125,-0.528228759765625,0.058563232421875
1700516904569461200,6.404461181640625,-1.3423919677734375,-0.6755523681640625,0.077880859375
1700516904579472400,6.414472412109375,-0.8794708251953125,-0.4156036376953125,-0.011199951171875
1700516904589483500,6.4244833984375,-0.9590606689453125,-0.7658233642578125,0.0341033935546875
1700516904599493400,6.434493408203125,-1.360809326171875,-0.5724029541015625,-0.0091400146484375
1700516904609504500,6.44450439453125,-0.414093017578125,-0.5955657958984375,0.1519622802734375
1700516904619515400,6.454515380859375,-1.2947235107421875,-0.4790191650390625,-0.118743896484375
1700516904629526300,6.4645263671875,-0.6707000732421875,-0.74786376953125,0.074493408203125
1700516904639537400,6.474537353515625,-1.2257232666015625,-0.4948883056640625,0.0128631591796875
1700516904649547300,6.48454736328125,-0.8449554443359375,-0.7689208984375,0.0829010009765625
1700516904659558400,6.494558349609375,-0.85113525390625,-0.7033843994140625,0.0660858154296875
1700516904669572600,6.504572509765625,-0.5386505126953125,-0.2589874267578125,0.0255889892578125
1700516904679583500,6.51458349609375,-0.7636260986328125,-0.5569610595703125,0.0988922119140625
1700516904689593600,6.524593505859375,-1.078277587890625,-0.1548614501953125,-0.0226287841796875
1700516904699604500,6.5346044921875,-0.8219757080078125,-0.740081787109375,0.1524658203125
1700516904709615600,6.54461572265625,-1.651885986328125,-0.5984344482421875,-0.0280609130859375
1700516904719626800,6.554626708984375,-0.49530029296875,-0.4496002197265625,0.0447845458984375
1700516904729637600,6.5646376953125,-0.95074462890625,-0.4713897705078125,-0.012115478515625
1700516904739647700,6.574647705078125,-0.935150146484375,-0.8192901611328125,0.0272369384765625
1700516904749658600,6.58465869140625,-0.9470367431640625,-0.5806732177734375,0.039031982421875
1700516904759669500,6.59466943359375,-0.707489013671875,-0.22882080078125,-0.0293426513671875
1700516904769680600,6.6046806640625,-0.83404541015625,-0.5981292724609375,0.11077880859375
1700516904779690500,6.6146904296875,-1.6208953857421875,-0.603790283203125,0.0185394287109375
1700516904789701600,6.62470166015625,-0.9508056640625,-0.4645538330078125,0.214874267578125
1700516904799712800,6.634712646484375,-0.9103851318359375,-0.06671142578125,0.05438232421875
1700516904809723600,6.6447236328125,-0.5377044677734375,-0.658172607421875,0.039825439453125
1700516904819734500,6.654734619140625,-1.60711669921875,-0.5565032958984375,-0.1122589111328125
1700516904829744600,6.66474462890625,-0.8889923095703125,-0.4540252685546875,0.11962890625
1700516904839755500,6.674755615234375,-1.0394134521484375,-0.35113525390625,-0.013824462890625
1700516904849766700,6.6847666015625,-0.537841796875,-0.488006591796875,-0.2021484375
1700516904859777800,6.69477783203125,-1.237823486328125,-0.5128631591796875,-0.115478515625
1700516904869788700,6.70478857421875,-1.0723114013671875,-0.588226318359375,-0.0281829833984375
1700516904879798500,6.714798583984375,-0.892425537109375,-0.3982696533203125,0.060791015625
1700516904889809700,6.7248095703125,-0.4237823486328125,-0.1033172607421875,0.0351715087890625
1700516904899820500,6.734820556640625,-0.935516357421875,-0.68170166015625,0.0714874267578125
1700516904909831400,6.74483154296875,-1.33819580078125,-0.62799072265625,0.068756103515625
1700516904919841500,6.754841552734375,-0.6994171142578125,-0.3900146484375,0.0928497314453125
1700516904929852700,6.764852783203125,-0.6677703857421875,-0.007049560546875,0.0632171630859375
1700516904939863800,6.77486376953125,-0.80963134765625,-0.5814971923828125,0.028045654296875
1700516904949874700,6.784874755859375,-1.653533935546875,-0.4641571044921875,0.026397705078125
1700516904959885600,6.794885498046875,-0.88067626953125,-0.515472412109375,0.013702392578125
1700516904969895700,6.804895751953125,-0.8094329833984375,0.0309295654296875,-0.0240936279296875
1700516904979906600,6.814906494140625,-0.8196258544921875,-0.57080078125,-0.045684814453125
1700516904989917400,6.82491748046875,-1.7512969970703125,-0.59393310546875,-0.1180877685546875
1700516904999928800,6.8349287109375,-0.8093109130859375,-0.5055389404296875,0.0521087646484375
1700516905009938700,6.844938720703125,-1.0083770751953125,-0.0673370361328125,0.0703582763671875
1700516905019949600,6.854949462890625,-0.66558837890625,-0.6871185302734375,0.0577850341796875
1700516905029960700,6.864960693359375,-1.33038330078125,-0.3519287109375,-0.0708465576171875
1700516905039971600,6.8749716796875,-0.99212646484375,-0.4264373779296875,0.24090576171875
1700516905049982500,6.884982421875,-0.6090240478515625,-0.09210205078125,0.0753326416015625
1700516905059992600,6.89499267578125,-0.8229827880859375,-0.6565704345703125,0.1138153076171875
1700516905070003500,6.90500341796875,-1.082061767578125,-0.2954864501953125,-0.0353240966796875
1700516905080014600,6.9150146484375,-1.09600830078125,-0.3729400634765625,0.2519073486328125
1700516905090025700,6.925025634765625,-0.4860382080078125,0.15264892578125,0.0214385986328125
1700516905100036600,6.93503662109375,-0.4659576416015625,-0.4937744140625,0.0777130126953125
1700516905110046700,6.945046630859375,-1.374237060546875,-0.7685699462890625,0.07476806640625
1700516905120057600,6.9550576171875,-1.0917510986328125,-0.4531707763671875,0.0882568359375
1700516905130068500,6.965068359375,-0.762115478515625,0.0651092529296875,-0.00213623046875
1700516905140079600,6.97507958984375,-0.809051513671875,-0.4253387451171875,-0.02801513671875
1700516905150089500,6.98508935546875,-1.3209228515625,-0.6078948974609375,-0.04669189453125
1700516905160100600,6.9951005859375,-1.05364990234375,-0.4908599853515625,0.0958709716796875
1700516905170111700,7.00511181640625,-0.5463409423828125,-0.14874267578125,0.099365234375
1700516905180122600,7.01512255859375,-1.0716094970703125,-0.4800872802734375,0.1415252685546875
1700516905190133500,7.025133544921875,-1.30047607421875,-0.6629180908203125,0.0385284423828125
1700516905200143600,7.0351435546875,-0.9130859375,-0.0765838623046875,0.22381591796875
1700516905210154500,7.045154541015625,-0.5817718505859375,-0.4681854248046875,0.2266845703125
1700516905220165600,7.05516552734375,-0.8953857421875,-0.3208465576171875,-0.265350341796875
1700516905230176800,7.0651767578125,-1.4349822998046875,-0.6095428466796875,0.141387939453125
1700516905240186600,7.0751865234375,-0.751373291015625,-0.0016632080078125,0.0015411376953125
1700516905250197800,7.08519775390625,-0.677154541015625,-0.492919921875,-0.0171051025390625
1700516905260208600,7.095208740234375,-1.333526611328125,-0.467681884765625,-0.0332794189453125
1700516905270219500,7.105219482421875,-1.157379150390625,-0.317535400390625,0.176239013671875
1700516905280230400,7.11523046875,-0.91510009765625,-0.271942138671875,0.0870208740234375
1700516905290240500,7.125240478515625,-0.84381103515625,-0.3509674072265625,0.03973388671875
1700516905300251600,7.135251708984375,-1.401458740234375,-0.678558349609375,0.1214752197265625
1700516905310262800,7.1452626953125,-0.998321533203125,-0.0185089111328125,0.027191162109375
1700516905320273700,7.155273681640625,-0.532745361328125,-0.4886627197265625,0.1985321044921875
1700516905330284500,7.165284423828125,-1.2081146240234375,-0.4009246826171875,-0.135223388671875
1700516905340294700,7.175294677734375,-1.27996826171875,-0.476806640625,0.137176513671875
1700516905350305500,7.185305419921875,-0.6163787841796875,0.0805511474609375,-0.0012359619140625
1700516905360316400,7.19531640625,-0.5037078857421875,-0.628875732421875,0.0871734619140625
1700516905370327800,7.205327880859375,-1.3102874755859375,-0.4447784423828125,-0.0707550048828125
1700516905380337700,7.215337646484375,-0.9874267578125,-0.100677490234375,0.0699310302734375
1700516905390348800,7.225348876953125,-0.3970489501953125,-0.0611724853515625,0.0086212158203125
1700516905400359700,7.235359619140625,-1.0975799560546875,-0.708160400390625,0.1477203369140625
1700516905410370600,7.24537060546875,-1.243377685546875,-0.7435150146484375,-0.0303497314453125
1700516905420381400,7.25538134765625,-1.138885498046875,0.0640869140625,-0.0298004150390625
1700516905430391600,7.2653916015625,-0.75,-0.3113861083984375,0.0609130859375
1700516905440402400,7.27540234375,-1.3009796142578125,-0.7569122314453125,0.0007781982421875
1700516905450413800,7.285413818359375,-1.17559814453125,-0.3800048828125,0.001220703125
1700516905460424700,7.2954248046875,-0.7645111083984375,-0.1678009033203125,0.1086273193359375
1700516905470434600,7.3054345703125,-0.764251708984375,-0.4888916015625,0.0308990478515625
1700516905480445700,7.31544580078125,-1.2279815673828125,-0.5942840576171875,0.0796051025390625
1700516905490456600,7.32545654296875,-0.63421630859375,0.1921234130859375,-0.0091705322265625
1700516905500467500,7.335467529296875,-0.4691009521484375,-0.5906524658203125,0.222198486328125
1700516905510478800,7.345478759765625,-1.396728515625,-0.4822235107421875,0.006683349609375
1700516905520488700,7.35548876953125,-1.3517608642578125,-0.0395355224609375,0.0464935302734375
1700516905530499600,7.36549951171875,-0.636383056640625,-0.2858123779296875,0.0947723388671875
1700516905540510700,7.3755107421875,-0.757568359375,-0.65740966796875,0.067138671875
1700516905550521600,7.385521484375,-1.22869873046875,-0.5297088623046875,-0.0432586669921875
1700516905560532500,7.395532470703125,-0.845458984375,0.09393310546875,-0.075775146484375
1700516905570542600,7.40554248046875,-0.454254150390625,-0.6175537109375,0.126220703125
1700516905580553500,7.415553466796875,-1.3690185546875,-0.5360565185546875,0.009979248046875
1700516905590564600,7.425564697265625,-1.434173583984375,-0.1598663330078125,0.1008453369140625
1700516905600575700,7.43557568359375,-0.8288726806640625,-0.4279632568359375,0.259307861328125
1700516905610585600,7.445585693359375,-1.0611724853515625,-0.32598876953125,-0.123779296875
1700516905620596700,7.4555966796875,-1.323760986328125,-0.5902252197265625,0.083587646484375
1700516905630607600,7.465607666015625,-0.891876220703125,-0.1369476318359375,-0.0507049560546875
1700516905640618500,7.475618408203125,-0.6114501953125,-0.573974609375,-0.0123291015625
1700516905650629600,7.485629638671875,-1.2870635986328125,-0.436614990234375,-0.00885009765625
1700516905660639500,7.495639404296875,-0.7696533203125,-0.2393951416015625,0.034027099609375
1700516905670647300,7.505647216796875,-0.5965728759765625,-0.587738037109375,0.17724609375
1700516905680658400,7.515658447265625,-1.0341949462890625,-0.257843017578125,0.1719818115234375
1700516905690669300,7.52566943359375,-1.20550537109375,-0.5777130126953125,0.1174468994140625
1700516905700679400,7.535679443359375,-0.6100311279296875,0.1673431396484375,-0.0742340087890625
1700516905710690300,7.545690185546875,-0.712158203125,-0.432830810546875,0.139190673828125
1700516905720701400,7.555701416015625,-1.061370849609375,-0.7253265380859375,0.15728759765625
1700516905730712300,7.56571240234375,-0.8393402099609375,-0.330291748046875,-0.0307769775390625
1700516905740723500,7.575723388671875,-0.4608001708984375,-0.1468353271484375,-0.0341339111328125
1700516905750733300,7.5857333984375,-1.3950042724609375,-0.32501220703125,0.073822021484375
1700516905760744400,7.595744384765625,-1.4351348876953125,-0.60919189453125,0.088653564453125
1700516905770755300,7.60575537109375,-0.6078643798828125,-0.1064910888671875,-0.05157470703125
1700516905780766500,7.615766357421875,-1.2691650390625,-0.357696533203125,0.0467376708984375
1700516905790777300,7.62577734375,-1.059844970703125,-0.7273406982421875,-0.070892333984375
1700516905800787500,7.635787353515625,-1.29296875,-0.0937957763671875,0.04022216796875
1700516905810798300,7.64579833984375,-0.199127197265625,-0.4571533203125,0.1248626708984375
1700516905820809500,7.6558095703125,-1.1793365478515625,-0.5916748046875,-0.0408782958984375
1700516905830820400,7.6658203125,-0.95208740234375,-0.168182373046875,0.088134765625
1700516905840830200,7.675830322265625,-0.35443115234375,-0.481842041015625,0.2221832275390625
1700516905850841300,7.68584130859375,-1.0007781982421875,-0.3075714111328125,0.0519256591796875
1700516905860852500,7.6958525390625,-1.26666259765625,-0.450927734375,0.2501220703125
1700516905870863400,7.70586328125,-0.7811279296875,0.0487060546875,0.077239990234375
1700516905880874500,7.71587451171875,-0.981414794921875,-0.475799560546875,0.144866943359375
1700516905890884400,7.72588427734375,-1.497711181640625,-0.5967864990234375,0.0326385498046875
1700516905900895200,7.735895263671875,-1.233245849609375,0.003509521484375,-0.0597991943359375
1700516905910906400,7.74590625,-0.629486083984375,-0.4270477294921875,-0.108001708984375
1700516905920917200,7.755917236328125,-1.219696044921875,-0.4248504638671875,0.0885467529296875
1700516905930927400,7.76592724609375,-1.1572723388671875,-0.170440673828125,-0.0706939697265625
1700516905940938500,7.7759384765625,-0.5886993408203125,-0.0644989013671875,0.0479278564453125
1700516905950949400,7.785949462890625,-0.952178955078125,-0.220306396484375,0.157470703125
1700516905960960500,7.79596044921875,-1.3381195068359375,-0.3556365966796875,0.157135009765625
1700516905970971400,7.805971435546875,-0.650360107421875,0.406524658203125,0.08770751953125
1700516905980981200,7.815981201171875,-0.3950653076171875,-0.3771820068359375,0.29949951171875
1700516905990992400,7.825992431640625,-1.308685302734375,-0.3694610595703125,0.0519866943359375
1700516906001003300,7.836003173828125,-1.12298583984375,0.362823486328125,0.1934814453125
1700516906011014400,7.846014404296875,-0.685455322265625,-0.03875732421875,0.1112823486328125
1700516906021024500,7.8560244140625,-0.951080322265625,-0.0601348876953125,-0.0731201171875
1700516906031035400,7.866035400390625,-0.6842193603515625,-0.0233917236328125,0.0347747802734375
1700516906041046300,7.87604638671875,-0.8356170654296875,0.1299285888671875,-0.020477294921875
1700516906051057400,7.886057373046875,-0.867523193359375,0.127593994140625,0.0560455322265625
1700516906061068300,7.896068359375,-0.9022216796875,0.343536376953125,-0.0933074951171875
1700516906071078400,7.906078369140625,-0.95281982421875,-0.2527618408203125,0.174774169921875
1700516906081089300,7.91608935546875,-0.9955291748046875,0.34613037109375,-0.0020904541015625
1700516906091100400,7.926100341796875,-1.0049285888671875,0.211395263671875,0.165618896484375
1700516906101111300,7.936111328125,-1.15777587890625,0.0549163818359375,0.0030364990234375
1700516906111121400,7.946121337890625,-0.9140167236328125,0.118865966796875,0.1841278076171875
1700516906121132300,7.95613232421875,-0.907135009765625,0.4105682373046875,0.02557373046875
1700516906131143400,7.966143310546875,-0.9389495849609375,0.0064697265625,0.0807037353515625
1700516906141154300,7.976154296875,-0.99859619140625,0.3453369140625,0.06146240234375
1700516906151165400,7.98616552734375,-0.9431610107421875,0.1346435546875,0.0997467041015625
1700516906161175300,7.99617529296875,-1.194061279296875,0.447235107421875,-0.0466461181640625
1700516906171186400,8.0061865234375,-1.028778076171875,0.0307769775390625,0.01947021484375
1700516906181197300,8.016197265625,-0.3131256103515625,0.5564422607421875,0.0856170654296875
1700516906191208400,8.02620849609375,-1.1120758056640625,-0.204803466796875,-0.354248046875
1700516906201219300,8.03621923828125,-4.36456298828125,0.94256591796875,-0.1402130126953125
1700516906211229400,8.0462294921875,0.481170654296875,0.4080047607421875,0.14892578125
1700516906221240300,8.056240234375,-0.375701904296875,0.0782318115234375,-0.18243408203125
1700516906231251500,8.06625146484375,-0.5807342529296875,0.1605072021484375,0.152862548828125
1700516906241262300,8.076262451171875,-1.7668914794921875,0.4397125244140625,-0.0585174560546875
1700516906251272400,8.0862724609375,-1.2703399658203125,0.360687255859375,0.046173095703125
1700516906261283300,8.096283447265625,-0.8744049072265625,0.195404052734375,0.06170654296875
1700516906271294500,8.10629443359375,-0.7071075439453125,0.2377471923828125,0.0242462158203125
1700516906281305300,8.116305419921876,-1.6428375244140625,0.1702728271484375,0.031646728515625
1700516906291316200,8.126316162109376,-1.225006103515625,0.45703125,-0.0726776123046875
1700516906301326300,8.136326416015624,-0.65472412109375,0.13336181640625,0.055633544921875
1700516906311337500,8.14633740234375,-1.151702880859375,0.3904266357421875,-0.0298309326171875
1700516906321348400,8.156348388671875,-0.9144134521484375,0.2316436767578125,-0.05181884765625
1700516906331359500,8.166359375,-0.9695281982421875,0.21868896484375,0.071044921875
1700516906341369300,8.176369384765625,-1.077423095703125,0.3308563232421875,-0.0998382568359375
1700516906351380200,8.186380126953125,-1.1052703857421875,0.2259674072265625,0.0467529296875
1700516906361391400,8.196391357421875,-1.097442626953125,0.5554962158203125,-0.1258544921875
1700516906371402200,8.20640234375,-0.6772918701171875,0.2547149658203125,0.0255889892578125
1700516906381413400,8.216413330078124,-1.1655120849609375,0.4009857177734375,0.0072479248046875
1700516906391423500,8.226423583984374,-0.9605255126953125,0.40728759765625,-0.0918731689453125
1700516906401434400,8.236434326171874,-1.057281494140625,0.2139434814453125,0.1223907470703125
1700516906411445500,8.246445556640625,-1.1954803466796875,0.55181884765625,-0.104949951171875
1700516906421456400,8.256456298828125,-1.0065765380859375,0.314422607421875,0.170989990234375
1700516906431466200,8.26646630859375,-1.369537353515625,0.3575286865234375,-0.0500946044921875
1700516906441477400,8.276477294921875,-1.0316009521484375,0.3645172119140625,-0.06689453125
1700516906451488300,8.28648828125,-1.2700653076171875,0.123046875,0.02911376953125
1700516906461499400,8.29649951171875,-0.9885101318359375,0.525787353515625,-0.0657501220703125
1700516906471510500,8.306510498046874,-0.972381591796875,0.1792144775390625,-0.05364990234375
1700516906481520400,8.316520263671874,-1.2061920166015625,0.3016204833984375,-0.012542724609375
1700516906491531300,8.32653125,-0.5757293701171875,0.3341827392578125,-0.0034027099609375
1700516906501542400,8.33654248046875,-1.0946197509765625,0.2072296142578125,0.1741485595703125
1700516906511553300,8.34655322265625,-1.4941558837890625,0.4232025146484375,-0.0511016845703125
1700516906521563400,8.3565634765625,-0.6431427001953125,0.3805694580078125,0.058746337890625
1700516906531574500,8.366574462890625,-1.4911956787109375,-0.01080322265625,-0.0032196044921875
1700516906541585400,8.37658544921875,-1.0008544921875,0.6275634765625,-0.090545654296875
1700516906551596300,8.38659619140625,-0.6295623779296875,0.23870849609375,0.129974365234375
1700516906561607400,8.396607421875,-1.474884033203125,0.083465576171875,0.0302581787109375
1700516906571617300,8.4066171875,-0.881134033203125,0.7699127197265625,0.071746826171875
1700516906581628400,8.41662841796875,-0.8544464111328125,0.0390472412109375,0.124786376953125
1700516906591639300,8.426639404296875,-1.5854339599609375,0.099456787109375,-0.169158935546875
1700516906601650400,8.436650390625,-0.5986175537109375,0.768280029296875,0.1443023681640625
1700516906611660500,8.44666064453125,-0.9307708740234375,-0.0041961669921875,0.0074310302734375
1700516906621671400,8.45667138671875,-1.3819122314453125,0.3373870849609375,-0.082794189453125
1700516906631682300,8.466682373046876,-0.3419952392578125,0.677947998046875,0.0286712646484375
1700516906641693400,8.476693359375,-1.0625457763671875,0.0813446044921875,0.028167724609375
1700516906651704300,8.486704345703124,-1.6787261962890625,0.19915771484375,-0.1040191650390625
1700516906661714400,8.49671435546875,-0.69268798828125,0.79925537109375,0.0481109619140625
1700516906671724800,8.506724853515625,-1.072998046875,0.00250244140625,0.0452117919921875
1700516906681735700,8.516735595703125,-1.245697021484375,0.2267913818359375,-0.094451904296875
1700516906691747000,8.5267470703125,-0.5035247802734375,0.7608184814453125,0.0369873046875
1700516906701757000,8.5367568359375,-1.1959228515625,0.1226348876953125,0.055450439453125
1700516906711767800,8.546767822265625,-1.2681427001953125,0.19158935546875,-0.0433197021484375
1700516906721779000,8.556779052734376,-0.6946563720703125,0.6636962890625,-0.0594024658203125
1700516906731789800,8.566789794921876,-0.9838409423828125,0.3294677734375,0.0252838134765625
1700516906741800700,8.57680078125,-1.1091766357421875,0.040802001953125,-0.0273590087890625
1700516906751810800,8.586810791015624,-0.7188720703125,0.7023773193359375,0.006195068359375
1700516906761822000,8.596822021484375,-1.0524749755859375,0.4104766845703125,0.079254150390625
1700516906771832800,8.606832763671875,-1.1997528076171875,0.115203857421875,0.0000152587890625
1700516906781844000,8.616843994140625,-1.1020355224609375,0.4781036376953125,-0.003509521484375
1700516906791854800,8.626854736328125,-0.968231201171875,0.59503173828125,0.0029144287109375
1700516906801865000,8.636864990234375,-1.1266632080078125,0.1213531494140625,-0.0116424560546875
1700516906811875800,8.646875732421876,-1.238616943359375,0.181640625,-0.10589599609375
1700516906821886700,8.65688671875,-0.85687255859375,0.79412841796875,-0.0159912109375
1700516906831897900,8.66689794921875,-1.051513671875,0.0669403076171875,0.0657958984375
1700516906841908000,8.676907958984375,-1.0653076171875,0.2219696044921875,-0.0192718505859375
1700516906851918800,8.6869189453125,-1.0496673583984375,0.639495849609375,0.102264404296875
1700516906861930000,8.696929931640625,-1.0774078369140625,0.2707672119140625,0.014068603515625
1700516906871940900,8.70694091796875,-1.1849212646484375,0.022674560546875,-0.0428314208984375
1700516906881951700,8.71695166015625,-1.2301177978515625,0.50714111328125,0.002532958984375
1700516906891961900,8.7269619140625,-0.779754638671875,0.392791748046875,0.0679473876953125
1700516906901972700,8.73697265625,-1.14031982421875,0.0018463134765625,-0.0368499755859375
1700516906911983900,8.74698388671875,-1.181854248046875,0.2015533447265625,-0.014007568359375
1700516906921995000,8.7569951171875,-0.870880126953125,0.5513916015625,-0.0527191162109375
1700516906932004900,8.7670048828125,-0.99090576171875,0.1660308837890625,0.0505218505859375
1700516906942016000,8.77701611328125,-1.323028564453125,-0.1519012451171875,0.0360565185546875
1700516906952027000,8.78702685546875,-0.794830322265625,0.741485595703125,-0.07073974609375
1700516906962037800,8.797037841796875,-0.7622833251953125,0.2715606689453125,0.1335906982421875
1700516906972048600,8.807048583984376,-1.3857269287109375,-0.134735107421875,-0.1241455078125
1700516906982058800,8.817058837890626,-0.564300537109375,0.53857421875,0.061859130859375
1700516906992070000,8.82706982421875,-0.8121337890625,0.51806640625,0.094024658203125
1700516907002081000,8.8370810546875,-1.119720458984375,-0.059173583984375,0.0451507568359375
1700516907012092000,8.847091796875,-1.1038665771484375,0.16827392578125,0.0552978515625
1700516907022101800,8.857101806640625,-0.81036376953125,0.634918212890625,0.12420654296875
1700516907032113000,8.86711279296875,-1.28338623046875,-0.1095733642578125,0.044219970703125
1700516907042123800,8.877123779296875,-1.18206787109375,-0.085052490234375,-0.0716705322265625
1700516907052134700,8.887134765625,-0.912200927734375,0.568450927734375,0.116424560546875
1700516907062146000,8.89714599609375,-0.9235076904296875,0.1573486328125,0.0125579833984375
1700516907072156000,8.907156005859376,-1.180572509765625,-0.3990020751953125,-0.024078369140625
1700516907082166800,8.917166748046874,-1.0702667236328125,0.3504180908203125,0.0498046875
1700516907092178000,8.927177978515624,-0.6657867431640625,0.436065673828125,0.07537841796875
1700516907102188800,8.937188720703125,-1.17596435546875,-0.3693695068359375,-0.035491943359375
1700516907112199000,8.947198974609375,-0.8551788330078125,0.2085113525390625,0.0710601806640625
1700516907122209800,8.957209716796875,-0.7530364990234375,0.4274139404296875,0.12646484375
1700516907132221000,8.967220947265625,-0.9961090087890625,0.0048828125,0.04278564453125
1700516907142232000,8.977232177734376,-1.19122314453125,-0.2314453125,0.0947723388671875
1700516907152242000,8.987241943359376,-1.004974365234375,0.4659423828125,0.0247955322265625
1700516907162252800,8.997252685546876,-0.8318023681640625,0.1497955322265625,0.1102752685546875
1700516907172264000,9.007263916015624,-1.377960205078125,-0.261627197265625,-0.0640106201171875
1700516907182274800,9.01727490234375,-1.0465850830078125,0.250732421875,0.0283355712890625
1700516907192285700,9.02728564453125,-1.1042633056640625,0.4039154052734375,0.0424041748046875
1700516907202295800,9.0372958984375,-0.9925537109375,-0.20880126953125,0.010009765625
1700516907212307000,9.047306884765625,-1.1864166259765625,-0.146484375,0.0015716552734375
1700516907222317800,9.05731787109375,-1.0312042236328125,0.50689697265625,0.0503997802734375
1700516907232329000,9.067328857421876,-0.897247314453125,-0.000701904296875,-0.020172119140625
1700516907242338800,9.0773388671875,-1.1835174560546875,-0.3204803466796875,-0.0538482666015625
1700516907252350000,9.087349853515626,-0.8615875244140625,0.2524566650390625,0.0171661376953125
1700516907262360800,9.09736083984375,-0.9982757568359375,0.4130859375,0.0319366455078125
1700516907272371700,9.107371826171875,-0.861236572265625,-0.0245361328125,0.0664825439453125
1700516907282382800,9.1173828125,-1.0323028564453125,-0.1787872314453125,0.0341033935546875
1700516907292393000,9.12739306640625,-1.010589599609375,0.3683624267578125,-0.0184478759765625
1700516907302403800,9.13740380859375,-0.8170928955078125,0.4331207275390625,0.1033782958984375
1700516907312415000,9.1474150390625,-1.202911376953125,-0.2639617919921875,0.0695953369140625
1700516907322425900,9.15742578125,-1.124725341796875,-0.020263671875,-0.0124664306640625
1700516907332436000,9.16743603515625,-0.9392852783203125,0.4074859619140625,0.0538787841796875
1700516907342446800,9.17744677734375,-1.002197265625,0.1607208251953125,-0.00146484375
1700516907352457700,9.187457763671874,-0.893218994140625,-0.1089935302734375,0.0590362548828125
1700516907362468900,9.19746875,-1.1422882080078125,0.1880035400390625,0.00567626953125
1700516907372479000,9.20747900390625,-0.7534942626953125,0.530609130859375,-0.0344085693359375
1700516907382489900,9.21748974609375,-0.9662933349609375,-0.0532379150390625,0.0566864013671875
1700516907392501000,9.2275009765625,-1.2238616943359375,-0.0643157958984375,0.028106689453125
1700516907402512000,9.237511962890625,-0.8391876220703125,0.2284698486328125,0.0261383056640625
1700516907412522800,9.247522705078126,-1.1581878662109375,0.312530517578125,0.0532989501953125
1700516907422532900,9.257532958984376,-0.7050323486328125,0.0142364501953125,0.0577850341796875
1700516907432543700,9.267543701171874,-1.2315521240234375,-0.203887939453125,0.0257415771484375
1700516907442555000,9.277554931640625,-1.029296875,0.356842041015625,0.0931549072265625
1700516907452566000,9.28756591796875,-0.795318603515625,0.420684814453125,0.0284423828125
1700516907462575900,9.297575927734375,-1.4139251708984375,-0.2026519775390625,0.0348663330078125
1700516907472586800,9.307586669921875,-1.03790283203125,0.0015106201171875,0.0607147216796875
1700516907482598000,9.317597900390625,-1.03485107421875,0.32177734375,0.0240478515625
1700516907492608800,9.32760888671875,-1.1128387451171875,0.2984771728515625,0.01654052734375
1700516907502619000,9.337618896484376,-0.913482666015625,0.0029449462890625,0.062286376953125
1700516907512630000,9.347630126953124,-1.1042022705078125,0.102203369140625,0.015472412109375
1700516907522641000,9.357640869140624,-0.9094390869140625,0.5502777099609375,-0.0003814697265625
1700516907532651800,9.36765185546875,-1.03717041015625,0.1711273193359375,0.1008453369140625
1700516907542662000,9.377661865234375,-1.2766876220703125,-0.0906524658203125,0.0432891845703125
1700516907552672800,9.3876728515625,-1.0912933349609375,0.1595916748046875,-0.0615081787109375
1700516907562684000,9.397683837890625,-0.9967498779296875,0.4189605712890625,0.1147003173828125
1700516907572694800,9.40769482421875,-0.9438629150390625,0.161346435546875,-0.013092041015625
1700516907582706000,9.417705810546876,-0.99127197265625,0.021514892578125,0.001800537109375
1700516907592716000,9.427716064453126,-0.953094482421875,0.211334228515625,0.0154876708984375
1700516907602727000,9.437726806640624,-0.99267578125,0.45904541015625,0.030670166015625
1700516907612737800,9.44773779296875,-0.90008544921875,0.271209716796875,0.0109100341796875
1700516907622749000,9.4577490234375,-1.0325469970703125,0.10467529296875,0.0810546875
1700516907632758800,9.4677587890625,-0.8770904541015625,0.28497314453125,0.0005645751953125
1700516907642770000,9.47777001953125,-1.0100555419921875,0.4154815673828125,0.0728607177734375
1700516907652780800,9.48778076171875,-1.1652679443359375,0.2675018310546875,0.05157470703125
1700516907662792000,9.4977919921875,-1.1399078369140625,-0.0054473876953125,0.0812225341796875
1700516907672805600,9.5078056640625,-1.06903076171875,0.0971527099609375,-0.027618408203125
1700516907682816500,9.51781640625,-0.964263916015625,0.428802490234375,0.07415771484375
1700516907692827400,9.527827392578125,-0.9363250732421875,0.3437042236328125,0.0520172119140625
1700516907702838500,9.537838623046875,-1.0081634521484375,-0.0150146484375,0.0191497802734375
1700516907712848400,9.547848388671875,-0.9390869140625,0.2292022705078125,-0.0137939453125
1700516907722859500,9.557859619140626,-0.8935394287109375,0.388092041015625,0.1299591064453125
1700516907732870700,9.56787060546875,-1.1305084228515625,0.3886871337890625,0.0489044189453125
1700516907742881500,9.577881591796874,-0.8828582763671875,0.1399383544921875,0.1110992431640625
1700516907752892400,9.587892333984374,-1.0308837890625,0.163421630859375,0.0635986328125
1700516907762902500,9.597902587890625,-1.091156005859375,0.3591156005859375,0.1050872802734375
1700516907772913400,9.607913330078125,-1.016021728515625,0.457611083984375,0.0740203857421875
1700516907782924500,9.617924560546875,-1.1111297607421875,0.1829681396484375,0.0636444091796875
1700516907792935700,9.627935791015625,-1.0400848388671875,0.129974365234375,0.0555877685546875
1700516907802945500,9.637945556640625,-0.9977874755859375,0.3230438232421875,0.021484375
1700516907812956700,9.647956787109376,-1.066314697265625,0.325347900390625,0.0846405029296875
1700516907822967600,9.657967529296876,-1.152313232421875,0.267364501953125,-0.00390625
1700516907832978400,9.667978515625,-0.96771240234375,0.1660308837890625,0.083099365234375
1700516907842988500,9.677988525390624,-0.914886474609375,0.2152862548828125,0.0228271484375
1700516907852999400,9.68799951171875,-0.9083099365234375,0.2316741943359375,0.0230712890625
1700516907863010600,9.698010498046875,-1.20758056640625,0.4232330322265625,0.037322998046875
1700516907873021700,9.708021728515625,-1.0325469970703125,0.2368621826171875,0.007659912109375
1700516907883031600,9.718031494140625,-0.88543701171875,0.183380126953125,0.0273284912109375
1700516907893042700,9.728042724609375,-1.0448455810546875,0.2471771240234375,0.0592803955078125
1700516907903053600,9.738053466796876,-1.152862548828125,0.1781768798828125,0.036865234375
1700516907913064400,9.748064453125,-1.2625885009765625,0.183624267578125,-0.0023193359375
1700516907923074600,9.758074462890624,-1.1082305908203125,0.03436279296875,0.06536865234375
1700516907933085400,9.76808544921875,-0.939422607421875,-0.023773193359375,0.047576904296875
1700516907943096600,9.7780966796875,-0.9850616455078125,-0.1562347412109375,0.0383758544921875
1700516907953107700,9.788107666015625,-1.0149078369140625,0.0058135986328125,-0.0125274658203125
1700516907963117600,9.79811767578125,-0.950958251953125,0.0519561767578125,0.016876220703125
1700516907973128400,9.80812841796875,-0.94171142578125,-0.3183441162109375,0.0814208984375
1700516907983139600,9.8181396484375,-0.8813934326171875,-0.1922454833984375,-0.0370941162109375
1700516907993150500,9.828150390625,-0.98809814453125,-0.1511688232421875,0.0312957763671875
1700516908003160600,9.83816064453125,-1.0817108154296875,-0.1639556884765625,0.0217742919921875
1700516908013171500,9.84817138671875,-1.0301055908203125,-0.1420745849609375,0.024200439453125
1700516908023182600,9.8581826171875,-0.9238739013671875,-0.353424072265625,0.1032562255859375
1700516908033193500,9.868193359375,-1.08203125,-0.24395751953125,0.0050506591796875
1700516908043203600,9.87820361328125,-1.0157470703125,-0.121063232421875,0.058349609375
1700516908053214500,9.88821435546875,-0.9254150390625,-0.21759033203125,0.09783935546875
1700516908063225600,9.8982255859375,-0.895660400390625,-0.32342529296875,0.0683746337890625
1700516908073236500,9.908236572265626,-1.0191802978515625,-0.2093353271484375,0.0580902099609375
1700516908083246600,9.91824658203125,-1.0482177734375,-0.204376220703125,0.02435302734375
1700516908093257500,9.928257568359374,-0.9327545166015625,-0.22650146484375,0.0817413330078125
1700516908103268600,9.9382685546875,-1.0611724853515625,-0.1586761474609375,0.0302734375
1700516908113279500,9.948279541015625,-0.8111419677734375,-0.302154541015625,0.0302734375
1700516908123289600,9.95828955078125,-1.0093994140625,-0.2125091552734375,0.07171630859375
1700516908133300500,9.968300537109375,-0.9902801513671875,-0.1433258056640625,-0.0216827392578125
1700516908143311600,9.9783115234375,-0.7250518798828125,-0.0225830078125,0.024566650390625
1700516908153322500,9.988322509765625,-1.0782928466796875,-0.2324371337890625,0.1182403564453125
1700516908163332400,9.998332275390625,-1.164947509765625,-0.2175445556640625,0.0497283935546875
1700516908173343500,10.008343505859376,-0.9361114501953125,-0.0056304931640625,-0.0361328125
1700516908183354600,10.018354736328124,-0.7449188232421875,-0.1026153564453125,0.0832061767578125
1700516908193365500,10.028365478515624,-0.8805084228515625,-0.118072509765625,0.0322265625
1700516908203375600,10.038375732421875,-1.1135101318359375,0.037811279296875,0.10540771484375
1700516908213386500,10.048386474609375,-0.955078125,-0.113433837890625,0.127227783203125
1700516908223397400,10.0583974609375,-1.013763427734375,-0.110015869140625,-0.0460205078125
1700516908233408500,10.068408447265625,-1.0133819580078125,0.0921478271484375,0.08489990234375
1700516908243418400,10.07841845703125,-0.9188385009765625,-0.0393524169921875,0.038970947265625
1700516908253429800,10.0884296875,-0.966461181640625,-0.2104644775390625,-0.016448974609375
1700516908263440600,10.098440673828126,-1.15570068359375,0.01422119140625,0.125823974609375
1700516908273450500,10.108450439453126,-1.0390625,-0.021514892578125,0.0561981201171875
1700516908283461600,10.118461669921874,-1.0100250244140625,-0.0019073486328125,-0.0158843994140625
1700516908293472500,10.128472412109375,-0.9938507080078125,-0.05023193359375,0.054107666015625
1700516908303483400,10.1384833984375,-0.85791015625,-0.1075897216796875,0.02264404296875
1700516908313493500,10.148493408203125,-1.212493896484375,-0.121337890625,0.0423431396484375
1700516908323504400,10.15850439453125,-1.055694580078125,0.081878662109375,0.0533294677734375
1700516908333515500,10.168515625,-0.870330810546875,-0.08685302734375,0.0697021484375
1700516908343526700,10.178526611328126,-0.9384918212890625,-0.2870941162109375,0.022979736328125
1700516908353536500,10.18853662109375,-1.11669921875,-0.07330322265625,0.032562255859375
1700516908363547600,10.198547607421874,-1.0125274658203125,-0.1092376708984375,0.09014892578125
1700516908373558500,10.20855859375,-1.0081024169921875,-0.06414794921875,0.0340423583984375
1700516908383569400,10.2185693359375,-1.0272369384765625,-0.2219085693359375,0.0758514404296875
1700516908393579500,10.22857958984375,-0.7592926025390625,-0.2027740478515625,0.0539703369140625
1700516908403590400,10.23859033203125,-1.0778045654296875,-0.188812255859375,0.0136566162109375
1700516908413601500,10.2486015625,-1.1060333251953125,-0.0030975341796875,0.0326690673828125
1700516908423612700,10.25861279296875,-0.8917694091796875,-0.10125732421875,0.0851593017578125
1700516908433622500,10.26862255859375,-0.889129638671875,-0.35662841796875,0.0357513427734375
1700516908443633700,10.278633544921876,-1.0324859619140625,-0.0676422119140625,-0.004119873046875
1700516908453644500,10.28864453125,-1.106353759765625,-0.1278839111328125,0.0879669189453125
1700516908463654400,10.298654296875,-0.9672393798828125,-0.0108642578125,0.0095977783203125
1700516908473665500,10.30866552734375,-0.98175048828125,-0.200408935546875,0.0645751953125
1700516908483676400,10.318676513671875,-0.83111572265625,-0.138336181640625,0.0390625
1700516908493687600,10.3286875,-1.0504913330078125,-0.114593505859375,0.027618408203125
1700516908503697700,10.33869775390625,-1.1208648681640625,0.030242919921875,0.0050506591796875
1700516908513708500,10.34870849609375,-0.8995208740234375,-0.00238037109375,0.0662994384765625
1700516908523719400,10.358719482421876,-0.8714599609375,-0.2658843994140625,0.071868896484375
1700516908533730600,10.36873046875,-1.1118621826171875,-0.0333251953125,-0.0112762451171875
1700516908543740400,10.378740478515626,-1.0525970458984375,-0.05499267578125,0.0964508056640625
1700516908553751600,10.38875146484375,-1.0160369873046875,0.0083465576171875,0.013824462890625
1700516908563762400,10.398762451171875,-0.9847259521484375,-0.1458740234375,0.0630950927734375
1700516908573772500,10.4087724609375,-0.8172607421875,-0.1045379638671875,0.0504608154296875
1700516908583783700,10.41878369140625,-1.160858154296875,-0.095184326171875,0.0073394775390625
1700516908593794600,10.428794677734375,-1.090301513671875,0.06787109375,0.02764892578125
1700516908603805400,10.438805419921875,-0.85308837890625,-0.0639801025390625,0.0697021484375
1700516908613815600,10.448815673828125,-0.896575927734375,-0.2807464599609375,0.03497314453125
1700516908623826400,10.458826416015626,-1.1504669189453125,-0.01275634765625,-0.005767822265625
1700516908633837600,10.468837646484374,-1.055908203125,-0.07440185546875,0.0989837646484375
1700516908643847400,10.478847412109374,-0.9909515380859375,-0.0386199951171875,-0.00836181640625
1700516908653858300,10.4888583984375,-0.9443511962890625,-0.233184814453125,0.0982818603515625
1700516908663869700,10.49886962890625,-0.8142547607421875,-0.1479644775390625,0.028656005859375
1700516908673881000,10.508881103515625,-1.1803131103515625,-0.11907958984375,0.02581787109375
1700516908683891000,10.518890869140625,-1.0575714111328125,0.0533447265625,0.049407958984375
1700516908693902000,10.528902099609375,-0.814422607421875,-0.19000244140625,0.0736846923828125
1700516908703913000,10.538912841796876,-0.927032470703125,-0.2762908935546875,0.038116455078125
1700516908713923800,10.548923828125,-1.1697540283203125,-0.0543365478515625,0.03887939453125
1700516908723934000,10.558933837890624,-0.986480712890625,-0.0757904052734375,0.0666961669921875
1700516908733945000,10.568945068359374,-1.0274810791015625,-0.073394775390625,0.0247650146484375
1700516908743956000,10.5789560546875,-0.891448974609375,-0.241729736328125,0.10394287109375
1700516908753966000,10.588966064453125,-0.881256103515625,-0.1046142578125,0.003173828125
1700516908763977000,10.59897705078125,-1.24493408203125,-0.1031646728515625,0.046844482421875
1700516908773988000,10.608988037109375,-0.9589385986328125,0.077392578125,0.0214691162109375
1700516908783999000,10.6189990234375,-0.791595458984375,-0.2493743896484375,0.07171630859375
1700516908794009000,10.629009033203126,-1.01837158203125,-0.142303466796875,0.007080078125
1700516908804020000,10.63902001953125,-1.2017059326171875,-0.05072021484375,0.0618896484375
1700516908814031000,10.649031005859374,-0.935150146484375,-0.0133056640625,0.0370330810546875
1700516908824041200,10.659041259765624,-1.015350341796875,-0.117706298828125,0.030029296875
1700516908834052000,10.669052001953125,-0.8319549560546875,-0.198211669921875,0.08740234375
1700516908844063000,10.67906298828125,-1.0175933837890625,-0.0641326904296875,-0.0136566162109375
1700516908854074000,10.68907421875,-1.186859130859375,-0.0440826416015625,0.058197021484375
1700516908864084000,10.699083984375,-0.9159088134765625,0.05108642578125,0.0198211669921875
1700516908874094800,10.7090947265625,-0.8208160400390625,-0.28546142578125,0.0657196044921875
1700516908884106000,10.71910595703125,-1.06964111328125,-0.0760650634765625,-0.0075836181640625
1700516908894115800,10.72911572265625,-1.1559906005859375,-0.0740203857421875,0.0867767333984375
1700516908904127200,10.739127197265624,-0.946563720703125,-0.00146484375,0.0142059326171875
1700516908914138000,10.74913818359375,-1.0134429931640625,-0.166168212890625,0.056427001953125
1700516908924149000,10.75914892578125,-0.803558349609375,-0.193328857421875,0.0650634765625
1700516908934159000,10.7691591796875,-1.079986572265625,-0.0995941162109375,-0.013519287109375
1700516908944170000,10.779169921875,-1.139617919921875,-0.0248870849609375,0.07183837890625
1700516908954180900,10.789180908203125,-0.8804168701171875,-0.042022705078125,0.033050537109375
1700516908964191000,10.79919091796875,-0.8533935546875,-0.3292083740234375,0.063629150390625
1700516908974201900,10.809201904296875,-1.1216278076171875,-0.0519561767578125,-0.000396728515625
1700516908984213000,10.819212890625,-1.07568359375,-0.11572265625,0.0906982421875
1700516908994224000,10.82922412109375,-0.9642791748046875,-0.017974853515625,0.013336181640625
1700516909004234000,10.83923388671875,-0.9832305908203125,-0.247314453125,0.0858306884765625
1700516909014245000,10.8492451171875,-0.807159423828125,-0.1367950439453125,0.0313568115234375
1700516909024256000,10.859256103515625,-1.1698150634765625,-0.1291351318359375,0.0245819091796875
1700516909034266000,10.86926611328125,-1.056671142578125,0.019805908203125,0.0453948974609375
1700516909044277000,10.879277099609375,-0.860198974609375,-0.1221466064453125,0.04974365234375
1700516909054288100,10.8892880859375,-0.882415771484375,-0.2530975341796875,0.0536956787109375
1700516909064298200,10.89929833984375,-1.2134552001953125,-0.0332183837890625,0.0238494873046875
1700516909074309000,10.90930908203125,-1.0016937255859375,-0.0881195068359375,0.076202392578125
1700516909084320000,10.919320068359376,-0.9589691162109375,-0.026763916015625,0.01263427734375
1700516909094331100,10.9293310546875,-0.9601593017578125,-0.230194091796875,0.09527587890625
1700516909104341000,10.939341064453124,-0.848846435546875,-0.084564208984375,0.020294189453125
1700516909114351900,10.949351806640625,-1.217437744140625,-0.1375579833984375,0.037506103515625
1700516909124363000,10.959363037109375,-0.9856414794921875,0.0687408447265625,0.02374267578125
1700516909134372900,10.969372802734375,-0.85113525390625,-0.1703338623046875,0.0675201416015625
1700516909144384300,10.97938427734375,-0.91949462890625,-0.2123870849609375,0.0395965576171875
1700516909154395100,10.98939501953125,-1.213134765625,-0.0435791015625,0.0226898193359375
1700516909164405000,10.999405029296875,-0.940399169921875,-0.069427490234375,0.0682830810546875
1700516909174416100,11.009416015625,-1.028564453125,-0.0492706298828125,0.0155487060546875
1700516909184427000,11.019427001953124,-0.912078857421875,-0.2311553955078125,0.07415771484375
1700516909194438000,11.02943798828125,-0.907684326171875,-0.1164093017578125,0.018218994140625
1700516909204448000,11.039447998046874,-1.1455841064453125,-0.142303466796875,0.0245208740234375
1700516909214459000,11.049458984375,-0.98187255859375,0.030731201171875,0.0258026123046875
1700516909224470000,11.059469970703125,-0.8597869873046875,-0.2099761962890625,0.056304931640625
1700516909234480000,11.069480224609375,-0.987548828125,-0.2068634033203125,0.03985595703125
1700516909244491000,11.079490966796875,-1.1693267822265625,-0.1004791259765625,0.0158843994140625
1700516909254502100,11.089502197265626,-0.8946075439453125,-0.093414306640625,0.0487518310546875
1700516909264512000,11.099511962890626,-1.043243408203125,-0.0806732177734375,0.0172882080078125
1700516909274523100,11.109523193359376,-0.935028076171875,-0.2182769775390625,0.0746307373046875
1700516909284534000,11.119533935546874,-0.9473114013671875,-0.0942840576171875,0.0135650634765625
1700516909294545000,11.129544921875,-1.1512451171875,-0.1634368896484375,0.0361328125
1700516909304555000,11.139554931640625,-0.9407196044921875,0.0365142822265625,0.0151824951171875
1700516909314566100,11.149566162109375,-0.8675537109375,-0.2009429931640625,0.07470703125
1700516909324577000,11.159576904296875,-1.0055694580078125,-0.1756439208984375,0.0276336669921875
1700516909334587100,11.169587158203125,-1.196563720703125,-0.0828399658203125,0.0491180419921875
