time,seconds_elapsed,z,y,x
1700516898227627500,0.06262744140625,0.003753107972443104,-0.03518867492675781,-0.13312621414661407
1700516898237638400,0.072638427734375,-0.06188493221998215,0.09821679443120956,-0.1346152275800705
1700516898247649500,0.0826494140625,0.021543381735682487,-0.13165342807769775,0.03835655003786087
1700516898257660400,0.092660400390625,0.013346806168556213,0.22357793152332306,-0.004918662365525961
1700516898267670300,0.102670166015625,0.05199886113405228,-0.1345386803150177,0.2630406320095062
1700516898277681700,0.112681640625,-0.06293659657239914,-0.10761412233114243,-0.1623706966638565
1700516898287692500,0.122692626953125,-0.02486351504921913,0.21617433428764343,-0.18020375072956085
1700516898297703400,0.132703369140625,0.05654314532876015,-0.058625586330890656,0.16839800775051117
1700516898307713500,0.142713623046875,0.03676704317331314,-0.0106308963149786,0.11347192525863647
1700516898317724400,0.152724365234375,-0.008813085034489632,0.023265158757567406,-0.19522632658481598
1700516898327735600,0.162735595703125,-0.029361767694354057,0.04813828319311142,-0.004160232841968536
1700516898337746400,0.172746337890625,0.02545132115483284,-0.0664547011256218,0.05528360232710838
1700516898347756300,0.18275634765625,0.03013875149190426,0.25042712688446045,0.1181643009185791
1700516898357767700,0.192767578125,0.017739679664373398,-0.3251304626464844,0.19685932993888855
1700516898367778600,0.202778564453125,-0.06654270738363266,0.17716647684574127,-0.2747041881084442
1700516898377789400,0.21278955078125,-0.03940165415406227,-0.06173543632030487,-0.009004996158182621
1700516898387799600,0.222799560546875,0.00973153579980135,-0.0036119448486715555,0.2096429169178009
1700516898397810400,0.232810546875,0.007041184231638908,-0.11309558153152466,0.017751116305589676
1700516898407821300,0.2428212890625,-0.07630590349435806,0.07524636387825012,-0.1995130181312561
1700516898417832700,0.252832763671875,-0.010621810331940651,-0.11241703480482101,0.07248683273792267
1700516898427843600,0.262843505859375,-0.010888926684856415,0.023756248876452446,0.014192366972565651
1700516898437853700,0.272853759765625,0.006555137690156698,0.07948227226734161,0.20241007208824158
1700516898447864600,0.282864501953125,-0.018967000767588615,-0.3047780394554138,0.05389116704463959
1700516898457875500,0.29287548828125,-0.06468749791383743,0.2677100896835327,-0.29769542813301086
1700516898467886300,0.30288623046875,0.002571435645222664,-0.11105240136384964,0.09288963675498962
1700516898477896400,0.312896484375,0.023175789043307304,0.07145323604345322,0.21226996183395386
1700516898487907300,0.3229072265625,0.00461462140083313,-0.11466257274150848,-0.06102842092514038
1700516898497918700,0.332918701171875,-0.0553496815264225,0.1581156700849533,-0.15622632205486298
1700516898507929600,0.3429296875,0.01751653291285038,-0.1610090583562851,0.11659003049135208
1700516898517939500,0.352939453125,-0.01691993698477745,0.16531114280223846,0.022137809544801712
1700516898527950600,0.36295068359375,0.02947046607732773,-0.06149377301335335,0.29039135575294495
1700516898537961500,0.37296142578125,-0.034304987639188766,-0.11522360891103745,-0.14297915995121002
1700516898547972400,0.382972412109375,-0.03419686481356621,0.18963083624839783,-0.2396678924560547
1700516898557982500,0.392982421875,0.027165958657860756,-0.09816335886716843,0.16021530330181122
1700516898567993300,0.402993408203125,0.033785510808229446,0.027061406522989273,0.14304909110069275
1700516898578004500,0.41300439453125,-0.0030812984332442284,-0.03016393817961216,-0.19103987514972687
1700516898588015600,0.423015625,-0.02207336574792862,0.12330764532089233,-0.0786464735865593
1700516898598026500,0.433026611328125,0.028709111735224724,-0.10904224961996078,0.11312202364206314
1700516898608036600,0.44303662109375,0.02001682110130787,0.2593062222003937,0.024374045431613922
1700516898618047500,0.453047607421875,0.0409487821161747,-0.22436365485191345,0.21373489499092102
1700516898628058400,0.463058349609375,-0.031690001487731934,0.10407149791717529,-0.27675679326057434
1700516898638069500,0.473069580078125,-0.011636060662567616,0.03376295790076256,-0.08015536516904831
1700516898648079400,0.483079345703125,0.03614238277077675,0.008927649818360806,0.1721373349428177
1700516898658090200,0.49309033203125,0.04878156632184982,-0.03041708841919899,0.08075091242790222
1700516898668101000,0.50310107421875,-0.021549319848418236,0.04286618158221245,-0.24575476348400116
1700516898678112000,0.513112060546875,-0.016392650082707405,0.03215093910694122,0.019723381847143173
1700516898688122000,0.5231220703125,0.021526768803596497,-0.059291355311870575,0.08877115696668625
1700516898698133200,0.53313330078125,0.019619550555944443,0.24188032746315002,0.060376472771167755
1700516898708144000,0.54314404296875,0.03405095264315605,-0.27464932203292847,0.16421951353549957
1700516898718155300,0.5531552734375,-0.051414404064416885,0.15462666749954224,-0.3292340040206909
1700516898728165000,0.5631650390625,-0.012837182730436325,-0.04234977811574936,-0.034790389239788055
1700516898738176000,0.573176025390625,0.020207466557621956,0.001403974718414247,0.16094563901424408
1700516898748187100,0.583187255859375,0.03438853099942207,-0.0793827474117279,0.028681064024567604
1700516898758198000,0.593197998046875,-0.04832172766327858,0.07391835749149323,-0.2541601359844208
1700516898768209200,0.603209228515625,0.006480533629655838,-0.031378764659166336,0.039191313087940216
1700516898778219300,0.61321923828125,0.028313325718045235,-0.004653300158679485,0.022843772545456886
1700516898788230100,0.623230224609375,0.028782308101654053,0.1898498684167862,0.11199122667312622
1700516898798241000,0.633240966796875,0.05023401975631714,-0.31098923087120056,0.10426705330610275
1700516898808252200,0.643252197265625,-0.057970479130744934,0.23928484320640564,-0.3962032198905945
1700516898818262000,0.653261962890625,0.004994416609406471,-0.0753970742225647,0.01256268098950386
1700516898828273200,0.663273193359375,0.02791198343038559,0.025485068559646606,0.1781575083732605
1700516898838284000,0.673283935546875,0.04975946247577667,-0.07849328964948654,-0.03130372613668442
1700516898848295200,0.683295166015625,-0.06387122720479965,0.10529811680316925,-0.21627305448055267
1700516898858305300,0.69330517578125,0.027458904311060905,-0.08197072148323059,0.08543409407138824
1700516898868316200,0.703316162109375,0.01948752999305725,0.060450874269008636,0.02596225030720234
1700516898878327000,0.7133271484375,0.030451970174908638,0.11716478317975998,0.21635448932647705
1700516898888338200,0.723338134765625,0.009177039377391338,-0.2610999643802643,0.024586118757724762
1700516898898348000,0.73334814453125,-0.04539801552891731,0.2683458924293518,-0.3074479103088379
1700516898908359200,0.743359130859375,0.0004482991062104702,-0.1465570032596588,0.14410889148712158
1700516898918370000,0.7533701171875,0.03217146918177605,0.06646350771188736,0.1921398639678955
1700516898928381200,0.763381103515625,-0.00010977126657962799,-0.07994936406612396,-0.07756990194320679
1700516898938392000,0.77339208984375,-0.0636005699634552,0.12652075290679932,-0.12410690635442734
1700516898948402200,0.783402099609375,0.032485481351614,-0.14227209985256195,0.14014019072055817
1700516898958413000,0.7934130859375,0.0037524928338825703,0.1417006254196167,0.02182093635201454
1700516898968424200,0.803424072265625,0.01480141468346119,-0.05864472687244415,0.2228001058101654
1700516898978435000,0.81343505859375,-0.01834527961909771,-0.13056260347366333,-0.11781131476163864
1700516898988445000,0.82344482421875,-0.03924603387713432,0.17568041384220123,-0.22265782952308655
1700516898998456000,0.8334560546875,0.00967785157263279,-0.14097873866558075,0.17065191268920898
1700516899008467200,0.84346728515625,0.03202443569898605,0.038002192974090576,0.11921083182096481
1700516899018478000,0.85347802734375,-0.019749509170651436,-0.09020838141441345,-0.18829628825187683
1700516899028488200,0.86348828125,-0.04528815671801567,0.1104046106338501,-0.07947685569524765
1700516899038499000,0.8734990234375,0.024415241554379463,-0.14947369694709778,0.12968836724758148
1700516899048510000,0.883510009765625,0.0009165747324004769,0.22886773943901062,0.02286737971007824
1700516899058521000,0.89352099609375,0.0169445239007473,-0.19401562213897705,0.21948587894439697
1700516899068531000,0.903531005859375,-0.04098961502313614,0.03687511011958122,-0.2515069246292114
1700516899078542300,0.913542236328125,-0.035247694700956345,0.03725236654281616,-0.1179376095533371
1700516899088553200,0.92355322265625,0.01208067499101162,-0.047158923000097275,0.16380220651626587
1700516899098564000,0.933564208984375,0.029038166627287865,-0.050913721323013306,0.09817267209291458
1700516899108575200,0.9435751953125,-0.044421132653951645,-0.012124779634177685,-0.25257495045661926
1700516899118585000,0.953585205078125,-0.03399078547954559,0.03311539441347122,-0.015546885319054127
1700516899128596000,0.963595947265625,0.011500535532832146,-0.10930459946393967,0.11784578859806061
1700516899138607000,0.973607177734375,0.008630584925413132,0.22582188248634338,0.045469533652067184
1700516899148618200,0.9836181640625,0.015536428429186344,-0.26557183265686035,0.20395025610923767
1700516899158628400,0.99362841796875,-0.04656342789530754,0.16676068305969238,-0.3032554090023041
1700516899168639200,1.00363916015625,-0.018349366262555122,-0.037880610674619675,-0.005320143885910511
1700516899178650000,1.013650146484375,0.02542826347053051,0.019956201314926147,0.1905892938375473
1700516899188661000,1.023660888671875,0.029361752793192863,-0.05920572951436043,0.05006679892539978
1700516899198672100,1.033672119140625,-0.050112731754779816,0.06846462935209274,-0.24436421692371368
1700516899208682000,1.043681884765625,0.006354538723826408,-0.045625459402799606,0.07112877070903778
1700516899218693000,1.053693115234375,0.005468879826366901,-0.016882918775081635,0.07260234653949738
1700516899228704300,1.063704345703125,0.02336558885872364,0.1761922687292099,0.06938524544239044
1700516899238715100,1.073715087890625,-0.00034958391916006804,-0.3165884017944336,0.13306929171085358
1700516899248725200,1.083725341796875,-0.03521888330578804,0.2093704789876938,-0.318466454744339
1700516899258736000,1.093736083984375,-0.023077301681041718,-0.12828972935676575,0.05364759638905525
1700516899268747000,1.1037470703125,0.014922809787094593,0.06912508606910706,0.16622315347194672
1700516899278758100,1.113758056640625,0.020714469254016876,-0.1291818767786026,-0.01176221389323473
1700516899288768000,1.12376806640625,-0.060834720730781555,0.08964979648590088,-0.23930563032627106
1700516899298779100,1.133779052734375,0.012000356800854206,-0.12416847050189972,0.08938144892454147
1700516899308790300,1.143790283203125,-0.004045987036079168,0.012470340356230736,0.005175495054572821
1700516899318801200,1.15380126953125,0.021820181980729103,0.10222148150205612,0.10393893718719482
1700516899328811300,1.163811279296875,-0.011950033716857433,-0.3514552116394043,0.048987798392772675
1700516899338822100,1.173822265625,-0.04756378382444382,0.22634465992450714,-0.3462071120738983
1700516899348833000,1.1838330078125,-0.024620117619633675,-0.17186209559440613,0.06488216668367386
1700516899358844200,1.19384423828125,0.0042787594720721245,0.01983475126326084,0.12930475175380707
1700516899368855300,1.203855224609375,-0.008738505654036999,-0.15993660688400269,-0.10805399715900421
1700516899378865000,1.213864990234375,-0.07725851237773895,0.10464207082986832,-0.2483721822500229
1700516899388876300,1.223876220703125,0.00918849091976881,-0.14687006175518036,0.09529970586299896
1700516899398887200,1.23388720703125,-0.008642155677080154,0.02462616376578808,-0.009012756869196892
1700516899408898000,1.24389794921875,0.01593749038875103,0.04541000723838806,0.14453952014446259
1700516899418908200,1.253908203125,-0.009806965477764606,-0.29142725467681885,-0.023000359535217285
1700516899428919000,1.2639189453125,-0.055849023163318634,0.2579793930053711,-0.33775296807289124
1700516899438930000,1.273929931640625,-0.006179069168865681,-0.16229070723056793,0.061916597187519073
1700516899448941300,1.28394140625,0.01739523373544216,0.029775405302643776,0.1328594833612442
1700516899458952200,1.2939521484375,-0.01005181297659874,-0.17194083333015442,-0.12738145887851715
1700516899468962300,1.30396240234375,-0.0675009936094284,0.14625711739063263,-0.26296937465667725
1700516899478973200,1.31397314453125,0.02599000744521618,-0.13868261873722076,0.03704503923654556
1700516899488984000,1.323984130859375,-0.023781809955835342,0.027834977954626083,-0.03679216653108597
1700516899498995000,1.333994873046875,0.015019971877336502,-0.025160180404782295,0.14549760520458221
1700516899509005000,1.344005126953125,-0.04347210004925728,-0.3224576413631439,-0.0982000082731247
1700516899519016000,1.354015869140625,-0.07283664494752884,0.29344016313552856,-0.44701018929481506
1700516899529027300,1.36402734375,0.0005685953656211495,-0.10808515548706055,-0.10607471317052841
1700516899539038200,1.3740380859375,-0.02099640853703022,-0.13984429836273193,0.06765887141227722
1700516899549049000,1.384049072265625,0.015742963179945946,-0.12615378201007843,-0.19822368025779724
1700516899559059200,1.39405908203125,-0.04566498100757599,0.09823939204216003,-0.4842652380466461
1700516899569070000,1.404070068359375,-0.006592679303139448,-0.0337870828807354,-0.29424816370010376
1700516899579081000,1.4140810546875,-0.034932442009449005,-0.14467072486877441,-0.20193317532539368
1700516899589092000,1.424092041015625,-0.003970797173678875,0.11540613323450089,0.06370223313570023
1700516899599102000,1.43410205078125,-0.0251154862344265,0.043764714151620865,0.3354300260543823
1700516899609113300,1.44411328125,-0.012365070171654224,-0.18597261607646942,0.1175680086016655
1700516899619124200,1.454124267578125,-0.004780896008014679,0.14835993945598602,-0.2731121778488159
1700516899629135000,1.464135009765625,-0.03759263828396797,0.02006322331726551,-0.3293197751045227
1700516899639145200,1.474145263671875,0.00945046916604042,-0.10889434814453125,-0.01900196634232998
1700516899649156000,1.484156005859375,-0.03135288506746292,-0.08304890245199203,0.057256054133176804
1700516899659167200,1.494167236328125,-0.01599830389022827,0.1698063760995865,0.06478939950466156
1700516899669178400,1.504178466796875,-0.00003078952431678772,-0.06614915281534195,0.027978919446468353
1700516899679189500,1.514189453125,-0.008709915913641453,0.0030691777355968952,0.10921537131071091
1700516899689199400,1.524199462890625,-0.0020842377562075853,0.04149140045046806,0.14673744142055511
1700516899699210500,1.53421044921875,0.00006053270772099495,-0.04105669632554054,-0.13648934662342072
1700516899709221400,1.544221435546875,-0.027140727266669273,0.06093651056289673,-0.27172785997390747
1700516899719232300,1.554232177734375,-0.04419718310236931,0.023949844762682915,-0.1277845799922943
1700516899729242400,1.564242431640625,0.023149631917476654,-0.05400140956044197,0.17310334742069244
1700516899739253200,1.574253173828125,-0.020644675940275192,-0.01374706532806158,0.12747326493263245
1700516899749264400,1.584264404296875,-0.005368516780436039,0.12470003217458725,0.035408586263656616
1700516899759275500,1.594275634765625,0.0007319508586078882,-0.06911643594503403,-0.06865400820970535
1700516899769286400,1.604286376953125,0.022169865667819977,0.25540971755981445,0.23793096840381622
1700516899779296500,1.614296630859375,0.012898033484816551,-0.21105656027793884,0.160048246383667
1700516899789307400,1.624307373046875,-0.03912309184670448,0.014549659565091133,-0.21221798658370972
1700516899799318300,1.634318359375,0.013362236320972443,0.4475410580635071,0.1316646933555603
1700516899809329200,1.6443291015625,0.03973764926195145,-0.3392437994480133,0.26016753911972046
1700516899819339300,1.65433935546875,-0.018503447994589806,-0.013416165485978127,-0.07428783178329468
1700516899829350400,1.664350341796875,-0.030708981677889824,0.39999696612358093,-0.014369109645485878
1700516899839361500,1.674361572265625,0.05664105713367462,-0.2827569544315338,0.08227649331092834
1700516899849372400,1.684372314453125,-0.005610598251223564,0.2938016951084137,0.020166782662272453
1700516899859383300,1.69438330078125,0.04076910391449928,-0.16372312605381012,0.3240894079208374
1700516899869393400,1.704393310546875,-0.015316269360482693,-0.16500064730644226,-0.082847461104393
1700516899879404300,1.714404296875,-0.04170608893036842,0.4494059681892395,-0.21220329403877258
1700516899889415200,1.724415283203125,0.05193118751049042,-0.20329992473125458,0.1682572364807129
1700516899899426600,1.734426513671875,0.015919648110866547,-0.0777365192770958,0.1319534182548523
1700516899909436400,1.7444365234375,-0.0323333665728569,0.08641114085912704,-0.12879136204719543
1700516899919447300,1.754447265625,0.0019811447709798813,-0.004125642124563456,0.016377774998545647
1700516899929458400,1.76445849609375,0.03146340325474739,-0.03212345391511917,-0.01055796816945076
1700516899939469300,1.77446923828125,0.009204994887113571,0.2107001394033432,0.09537168592214584
1700516899949480200,1.784480224609375,0.04669830948114395,-0.39488485455513,0.2779060900211334
1700516899959490300,1.794490234375,-0.04610113799571991,0.19775664806365967,-0.26569730043411255
1700516899969501200,1.804501220703125,-0.03582000359892845,0.15339849889278412,-0.08060760051012039
1700516899979512600,1.8145126953125,0.06976639479398727,-0.17634330689907074,0.21567878127098083
1700516899989523500,1.8245234375,0.021155988797545433,-0.029177289456129074,0.0021883356384932995
1700516899999533300,1.834533203125,-0.05087757855653763,0.10323398560285568,-0.15356607735157013
1700516900009544400,1.84454443359375,0.022818483412265778,-0.05329330638051033,0.03528132662177086
1700516900019555300,1.854555419921875,0.012805668637156487,0.015484031289815903,0.03882646560668945
1700516900029566200,1.864566162109375,0.004870248027145863,0.14076551795005798,0.21206030249595642
1700516900039577600,1.87457763671875,0.02817637473344803,-0.36544832587242126,0.077068991959095
1700516900049587500,1.88458740234375,-0.07061810791492462,0.3585072457790375,-0.3229931890964508
1700516900059598300,1.894598388671875,-0.014711170457303524,-0.10729080438613892,0.05816774070262909
1700516900069609500,1.904609375,0.0521441325545311,-0.042480625212192535,0.20680393278598785
1700516900079620400,1.914620361328125,-0.012027788907289505,-0.07617612183094025,-0.09789584577083588
1700516900089631200,1.92463134765625,-0.0693078562617302,0.17955338954925537,-0.14154452085494995
1700516900099641300,1.934641357421875,0.02362459897994995,-0.1500828117132187,0.047646958380937576
1700516900109652200,1.94465234375,0.021619772538542747,0.1829145848751068,0.013918556272983551
1700516900119663400,1.954663330078125,0.03652840107679367,-0.09128821641206741,0.24531647562980652
1700516900129674500,1.964674560546875,-0.0077759455889463425,-0.15183597803115845,-0.1450536698102951
1700516900139684400,1.974684326171875,-0.06610476970672607,0.3280504643917084,-0.2554352879524231
1700516900149695500,1.984695556640625,0.04351067915558815,-0.16352884471416473,0.14715102314949036
1700516900159706400,1.994706298828125,0.03563092276453972,-0.04833000898361206,0.13490748405456543
1700516900169717200,2.00471728515625,-0.03724275156855583,-0.0035367021337151527,-0.18497809767723083
1700516900179728400,2.014728271484375,-0.04373820498585701,0.12197559326887131,-0.05539647862315178
1700516900189738200,2.02473828125,0.032383993268013,-0.10547993332147598,0.07763427495956421
1700516900199749400,2.034749267578125,0.028767989948391914,0.2662474811077118,0.11145418882369995
1700516900209760500,2.044760498046875,0.03260507062077522,-0.35682249069213867,0.1906725913286209
1700516900219771400,2.054771484375,-0.03528626263141632,0.23729699850082397,-0.27987679839134216
1700516900229781500,2.064781494140625,-0.030030246824026108,0.07697869092226028,-0.05756062641739845
1700516900239792400,2.07479248046875,0.07172973453998566,-0.0850585326552391,0.23520372807979584
1700516900249803300,2.08480322265625,-0.005854277405887842,-0.07793270796537399,0.016614925116300583
1700516900259814100,2.094814208984375,-0.055996716022491455,0.1337268203496933,-0.18249396979808807
1700516900269825500,2.104825439453125,0.02165680192410946,-0.09610451757907867,0.035489771515131
1700516900279835400,2.11483544921875,0.013490701094269753,0.08044835925102234,0.03219486027956009
1700516900289846500,2.124846435546875,0.011474154889583588,-0.010145456530153751,0.24056696891784668
1700516900299857400,2.134857421875,-0.003426923183724284,-0.1983955055475235,-0.047660984098911285
1700516900309868300,2.144868408203125,-0.06685516983270645,0.2740737497806549,-0.25382691621780396
1700516900319879200,2.154879150390625,0.022234048694372177,-0.08028104156255722,0.09204272925853729
1700516900329889300,2.16488916015625,0.05396028980612755,-0.036196399480104446,0.21325330436229706
1700516900339900200,2.174900146484375,-0.021705148741602898,-0.03852903097867966,-0.15045136213302612
1700516900349911600,2.18491162109375,-0.04182426631450653,0.16280461847782135,-0.09919856488704681
1700516900359922400,2.19492236328125,0.0359499566257,-0.1082756519317627,0.08047472685575485
1700516900369933300,2.204933349609375,0.03147424757480621,0.2466166615486145,0.0857110321521759
1700516900379943400,2.214943359375,0.03008441999554634,-0.28020942211151123,0.22083984315395355
1700516900389954300,2.224954345703125,-0.025868328288197517,0.15501047670841217,-0.24760325253009796
1700516900399965200,2.234965087890625,-0.04134116321802139,0.08005842566490173,-0.09437444806098938
1700516900409976600,2.2449765625,0.06531549990177155,-0.044792965054512024,0.21007652580738068
1700516900419986400,2.254986328125,0.017259294167160988,-0.10029972344636917,0.09680769592523575
1700516900429997600,2.26499755859375,-0.05077728256583214,0.12614141404628754,-0.2092406451702118
1700516900440008400,2.275008544921875,0.01114608719944954,-0.05019155889749527,0.029231660068035126
1700516900450019300,2.285019287109375,0.02064664661884308,0.0034104199148714542,0.028798894956707954
1700516900460030200,2.2950302734375,-0.007008261978626251,0.05621360242366791,0.1910770982503891
1700516900470040300,2.305040283203125,0.021984508261084557,-0.24297362565994263,0.016092244535684586
1700516900480051200,2.31505126953125,-0.06946111470460892,0.24162593483924866,-0.2873726189136505
1700516900490062600,2.3250625,0.0048567927442491055,-0.08723289519548416,0.04177331179380417
1700516900500073500,2.335073486328125,0.04580870643258095,-0.025401892140507698,0.20960788428783417
1700516900510084400,2.34508447265625,-0.012209055945277214,-0.11901653558015823,-0.0923842042684555
1700516900520094500,2.355094482421875,-0.06315421313047409,0.18758773803710938,-0.17045877873897552
1700516900530105300,2.365105224609375,0.01983094960451126,-0.18516746163368225,0.09593135863542557
1700516900540116200,2.3751162109375,-0.00194713962264359,0.15182743966579437,0.034544531255960464
1700516900550127400,2.38512744140625,0.014923187904059887,-0.12528352439403534,0.2205439656972885
1700516900560137200,2.39513720703125,-0.020368948578834534,-0.068410225212574,-0.16061215102672577
1700516900570148400,2.4051484375,-0.06370577216148376,0.18023954331874847,-0.19884449243545532
1700516900580159500,2.415159423828125,0.04182105138897896,-0.09735173732042313,0.1437099725008011
1700516900590170400,2.42517041015625,0.03118038736283779,-0.0448930561542511,0.17929832637310028
1700516900600181200,2.43518115234375,-0.021549304947257042,-0.030033323913812637,-0.187851682305336
1700516900610191400,2.44519140625,-0.04999106749892235,0.15699675679206848,-0.09571963548660278
1700516900620202200,2.4552021484375,0.028392218053340912,-0.16345062851905823,0.12577933073043823
1700516900630213400,2.46521337890625,-0.002985412487760186,0.23421631753444672,0.04746615141630173
1700516900640224500,2.475224609375,0.04004833847284317,-0.22788819670677185,0.23424695432186127
1700516900650235400,2.4852353515625,-0.03872796520590782,0.10284711420536041,-0.2639133036136627
1700516900660246000,2.49524609375,-0.04263699799776077,0.1121283620595932,-0.11463405191898346
1700516900670257000,2.5052568359375,0.051047418266534805,-0.09409192204475403,0.20555727183818817
1700516900680267800,2.515267822265625,0.028059273958206177,-0.03269699960947037,0.11314611881971359
1700516900690278700,2.525278564453125,-0.04034002125263214,0.027774332091212273,-0.22621969878673553
1700516900700289800,2.535289794921875,-0.02098672278225422,0.06805732846260071,-0.03370580077171326
1700516900710299600,2.545299560546875,0.025246551260352135,-0.10912011563777924,0.107032410800457
1700516900720310800,2.555310791015625,0.013888627290725708,0.24101296067237854,0.07296603173017502
1700516900730322000,2.565322021484375,0.045998893678188324,-0.3155789375305176,0.17646341025829315
1700516900740332800,2.575332763671875,-0.055180612951517105,0.23785074055194855,-0.3347398340702057
1700516900750343700,2.58534375,-0.02687307447195053,-0.008611762896180153,-0.03817315772175789
1700516900760353800,2.595353759765625,0.0488639660179615,-0.033796366304159164,0.20905327796936035
1700516900770364700,2.60536474609375,0.026687027886509895,-0.06156035512685776,0.0563068762421608
1700516900780375800,2.615375732421875,-0.05381787568330765,0.08669637888669968,-0.2335738092660904
1700516900790386700,2.62538671875,-0.004275087732821703,0.004361825995147228,0.02049734815955162
1700516900800397800,2.635397705078125,0.026525843888521194,-0.05429486930370331,0.09869654476642609
1700516900810408000,2.645407958984375,0.016298240050673485,0.2138119488954544,0.10301566123962402
1700516900820418800,2.655418701171875,0.04192742332816124,-0.378088116645813,0.14149658381938934
1700516900830429700,2.6654296875,-0.05803326144814491,0.3173617720603943,-0.372667133808136
1700516900840440800,2.67544091796875,-0.022807788103818893,-0.09966526925563812,0.02868732623755932
1700516900850450700,2.68545068359375,0.05254501849412918,-0.0023411186411976814,0.21244677901268005
1700516900860461800,2.6954619140625,0.014387264847755432,-0.08521360903978348,-0.0009082281030714512
1700516900870472700,2.70547265625,-0.06062466278672218,0.12947630882263184,-0.22846361994743347
1700516900880483800,2.71548388671875,0.014006666839122772,-0.06528343260288239,0.06085144728422165
1700516900890494700,2.72549462890625,0.029749145731329918,0.00742246164008975,0.07609138637781143
1700516900900504800,2.7355048828125,0.014951009303331375,0.16278938949108124,0.14726926386356354
1700516900910515700,2.745515625,0.027298489585518837,-0.36267465353012085,0.059919990599155426
1700516900920526800,2.75552685546875,-0.05924948304891586,0.3439900577068329,-0.3735872805118561
1700516900930537700,2.765537841796875,-0.008268855512142181,-0.16752223670482635,0.0703563392162323
1700516900940548900,2.775548828125,0.04781119152903557,0.036457255482673645,0.20778131484985352
1700516900950559000,2.78555908203125,-0.005812356248497963,-0.12552179396152496,-0.0627676248550415
1700516900960569900,2.79556982421875,-0.0658847838640213,0.18112902343273163,-0.21900343894958496
1700516900970580700,2.805580810546875,0.02540465071797371,-0.14863556623458862,0.10292398929595947
1700516900980591900,2.815591796875,0.021319568157196045,0.09244275838136673,0.06699733436107635
1700516900990602800,2.825602783203125,0.026959344744682312,0.04822469502687454,0.2054167240858078
1700516901000612600,2.835612548828125,0.006211982108652592,-0.2510586082935333,-0.04540735483169556
1700516901010623700,2.845623779296875,-0.060169171541929245,0.3042038083076477,-0.3160444498062134
1700516901020635000,2.855634765625,0.015128597617149353,-0.18483997881412506,0.11175928264856339
1700516901030645800,2.865645751953125,0.04159802198410034,0.043402232229709625,0.19107168912887573
1700516901040657000,2.875656982421875,-0.018144717440009117,-0.14259174466133118,-0.12191310524940491
1700516901050666800,2.885666748046875,-0.07111072540283203,0.21085739135742188,-0.1954355239868164
1700516901060678000,2.895677978515625,0.031946565955877304,-0.20844915509223938,0.13586340844631195
1700516901070688800,2.905688720703125,0.0020275507122278214,0.17467959225177765,0.06060567498207092
1700516901080699600,2.91569970703125,0.0258367620408535,-0.06604743748903275,0.23243382573127747
1700516901090710800,2.925710693359375,-0.014847817830741405,-0.14052832126617432,-0.14797422289848328
1700516901100721000,2.935720947265625,-0.05934547632932663,0.2587193250656128,-0.26451486349105835
1700516901110731800,2.945731689453125,0.029430197551846504,-0.1904054880142212,0.15402859449386597
1700516901120743000,2.955742919921875,0.03236916661262512,0.015437861904501915,0.1595703512430191
1700516901130753800,2.96575390625,-0.022598212584853172,-0.09618081152439117,-0.19066275656223297
1700516901140764700,2.9757646484375,-0.0627540796995163,0.18734462559223175,-0.14029592275619507
1700516901150774800,2.98577490234375,0.03267417848110199,-0.20942775905132294,0.147957444190979
1700516901160785700,2.99578564453125,0.001353495754301548,0.23794251680374146,0.05738980323076248
1700516901170796800,3.005796875,0.03394472971558571,-0.1698172688484192,0.25233426690101624
1700516901180808000,3.015807861328125,-0.03484322130680084,-0.01680012233555317,-0.23948395252227783
1700516901190818800,3.02581884765625,-0.048762500286102295,0.21167486906051636,-0.19298063218593597
1700516901200828700,3.03582861328125,0.054783549159765244,-0.16120830178260803,0.21272240579128265
1700516901210839800,3.04583984375,0.04328775033354759,0.030489493161439896,0.1250585913658142
1700516901220850700,3.0558505859375,-0.028004713356494904,-0.027667898684740067,-0.22238494455814362
1700516901230861800,3.06586181640625,-0.03358936309814453,0.1400795578956604,-0.06579772382974625
1700516901240873000,3.075873046875,0.031032320111989975,-0.15048570930957794,0.13687822222709656
1700516901250882800,3.0858828125,0.011971809901297092,0.28108274936676025,0.04876621067523956
1700516901260893700,3.095893798828125,0.045946840196847916,-0.3156242072582245,0.2097419798374176
1700516901270904800,3.10590478515625,-0.0485738068819046,0.17369592189788818,-0.3451382517814636
1700516901280915700,3.115915771484375,-0.03654606267809868,0.07066073268651962,-0.09776239842176437
1700516901290926600,3.125926513671875,0.06444766372442245,-0.09316495060920715,0.21612201631069183
1700516901300936700,3.135936767578125,0.025457601994276047,-0.037409234791994095,0.02883625403046608
1700516901310947800,3.14594775390625,-0.05011118948459625,0.044004134833812714,-0.2639756202697754
1700516901320959000,3.155958984375,-0.007106324192136526,0.02574511058628559,0.011798357591032982
1700516901330969900,3.165969970703125,0.039037201553583145,-0.0733572319149971,0.10469793528318405
1700516901340980700,3.175980712890625,0.018488096073269844,0.24322162568569183,0.12803272902965546
1700516901350990800,3.185990966796875,0.030877918004989624,-0.38716378808021545,0.09998404234647751
1700516901361001700,3.196001708984375,-0.05357087031006813,0.32783570885658264,-0.36811843514442444
1700516901371012600,3.2060126953125,-0.013579778373241425,-0.10123975574970245,0.03477786108851433
1700516901381024000,3.21602392578125,0.057982273399829865,0.01697687990963459,0.2244994342327118
1700516901391035000,3.226034912109375,0.0006577321328222752,-0.1174648106098175,-0.0519057922065258
1700516901401044700,3.236044677734375,-0.07440466433763504,0.14913079142570496,-0.24368183314800262
1700516901411055900,3.246055908203125,0.02481885440647602,-0.12793543934822083,0.08713923394680023
1700516901421066800,3.256066650390625,0.02036844566464424,0.05839475244283676,0.08148134499788284
1700516901431077600,3.26607763671875,0.01283968985080719,0.064476877450943,0.21607644855976105
1700516901441088800,3.2760888671875,-0.002407756168395281,-0.2727711498737335,-0.06473474949598312
1700516901451098600,3.2860986328125,-0.06497073918581009,0.32914984226226807,-0.31298235058784485
1700516901461109800,3.29610986328125,0.026567483320832253,-0.1893775761127472,0.1407392919063568
1700516901471121000,3.306120849609375,0.03956157714128494,0.015373163856565952,0.19124054908752441
1700516901481131800,3.3161318359375,-0.026262426748871803,-0.11175414174795151,-0.16258074343204498
1700516901491142700,3.326142578125,-0.06725166738033295,0.1992734968662262,-0.16348250210285187
1700516901501152800,3.33615283203125,0.03237547725439072,-0.20042918622493744,0.1382303684949875
1700516901511163600,3.34616357421875,0.010469379834830761,0.23438726365566254,0.06294600665569305
1700516901521174800,3.3561748046875,0.02495846524834633,-0.20228755474090576,0.2383001297712326
1700516901531186000,3.36618603515625,-0.03176340460777283,0.018245620653033257,-0.25181764364242554
1700516901541196800,3.37619677734375,-0.05395759269595146,0.1602412611246109,-0.16681315004825592
1700516901551207000,3.38620703125,0.05736041069030762,-0.12548156082630157,0.20227034389972687
1700516901561217800,3.3962177734375,0.02033965103328228,-0.046698231250047684,0.11048121750354767
1700516901571228700,3.406228759765625,-0.04471658170223236,0.008374076336622238,-0.25428423285484314
1700516901581239800,3.41623974609375,-0.03567992523312569,0.09028201550245285,-0.038149114698171616
1700516901591251000,3.4262509765625,0.02983197197318077,-0.11492466926574707,0.130696102976799
1700516901601261800,3.43626171875,0.02269800379872322,0.2545444667339325,0.12253229320049286
1700516901611272000,3.44627197265625,0.02414037100970745,-0.3565777540206909,0.14557422697544098
1700516901621282800,3.45628271484375,-0.04464248567819595,0.2874852418899536,-0.3390064239501953
1700516901631293700,3.466293701171875,-0.025566792115569115,-0.05752888694405556,0.00008879881352186203
1700516901641304800,3.476304931640625,0.06242329254746437,0.011410174891352654,0.22746217250823975
1700516901651315700,3.486315673828125,0.0015764490235596895,-0.12709923088550568,-0.006120216567069292
1700516901661325300,3.4963251953125,-0.0580642968416214,0.15878209471702576,-0.2681420147418976
1700516901671336200,3.506336181640625,0.026357376947999,-0.094480000436306,0.057160720229148865
1700516901681347000,3.51634716796875,0.029291274026036263,0.03658771887421608,0.06999677419662476
1700516901691358200,3.526358154296875,0.00974979717284441,0.06945565342903137,0.19324679672718048
1700516901701369300,3.536369384765625,0.008965262211859226,-0.27462196350097656,-0.042183201760053635
1700516901711379200,3.546379150390625,-0.05839087441563606,0.3152623474597931,-0.3246482014656067
1700516901721390300,3.556390380859375,0.016396600753068924,-0.16585983335971832,0.08832396566867828
1700516901731401200,3.566401123046875,0.04837610572576523,0.019489793106913567,0.19436118006706238
1700516901741412000,3.576412109375,-0.01496930792927742,-0.12989667057991028,-0.13348080217838287
1700516901751423200,3.58642333984375,-0.06622769683599472,0.2236669808626175,-0.21230265498161316
1700516901761433300,3.596433349609375,0.038008399307727814,-0.1938931792974472,0.11180219054222107
1700516901771444200,3.6064443359375,0.010298741050064564,0.18436384201049805,0.06213104724884033
1700516901781455400,3.616455322265625,0.03769315406680107,-0.10091673582792282,0.21901389956474304
1700516901791466200,3.62646630859375,-0.02249188721179962,-0.08922306448221207,-0.18803562223911285
1700516901801477000,3.63647705078125,-0.0561470203101635,0.23669737577438354,-0.23825421929359436
1700516901811487200,3.6464873046875,0.05901525542140007,-0.1374405324459076,0.16360612213611603
1700516901821498000,3.656498046875,0.04249880835413933,-0.001313552143983543,0.15031692385673523
1700516901831509200,3.66650927734375,-0.023567290976643562,-0.07721231132745743,-0.2154352217912674
1700516901841520400,3.676520263671875,-0.06342990696430206,0.1827775537967682,-0.13876931369304657
1700516901851531300,3.68653125,0.03840084746479988,-0.1573086380958557,0.11326932162046432
1700516901861541400,3.696541259765625,0.015052789822220802,0.23939117789268494,0.07003231346607208
1700516901871552300,3.70655224609375,0.03371515870094299,-0.2171372026205063,0.2084658145904541
1700516901881563100,3.716563232421875,-0.04770226404070854,0.018566777929663658,-0.2856612205505371
1700516901891574300,3.72657421875,-0.05166078731417656,0.1741102933883667,-0.17184890806674957
1700516901901585400,3.73658544921875,0.04161564260721207,-0.1563890427350998,0.2222122848033905
1700516901911595300,3.74659521484375,0.012841788120567799,-0.03210996463894844,0.14088040590286255
1700516901921606400,3.7566064453125,-0.053606871515512466,-0.04356035217642784,-0.21625381708145142
1700516901931617300,3.7666171875,-0.028202444314956665,0.13319551944732666,-0.07105188071727753
1700516901941628200,3.776628173828125,0.02481183595955372,-0.13429561257362366,0.11424998939037323
1700516901951639300,3.786639404296875,0.017454320564866066,0.23116812109947205,0.10855508595705032
1700516901961649200,3.796649169921875,0.02945692278444767,-0.3239805996417999,0.23252202570438385
1700516901971660000,3.806659912109375,-0.04912763461470604,0.20926602184772491,-0.3190939724445343
1700516901981671400,3.81667138671875,-0.034863632172346115,0.04918910935521126,-0.05610213801264763
1700516901991682300,3.826682373046875,0.03225521743297577,-0.07736749947071075,0.2343752384185791
1700516902001693200,3.836693115234375,0.01761525310575962,-0.05626721680164337,0.09960795193910599
1700516902011704300,3.846704345703125,-0.05335399508476257,0.05714189633727074,-0.21655534207820892
1700516902021714200,3.856714111328125,-0.002501762704923749,0.012766145169734955,0.009622093290090561
1700516902031725000,3.86672509765625,0.020409144461154938,-0.07285287976264954,0.06490026414394379
1700516902041736200,3.876736083984375,0.005281980615109205,0.15588073432445526,0.11255913227796555
1700516902051747300,3.886747314453125,0.0033080456778407097,-0.41652607917785645,0.15225914120674133
1700516902061758200,3.89675830078125,-0.023270802572369576,0.3452773988246918,-0.3477271497249603
1700516902071768300,3.906768310546875,-0.01795060560107231,-0.06398440152406693,0.005639700684696436
1700516902081779200,3.916779296875,0.03603464737534523,-0.028676075860857964,0.2305004894733429
1700516902091790000,3.9267900390625,0.003108653938397765,-0.10367122292518616,0.012468826025724411
1700516902101801200,3.93680126953125,-0.052017536014318466,0.15057231485843658,-0.21071970462799072
1700516902111812400,3.946812255859375,0.015493595972657204,-0.07879241555929184,0.06756758689880371
1700516902121822500,3.956822509765625,0.026800358667969704,0.0226853359490633,0.06063748896121979
1700516902131833300,3.966833251953125,0.014547420665621758,0.1102633848786354,0.16362139582633972
1700516902141844200,3.97684423828125,0.018976930528879166,-0.33602526783943176,0.027199581265449524
1700516902151855000,3.986855224609375,-0.05845820531249046,0.3573462963104248,-0.3526361584663391
1700516902161866200,3.9968662109375,0.007302520796656609,-0.17339302599430084,0.0768304318189621
1700516902171876000,4.0068759765625,0.03528755158185959,0.032188884913921356,0.19889962673187256
1700516902181887200,4.01688720703125,-0.022219041362404823,-0.1624893993139267,-0.07326649129390717
1700516902191898400,4.0268984375,-0.061649538576602936,0.22509294748306274,-0.20596647262573242
1700516902201909200,4.0369091796875,0.024027036502957344,-0.17347830533981323,0.10997544229030609
1700516902211920400,4.04692041015625,0.0035931344609707594,0.10896030813455582,0.045964766293764114
1700516902221930200,4.05693017578125,0.01241005677729845,-0.016665348783135414,0.2128562331199646
1700516902231941000,4.066941162109375,-0.005313812755048275,-0.24702052772045135,-0.08083983510732651
1700516902241952300,4.0769521484375,-0.06358050554990768,0.32991382479667664,-0.32130032777786255
1700516902251963100,4.086963134765625,0.0066097695380449295,-0.1982530951499939,0.09708864986896515
1700516902261974300,4.096974365234375,0.025315767154097557,0.012923819944262505,0.18216580152511597
1700516902271984400,4.106984375,-0.025057123973965645,-0.1352912038564682,-0.11581530421972275
1700516902281995300,4.116995361328125,-0.04351725056767464,0.25763556361198425,-0.16902273893356323
1700516902292006100,4.127006103515625,0.028165990486741066,-0.1953209638595581,0.10626927763223648
1700516902302017300,4.137017333984375,-0.010882090777158737,0.1920807957649231,0.02682117000222206
1700516902312028200,4.147028076171875,0.01678895205259323,-0.11259095370769501,0.26032155752182007
1700516902322038300,4.157038330078125,-0.01868581958115101,-0.1481655091047287,-0.10730483382940292
1700516902332049200,4.167049072265625,-0.034246135503053665,0.30689308047294617,-0.28667113184928894
1700516902342060300,4.177060302734375,0.0046212212182581425,-0.1792363077402115,0.09422402083873749
1700516902352071200,4.1870712890625,0.024183470755815506,-0.00873381458222866,0.17485149204730988
1700516902362082300,4.197082275390625,-0.016823353245854378,-0.07536326348781586,-0.11646509170532227
1700516902372092200,4.207092041015625,-0.045206259936094284,0.15977121889591217,-0.11203385144472122
1700516902382103300,4.217103271484375,0.02134930156171322,-0.15724565088748932,0.04902902618050575
1700516902392114200,4.2271142578125,-0.024228835478425026,0.21685364842414856,0.005365964490920305
1700516902402125300,4.237125244140625,0.03788076341152191,-0.20048163831233978,0.29944881796836853
1700516902412136200,4.24713623046875,-0.04060366004705429,-0.11088065057992935,-0.17741814255714417
1700516902422147300,4.257147216796875,-0.03210825100541115,0.3687187135219574,-0.31471240520477295
1700516902432157200,4.2671572265625,0.01423873845487833,-0.23179668188095093,0.10277749598026276
1700516902442168300,4.277168212890625,0.00778792193159461,-0.005208295304328203,0.15131935477256775
1700516902452179200,4.28717919921875,-0.008215013891458511,-0.035532113164663315,-0.12828034162521362
1700516902462190000,4.297190185546875,-0.03739459440112114,0.12437894940376282,-0.07255902886390686
1700516902472201500,4.307201416015625,0.014993779361248016,-0.1233978196978569,0.023267367854714394
1700516902482211300,4.31721142578125,-0.009689025580883026,0.2678404152393341,0.056097742170095444
1700516902492222200,4.32722216796875,0.034660860896110535,-0.3462991714477539,0.3562282621860504
1700516902502233300,4.3372333984375,-0.023781629279255867,0.08191996067762375,-0.22310222685337067
1700516902512244200,4.347244140625,-0.04683768004179001,0.2549484372138977,-0.2649655342102051
1700516902522255000,4.357255126953125,0.005165004637092352,-0.1888023316860199,0.15032149851322174
1700516902532265200,4.36726513671875,0.006921625696122646,-0.09500765055418015,0.12108905613422394
1700516902542276000,4.377276123046875,-0.0018636693712323904,0.082577183842659,-0.15713973343372345
1700516902552287200,4.387287353515625,-0.016690552234649658,0.028650304302573204,-0.029595617204904556
1700516902562298400,4.39729833984375,0.013129282742738724,-0.057838890701532364,0.03291979059576988
1700516902572309200,4.407309326171875,-0.0036411748733371496,0.22625994682312012,0.13453109562397003
1700516902582319400,4.4173193359375,0.027850015088915825,-0.49707162380218506,0.27376633882522583
1700516902592330200,4.427330322265625,-0.022531665861606598,0.286147803068161,-0.3370029926300049
1700516902602341000,4.437341064453125,-0.06699693202972412,0.10610277950763702,-0.17925959825515747
1700516902612352300,4.447352294921875,0.03922697901725769,-0.15927162766456604,0.19485488533973694
1700516902622362000,4.457362060546875,-0.004111708607524633,-0.10439081490039825,0.026334306225180626
1700516902632373200,4.467373291015625,-0.021054284647107124,0.15830448269844055,-0.2035205364227295
1700516902642384400,4.47738427734375,-0.0010989533038809896,-0.09074342995882034,-0.00518800737336278
1700516902652395300,4.487395263671875,0.01389757264405489,0.10215066373348236,0.03970516473054886
1700516902662407000,4.497406982421875,0.029608219861984253,0.06514109671115875,0.27463996410369873
1700516902672417000,4.5074169921875,0.019759315997362137,-0.3308560252189636,0.09328456223011017
1700516902682428000,4.517427978515625,-0.06320825964212418,0.39836621284484863,-0.3333001434803009
1700516902692438800,4.527438720703125,-0.01195492222905159,-0.061521220952272415,0.07626204937696457
1700516902702450000,4.537449951171875,0.04948620870709419,-0.05026736110448837,0.2373875081539154
1700516902712460800,4.547460693359375,-0.031315695494413376,-0.04839968681335449,-0.068362295627594
1700516902722472000,4.557471923828125,-0.058898571878671646,0.15152543783187866,-0.09821590781211853
1700516902732482000,4.56748193359375,0.015338906086981297,-0.13617585599422455,0.09074575453996658
1700516902742493000,4.577492919921875,0.007929148152470589,0.22757193446159363,0.04403584450483322
1700516902752503800,4.58750390625,0.024696942418813705,-0.22825470566749573,0.2834910452365875
1700516902762515000,4.597514892578125,-0.012761670164763927,0.007618532050400972,-0.1786584109067917
1700516902772524800,4.60752490234375,-0.061749719083309174,0.16945110261440277,-0.20523755252361298
1700516902782535700,4.61753564453125,0.03715451806783676,-0.05851917713880539,0.159148171544075
1700516902792547000,4.627547119140625,0.02751760371029377,-0.10814078897237778,0.14568641781806946
1700516902802558000,4.637557861328125,-0.044670604169368744,0.04888412728905678,-0.17741982638835907
1700516902812568800,4.64756884765625,-0.030901262536644936,0.051023710519075394,-0.02578635700047016
1700516902822579000,4.657578857421875,0.011076811701059341,-0.03181932494044304,0.09115272015333176
1700516902832589800,4.66758984375,0.019516635686159134,0.21246711909770966,0.12882685661315918
1700516902842600700,4.6776005859375,0.01294151321053505,-0.3451994061470032,0.16734877228736877
1700516902852611800,4.68761181640625,-0.038895584642887115,0.2576688826084137,-0.3195013105869293
1700516902862623000,4.697623046875,-0.03583788499236107,0.014684068970382214,-0.04590539634227753
1700516902872633000,4.707633056640625,0.06534519046545029,-0.0034001274034380913,0.21243266761302948
1700516902882644000,4.71764404296875,0.0057676308788359165,-0.10412139445543289,0.006111616734415293
1700516902892654800,4.72765478515625,-0.051296722143888474,0.1734638810157776,-0.21685382723808289
1700516902902665700,4.737665771484375,0.030132533982396126,-0.10417138040065765,0.06810663640499115
1700516902912676900,4.7476767578125,0.03123508207499981,0.10075140744447708,0.051094092428684235
1700516902922686700,4.757686767578125,0.02919837459921837,0.01565985009074211,0.19868889451026917
1700516902932697900,4.76769775390625,0.022208109498023987,-0.1843874752521515,-0.036205898970365524
1700516902942709000,4.777708984375,-0.04677611216902733,0.2450665831565857,-0.28533637523651123
1700516902952720000,4.787719970703125,0.03076688013970852,-0.0899612084031105,0.09884244948625565
1700516902962731000,4.79773095703125,0.0442405641078949,-0.02695033699274063,0.17572586238384247
1700516902972740900,4.807740966796875,-0.02416352555155754,-0.060663558542728424,-0.16258853673934937
1700516902982751700,4.817751708984375,-0.04407303407788277,0.13885009288787842,-0.13958720862865448
1700516902992763000,4.827762939453125,0.02551376447081566,-0.16018187999725342,0.13218198716640472
1700516903002773800,4.837773681640625,0.02178569883108139,0.21817901730537415,0.04060409963130951
1700516903012785000,4.847784912109375,0.03468472138047218,-0.2411869764328003,0.23211494088172913
1700516903022795000,4.857794921875,-0.031030721962451935,0.09282492101192474,-0.26518514752388
1700516903032806000,4.867805908203125,-0.03408856317400932,0.09744443744421005,-0.13938593864440918
1700516903042816800,4.877816650390625,0.06342466175556183,-0.05658091604709625,0.20017915964126587
1700516903052828000,4.887827880859375,0.02749462239444256,-0.09558796882629395,0.11020398139953613
1700516903062838800,4.8978388671875,-0.04595984145998955,0.08247563987970352,-0.2682083249092102
1700516903072849000,4.907848876953125,-0.015062110498547554,0.029062753543257713,-0.008525079116225243
1700516903082859800,4.91785986328125,0.020441681146621704,-0.0557984858751297,0.13852328062057495
1700516903092871000,4.927870849609375,0.019796129316091537,0.1913577765226364,0.10450166463851929
1700516903102881800,4.9378818359375,0.009499081410467625,-0.30538755655288696,0.1098601371049881
1700516903112893000,4.947892822265625,-0.045288264751434326,0.24875284731388092,-0.3361184000968933
1700516903122902800,4.95790283203125,-0.012767661362886429,-0.053297847509384155,0.02867916226387024
1700516903132914000,4.967913818359375,0.0528680719435215,0.020602742210030556,0.23280565440654755
1700516903142924800,4.9779248046875,0.008258421905338764,-0.13417646288871765,-0.011797532439231873
1700516903152936000,4.98793603515625,-0.060315847396850586,0.2051648497581482,-0.28775694966316223
1700516903162946800,4.99794677734375,0.034291353076696396,-0.12332302331924438,0.10529100894927979
1700516903172957000,5.00795703125,0.032349374145269394,0.06558830291032791,0.10230587422847748
1700516903182967800,5.0179677734375,0.018709341064095497,0.046673696488142014,0.1685301661491394
1700516903192979000,5.02797900390625,-0.0010718207340687513,-0.23962810635566711,-0.038407571613788605
1700516903202989800,5.03798974609375,-0.05213484913110733,0.2515905201435089,-0.30558112263679504
1700516903213000700,5.048000732421875,0.013725923374295235,-0.13818521797657013,0.12748029828071594
1700516903223010800,5.0580107421875,0.039387501776218414,0.017472008243203163,0.2000819444656372
1700516903233022000,5.06802197265625,-0.02413341775536537,-0.11686156690120697,-0.1418522149324417
1700516903243032800,5.07803271484375,-0.06531982868909836,0.19853730499744415,-0.23186656832695007
1700516903253044000,5.0880439453125,0.029402947053313255,-0.20668421685695648,0.15277168154716492
1700516903263053800,5.0980537109375,0.01759449578821659,0.1571180522441864,0.07874356955289841
1700516903273065000,5.10806494140625,0.02559090219438076,-0.08350787311792374,0.21891745924949646
1700516903283075800,5.118075927734375,-0.02241791971027851,-0.06941612809896469,-0.1684240698814392
1700516903293086700,5.128086669921875,-0.04336794093251228,0.1813948005437851,-0.22592785954475403
1700516903303097900,5.138097900390625,0.034596849232912064,-0.11895664781332016,0.18511483073234558
1700516903313108000,5.14810791015625,0.03656359389424324,-0.03110669180750847,0.17592692375183105
1700516903323118800,5.158118896484375,-0.0420180968940258,-0.04175851121544838,-0.21385112404823303
1700516903333130000,5.1681298828125,-0.04032299667596817,0.13425859808921814,-0.1268259435892105
1700516903343140900,5.178140869140625,0.03037053719162941,-0.15637722611427307,0.17492982745170593
1700516903353151700,5.18815185546875,0.014770004898309708,0.22244839370250702,0.06954614818096161
1700516903363161900,5.198161865234375,0.025926191359758377,-0.18691371381282806,0.23001345992088318
1700516903373172700,5.2081728515625,-0.04284355044364929,0.07493413984775543,-0.2564406096935272
1700516903383184000,5.218183837890625,-0.027593914419412613,0.09372392296791077,-0.1272137463092804
1700516903393195000,5.228195068359375,0.045751139521598816,-0.06181081011891365,0.18656735122203827
1700516903403206000,5.238205810546875,0.029766235500574112,-0.06820398569107056,0.09508103877305984
1700516903413216000,5.248216064453125,-0.042127128690481186,0.040727559477090836,-0.26454025506973267
1700516903423227000,5.258226806640625,-0.013957401737570763,0.06327055394649506,-0.03086390160024166
1700516903433237800,5.26823779296875,0.018215447664260864,-0.09020155668258667,0.15549984574317932
1700516903443249000,5.278248779296875,0.01798904687166214,0.2441270351409912,0.06509128957986832
1700516903453260000,5.288260009765625,0.023334011435508728,-0.27573931217193604,0.1806972473859787
1700516903463270000,5.298269775390625,-0.04682961106300354,0.2066269963979721,-0.30871638655662537
1700516903473281000,5.308281005859375,-0.014270070008933544,-0.021934816613793373,-0.01919136568903923
1700516903483292000,5.3182919921875,0.04785491153597832,0.02066130004823208,0.18877479434013367
1700516903493302800,5.328302734375,0.01272994838654995,-0.11960446834564209,0.05254504829645157
1700516903503313700,5.338313720703125,-0.054569996893405914,0.11458086967468262,-0.2892511487007141
1700516903513323800,5.34832373046875,0.006743427831679583,-0.028769098222255707,0.04414303973317146
1700516903523335000,5.3583349609375,0.01841043122112751,-0.01854144036769867,0.12691737711429596
1700516903533346000,5.368345947265625,0.02587047778069973,0.18534405529499054,0.10201575607061386
1700516903543357000,5.37835693359375,0.01967618614435196,-0.23736844956874847,0.1277025043964386
1700516903553366800,5.38836669921875,-0.04006943479180336,0.21674950420856476,-0.29812124371528625
1700516903563378000,5.3983779296875,-0.013787899166345596,-0.07068552076816559,0.03998688980937004
1700516903573388800,5.408388916015625,0.037489667534828186,0.035433728247880936,0.19063125550746918
1700516903583399700,5.418399658203125,-0.00912909023463726,-0.1112530454993248,0.03138509392738342
1700516903593411000,5.4284111328125,-0.05419190600514412,0.10384354740381241,-0.2708440124988556
1700516903603421000,5.4384208984375,-0.013029900379478931,-0.08367511630058289,0.024947412312030792
1700516903613431800,5.448431884765625,0.00993986427783966,-0.021219195798039436,-0.009973820298910141
1700516903623443000,5.45844287109375,0.0021206270903348923,0.10269510000944138,0.018638599663972855
1700516903633453800,5.468453857421875,0.0031864242628216743,-0.302086740732193,0.012517323717474937
1700516903643464700,5.478464599609375,-0.0665503442287445,0.20916177332401276,-0.4250694513320923
1700516903653474800,5.488474853515625,-0.06188901513814926,-0.03694920241832733,-0.12924444675445557
1700516903663485400,5.4984853515625,0.003075110726058483,0.030223658308386803,0.08697378635406494
1700516903673496600,5.50849658203125,0.006942021194845438,-0.06386981904506683,0.010052105411887169
1700516903683507500,5.518507568359375,-0.049548450857400894,0.18330682814121246,-0.23576441407203674
1700516903693517600,5.528517578125,-0.037094444036483765,-0.0339469276368618,-0.0105526028200984
1700516903703528400,5.538528564453125,-0.018519630655646324,0.01467571035027504,0.008393052034080029
1700516903713539300,5.548539306640625,-0.010366896167397499,0.3920600116252899,0.11014018207788467
1700516903723550200,5.55855029296875,0.07929886877536774,-0.4693126380443573,0.29128506779670715
1700516903733561600,5.5685615234375,-0.07301317155361176,0.48454749584198,-0.40783706307411194
1700516903743571500,5.578571533203125,-0.08204551786184311,-0.1680602729320526,0.025281980633735657
1700516903753582600,5.58858251953125,0.013156632892787457,-0.04191911965608597,0.07590042054653168
1700516903763593500,5.598593505859375,-0.03214143216609955,-0.008016201667487621,-0.07740169018507004
1700516903773604400,5.608604248046875,-0.043009527027606964,0.017031360417604446,-0.2197074443101883
1700516903783615200,5.618615234375,-0.02711339108645916,0.007795344572514296,0.005053649190813303
1700516903793625300,5.628625244140625,-0.00806353334337473,-0.1009063646197319,0.08349119871854782
1700516903803636200,5.63863623046875,0.008992655202746391,0.22893942892551422,-0.010043042711913586
1700516903813647600,5.648647705078125,0.021418698132038116,-0.011766402050852776,0.39485570788383484
1700516903823658500,5.658658447265625,0.05213910713791847,-0.13853299617767334,-0.2027459293603897
1700516903833668400,5.66866845703125,-0.1281435787677765,0.5633897185325623,-0.2842455804347992
1700516903843679500,5.678679443359375,0.1104336529970169,-0.4327773153781891,0.44400420784950256
1700516903853690400,5.6886904296875,0.04237630218267441,0.19792072474956512,-0.024540381506085396
1700516903863701200,5.698701171875,-0.04452864080667496,-0.08407843112945557,-0.30045583844184875
1700516903873712400,5.70871240234375,-0.026884667575359344,0.11944086849689484,-0.14429527521133423
1700516903883722200,5.71872216796875,-0.012106581591069698,-0.2981661260128021,0.07619436085224152
1700516903893733400,5.7287333984375,0.008299090899527073,0.36352822184562683,-0.12027981877326965
1700516903903744500,5.73874462890625,0.0541958324611187,-0.5854073166847229,0.4485100507736206
1700516903913755400,5.74875537109375,-0.11979380249977112,-0.22296598553657532,-0.5803593397140503
1700516903923766300,5.758766357421875,-0.25753822922706604,1.1728378534317017,-0.42402151226997375
1700516903933776400,5.7687763671875,0.1919894963502884,-1.21712064743042,0.7616228461265564
1700516903943787300,5.778787353515625,-0.04775495454668999,0.27331942319869995,0.0054708970710635185
1700516903953798400,5.78879833984375,-0.12290962040424347,0.2750675082206726,-0.3071618378162384
1700516903963809500,5.7988095703125,0.07089786976575851,-0.2947511076927185,0.0788954421877861
1700516903973820400,5.8088203125,-0.0769624337553978,0.19593177735805511,0.4264659285545349
1700516903983830500,5.81883056640625,0.07944195717573166,-0.8024821877479553,-0.2627373933792114
1700516903993841400,5.82884130859375,-0.10743578523397446,1.4528846740722656,-0.8426529169082642
1700516904003852300,5.838852294921875,0.07706668972969055,-1.1099131107330322,0.4799861013889313
1700516904013863400,5.848863525390625,0.080152228474617,-0.06380137801170349,0.03748643398284912
1700516904023873300,5.858873291015625,-0.15920813381671906,0.7351251244544983,-0.07540493458509445
1700516904033884400,5.868884521484375,0.04557057097554207,-0.0855063796043396,0.7197883725166321
1700516904043895600,5.8788955078125,0.16890199482440948,-0.7083622217178345,0.1169164627790451
1700516904053906400,5.888906494140625,-0.18993259966373444,1.443647861480713,-0.7368476986885071
1700516904063917300,5.898917236328125,0.11144616454839706,-0.8442963361740112,0.7230938673019409
1700516904073927400,5.908927490234375,-0.007977167144417763,-0.3425685465335846,0.07198083400726318
1700516904083938300,5.918938232421875,-0.145542711019516,0.8661062717437744,-0.43119439482688904
1700516904093949400,5.928949462890625,0.0801042765378952,-0.8037945032119751,0.7268694639205933
1700516904103960600,5.938960693359375,-0.035456009209156036,-0.376690536737442,-0.0995129719376564
1700516904113970400,5.948970458984375,-0.2353944182395935,1.3640207052230835,-0.3272705078125
1700516904123981600,5.958981689453125,0.14665712416172028,-1.4790129661560059,0.37940287590026855
1700516904133992400,5.968992431640625,-0.08185380697250366,0.6222351789474487,-0.21758036315441132
1700516904144003300,5.97900341796875,-0.12132404744625092,0.3846574127674103,0.11329703032970428
1700516904154014500,5.989014404296875,0.218087837100029,-1.2520040273666382,0.06224636361002922
1700516904164024300,5.9990244140625,-0.060480646789073944,1.304991602897644,-0.4790544807910919
1700516904174035200,6.00903515625,0.10430723428726196,-0.32457849383354187,0.06261729449033737
1700516904184046600,6.019046630859375,0.08448710292577744,-0.7737515568733215,0.2330780178308487
1700516904194057500,6.029057373046875,-0.21435900032520294,1.4272304773330688,0.3677902817726135
1700516904204068400,6.039068359375,0.22488659620285034,-1.093895435333252,0.04750113934278488
1700516904214078500,6.049078369140625,-0.034255754202604294,0.8425127267837524,-0.17110736668109894
1700516904224089300,6.05908935546875,0.06128085032105446,-0.037691425532102585,0.057319313287734985
1700516904234100200,6.069100341796875,0.02693699300289154,-0.5235257744789124,0.1444651335477829
1700516904244111400,6.079111328125,-0.13669010996818542,0.8558823466300964,0.34700265526771545
1700516904254121200,6.089121337890625,0.17814293503761292,-1.174725890159607,-0.15842485427856445
1700516904264132600,6.099132568359375,-0.14395827054977417,1.160047173500061,-0.1510036289691925
1700516904274143500,6.1091435546875,0.013473955914378166,-0.5732536911964417,0.19179767370224
1700516904284154400,6.119154296875,-0.0481516532599926,-0.28094714879989624,-0.005344293545931578
1700516904294165200,6.129165283203125,-0.12858442962169647,0.7410832047462463,0.1520828753709793
1700516904304175400,6.13917529296875,0.14894741773605347,-1.1621851921081543,-0.2956898510456085
1700516904314186200,6.149186279296875,-0.079645536839962,0.6242924928665161,-0.20296043157577515
1700516904324197600,6.15919775390625,-0.02559787780046463,-0.052675195038318634,0.06759136915206909
1700516904334208500,6.16920849609375,-0.03741352632641792,-0.09881286323070526,-0.019391465932130814
1700516904344218400,6.17921826171875,-0.04998961091041565,0.5184476971626282,0.5607506036758423
1700516904354229500,6.1892294921875,0.08506222069263458,-1.0084341764450073,-0.004505038261413574
1700516904364240400,6.199240478515625,-0.06650843471288681,0.6329061985015869,0.21728931367397308
1700516904374251300,6.209251220703125,-0.012005776166915894,-0.32418885827064514,0.14171573519706726
1700516904384262400,6.219262451171875,-0.08199699223041534,0.48524051904678345,0.4044857919216156
1700516904394272300,6.229272216796875,0.02109396643936634,-0.41922199726104736,0.43108251690864563
1700516904404283600,6.23928369140625,-0.04964156821370125,0.30231472849845886,-0.053371213376522064
1700516904414294500,6.24929443359375,-0.0074198138900101185,0.0012712538009509444,0.10190865397453308
1700516904424305400,6.259305419921875,-0.032991912215948105,-0.43114855885505676,-0.26982513070106506
1700516904434316300,6.26931640625,-0.11265984177589417,0.5287095308303833,-0.08052176237106323
1700516904444326400,6.279326416015625,0.05904199928045273,-0.9113483428955078,-0.5156912803649902
1700516904454337300,6.289337158203125,-0.12496964633464813,0.12130113691091537,-0.8922734260559082
1700516904464348400,6.299348388671875,-0.07652240991592407,0.08546856045722961,-0.22655020654201508
1700516904474359600,6.309359619140625,-0.007871439680457115,0.24930225312709808,0.7007688283920288
1700516904484369400,6.319369384765625,0.07084382325410843,-0.14155203104019165,1.1062304973602295
1700516904494380500,6.329380615234375,-0.010230256244540215,0.0353311263024807,0.253126323223114
1700516904504391400,6.339391357421875,0.020849453285336494,0.36401453614234924,0.20959924161434174
1700516904514402300,6.34940234375,-0.05710792541503906,-0.6076674461364746,-0.24146540462970734
1700516904524413400,6.359413330078125,-0.12899528443813324,0.4579835534095764,-0.05475082993507385
1700516904534423300,6.36942333984375,-0.01796037144958973,-0.6430167555809021,-0.0842253640294075
1700516904544434400,6.379434326171875,-0.0823654979467392,0.22429904341697693,-0.3529951572418213
1700516904554445600,6.389445556640625,-0.08491307497024536,0.07353775203227997,-0.045327600091695786
1700516904564456400,6.39945654296875,-0.08700405061244965,-0.26850810647010803,-0.16802401840686798
1700516904574467300,6.40946728515625,-0.05689328536391258,-0.047811705619096756,0.07568451762199402
1700516904584477400,6.4194775390625,-0.05356533080339432,-0.004316716454923153,-0.04044109210371971
1700516904594488300,6.42948828125,-0.014201680198311806,0.1690225750207901,0.08302731812000275
1700516904604499500,6.43949951171875,0.028377819806337357,-0.421983540058136,0.20811772346496582
1700516904614510300,6.44951025390625,-0.05066080391407013,0.29156652092933655,0.059118401259183884
1700516904624520200,6.459520263671875,-0.048107922077178955,-0.30580583214759827,0.22123751044273376
1700516904634531600,6.469531494140625,-0.045326247811317444,0.2738897502422333,-0.12098347395658493
1700516904644542500,6.47954248046875,-0.02594706229865551,0.011331969872117043,0.23530109226703644
1700516904654553300,6.48955322265625,-0.04454844072461128,-0.2816133499145508,0.15498973429203033
1700516904664567800,6.49956787109375,-0.0093298414722085,0.01861925795674324,0.11679565161466599
1700516904674577700,6.50957763671875,0.007459525018930435,-0.14940036833286285,-0.5412576198577881
1700516904684588500,6.519588623046875,-0.004493946675211191,0.26654288172721863,-0.5843772888183594
1700516904694599700,6.529599609375,-0.05676087737083435,-0.4393939971923828,-0.09766945242881775
1700516904704610600,6.539610595703125,-0.10203392803668976,0.11698241531848907,0.2167818546295166
1700516904714620700,6.54962060546875,-0.016381338238716125,-0.26392391324043274,0.4821184575557709
1700516904724631600,6.559631591796875,-0.014248642139136791,0.22686101496219635,0.20487023890018463
1700516904734642400,6.569642333984375,-0.05831543728709221,-0.11194552481174469,0.15736369788646698
1700516904744653800,6.57965380859375,-0.05446024239063263,-0.008299924433231354,-0.2717157304286957
1700516904754664700,6.589664794921875,0.0005888949381187558,0.0034866943024098873,-0.19694671034812927
1700516904764674600,6.599674560546875,-0.015663396567106247,-0.32327550649642944,-0.19321522116661072
1700516904774685700,6.609685791015625,-0.1093779057264328,0.2997739613056183,0.02042008936405182
1700516904784696600,6.619696533203125,-0.041403159499168396,-0.3190963566303253,0.3235360383987427
1700516904794707500,6.62970751953125,0.015143739059567451,0.13988693058490753,0.3734671175479889
1700516904804717600,6.639717529296875,-0.06520704180002213,-0.27337878942489624,0.21752922236919403
1700516904814728700,6.649728759765625,-0.057039666920900345,0.8046656250953674,-0.42773234844207764
1700516904824739600,6.659739501953125,-0.02315502241253853,-0.28271281719207764,0.34513232111930847
1700516904834750700,6.669750732421875,0.001856588409282267,-0.028279989957809448,0.32847318053245544
1700516904844761600,6.67976171875,-0.02754082717001438,0.04239193722605705,-0.13178275525569916
1700516904854771700,6.689771728515625,-0.15461009740829468,0.1158917248249054,-0.3477550148963928
1700516904864782600,6.699782470703125,-0.08505945652723312,-0.5020190477371216,-0.04340803250670433
1700516904874793500,6.70979345703125,-0.026053927838802338,0.07409834861755371,-0.3183208107948303
1700516904884804600,6.7198046875,-0.0031935484148561954,-0.07839649170637131,-0.32031020522117615
1700516904894815700,6.729815673828125,-0.015553278848528862,-0.45469820499420166,-0.43008968234062195
1700516904904825600,6.73982568359375,-0.045450787991285324,0.08183572441339493,-0.14727044105529785
1700516904914836700,6.749836669921875,0.08064403384923935,-0.14904755353927612,0.06120792776346207
1700516904924847600,6.75984765625,0.18438337743282318,0.014200657606124878,0.2242191880941391
1700516904934858500,6.7698583984375,0.03719792142510414,0.12216120958328247,0.01596132293343544
1700516904944868600,6.77986865234375,-0.08815842121839523,0.10854382812976837,-0.2850559949874878
1700516904954879500,6.78987939453125,-0.09258805960416794,-0.13358518481254578,-0.11622516810894012
1700516904964890600,6.799890625,0.0016935489838942885,0.34948277473449707,0.02001567929983139
1700516904974901800,6.80990185546875,-0.021032802760601044,0.013284801505506039,0.1788782924413681
1700516904984912600,6.81991259765625,-0.05592433735728264,0.34888380765914917,0.18363350629806519
1700516904994922800,6.8299228515625,-0.13385508954524994,0.4009518027305603,0.665870189666748
1700516905004933600,6.83993359375,0.09019750356674194,0.05437232553958893,0.7184439301490784
1700516905014944500,6.849944580078125,0.016921423375606537,0.2683442533016205,-0.1253804862499237
1700516905024955400,6.859955322265625,0.0385371558368206,0.4134777784347534,0.2899974584579468
1700516905034965500,6.869965576171875,-0.0002621719613671303,-0.5717413425445557,0.03519926220178604
1700516905044976600,6.8799765625,0.1497686803340912,0.23747263848781586,-0.1585063636302948
1700516905054987800,6.88998779296875,0.02817539870738983,-0.5024704337120056,-0.5333750247955322
1700516905064998700,6.89999853515625,-0.014782456681132317,0.21644777059555054,-0.19320015609264374
1700516905075009500,6.910009521484375,-0.059651926159858704,-0.9078778624534607,-0.4890853464603424
1700516905085019600,6.92001953125,-0.15866629779338837,0.19631391763687134,-0.41656577587127686
1700516905095030500,6.930030517578125,-0.07594690471887589,-0.3564041256904602,-0.34901949763298035
1700516905105041400,6.94004150390625,0.008394083008170128,0.132455512881279,0.13741496205329895
1700516905115052800,6.950052734375,0.08985405415296555,0.04753768816590309,0.15472550690174103
1700516905125063700,6.960063720703125,0.19750434160232544,0.10735093802213669,0.21503478288650513
1700516905135073500,6.970073486328125,0.04627780243754387,-0.05288933590054512,-0.020584406331181526
1700516905145084700,6.980084716796875,-0.15133680403232574,0.07150322198867798,0.0048821414820849895
1700516905155095600,6.990095458984375,-0.08331035077571869,-0.04739067703485489,-0.07235006242990494
1700516905165106400,7.0001064453125,0.07303586602210999,0.08151707798242569,0.23774942755699158
1700516905175116500,7.010116455078125,0.039698682725429535,0.14097081124782562,0.2380991131067276
1700516905185127700,7.020127685546875,0.013697708025574684,0.12795567512512207,0.5649446249008179
1700516905195138800,7.030138916015625,0.0324159637093544,0.6345095038414001,0.6779628396034241
1700516905205149700,7.040149658203125,0.2220475971698761,-0.6485059261322021,-0.13827398419380188
1700516905215160600,7.05016064453125,-0.02314884588122368,0.8604893684387207,-0.2889026403427124
1700516905225170700,7.060170654296875,0.0005305340746417642,-0.6551004648208618,0.12431611120700836
1700516905235181600,7.070181640625,0.03540995344519615,0.04477320611476898,0.17455077171325684
1700516905245192400,7.0801923828125,-0.03916759788990021,0.055524133145809174,-0.4697074294090271
1700516905255203800,7.090203857421875,0.004761510528624058,-0.24257253110408783,-0.07783018797636032
1700516905265213700,7.100213623046875,-0.11707903444766998,0.17629995942115784,0.13435949385166168
1700516905275224600,7.110224609375,0.12989799678325653,-0.4648728370666504,0.0869523137807846
1700516905285235700,7.120235595703125,0.010693342424929142,0.40833890438079834,-0.1403699666261673
1700516905295246600,7.13024658203125,0.04779783636331558,-0.2064795196056366,0.40484941005706787
1700516905305257500,7.140257568359375,0.014045475982129574,0.5611303448677063,0.5233996510505676
1700516905315267600,7.150267578125,0.10842151194810867,-0.27051228284835815,-0.2652648687362671
1700516905325278500,7.160278564453125,-0.0018822308629751205,0.40931349992752075,0.04963880032300949
1700516905335289600,7.17028955078125,-0.06716909259557724,-0.23831480741500854,0.18001705408096313
1700516905345300700,7.18030078125,0.1206926628947258,-0.2560727894306183,-0.03472963720560074
1700516905355311600,7.1903115234375,-0.0802907794713974,0.00462350994348526,-0.7014418840408325
1700516905365321700,7.20032177734375,-0.0113337691873312,-0.1879788190126419,-0.1790170669555664
1700516905375332600,7.21033251953125,-0.11522474884986877,-0.12452314794063568,-0.23295459151268005
1700516905385343500,7.220343505859375,0.0039684465155005455,-0.36978062987327576,-0.3457508385181427
1700516905395354600,7.230354736328125,0.08805535733699799,-0.025438962504267693,-0.7159746885299683
1700516905405364500,7.240364501953125,0.08908650279045105,0.13519267737865448,-0.21358650922775269
1700516905415375600,7.250375732421875,-0.05899084359407425,0.2905907928943634,0.4579410254955292
1700516905425386800,7.26038671875,0.03309294208884239,-0.23835133016109467,0.19510413706302643
1700516905435397600,7.270397705078125,0.22021089494228363,0.6136208176612854,0.4090944528579712
1700516905445408500,7.280408447265625,-0.039622433483600616,0.13760527968406677,0.5777584314346313
1700516905455418600,7.290418701171875,0.15713056921958923,-0.21705932915210724,0.38700762391090393
1700516905465429500,7.300429443359375,0.047329336404800415,0.42487993836402893,-0.10497919470071793
1700516905475440400,7.3104404296875,0.05095842480659485,-0.4160853624343872,0.231843039393425
1700516905485451800,7.32045166015625,-0.12270835787057877,0.17055761814117432,0.165244922041893
1700516905495461600,7.330461669921875,0.018457289785146713,-0.21955952048301697,-0.7028979063034058
1700516905505472800,7.34047265625,0.1375202238559723,0.08799094706773758,-0.17223165929317474
1700516905515483600,7.350483642578125,-0.049519702792167664,0.10572733730077744,0.3710918128490448
1700516905525494500,7.36049462890625,0.20651917159557343,-0.3032054901123047,0.14310739934444427
1700516905535505400,7.37050537109375,0.08270881325006485,0.33393076062202454,-0.21835198998451233
1700516905545515500,7.380515625,0.00458791246637702,-0.08802323043346405,0.18022814393043518
1700516905555526700,7.390526611328125,-0.04174736514687538,0.1252347230911255,0.37751537561416626
1700516905565537800,7.400537841796875,0.04370816797018051,-0.12471126765012741,-0.41038617491722107
1700516905575548700,7.410548583984375,0.11957017332315445,0.38577061891555786,0.1266801953315735
1700516905585558500,7.42055859375,-0.021103065460920334,0.1696544885635376,0.5348710417747498
1700516905595569700,7.430569580078125,0.32104867696762085,-0.033587053418159485,0.24865633249282837
1700516905605580500,7.44058056640625,0.017476646229624748,0.6644001603126526,0.28169089555740356
1700516905615591400,7.45059130859375,-0.013824018649756908,0.05698901042342186,0.48507755994796753
1700516905625602800,7.460602783203125,0.19212770462036133,0.005100215785205364,0.27270248532295227
1700516905635612700,7.47061279296875,-0.07173324376344681,0.09170621633529663,-0.28743404150009155
1700516905645623800,7.480623779296875,0.01763550378382206,-0.0622844323515892,0.1671556532382965
1700516905655634700,7.490634765625,-0.10136464983224869,-0.020604629069566727,-0.1352105736732483
1700516905665642200,7.500642333984375,0.03528160974383354,-0.8332479596138,-0.7467445731163025
1700516905675652400,7.51065234375,-0.002654320327565074,-0.08620388060808182,-0.5599472522735596
1700516905685663500,7.52066357421875,-0.061879485845565796,-0.38147157430648804,-0.2815078794956207
1700516905695674400,7.53067431640625,-0.22564606368541718,0.004210870247334242,-0.11583288013935089
1700516905705685500,7.540685546875,-0.010813559405505657,-0.8605036735534668,-0.4937041997909546
1700516905715696400,7.5506962890625,0.015219638124108315,0.26694899797439575,-0.40498125553131104
1700516905725706200,7.560706298828125,0.0397472120821476,0.14283917844295502,-0.15269330143928528
1700516905735717400,7.57071728515625,0.04919290915131569,0.06285219639539719,-0.00768896471709013
1700516905745728300,7.580728271484375,0.06793209910392761,-0.14034633338451385,-0.06582118570804596
1700516905755739400,7.590739501953125,0.03588016331195831,0.3511461615562439,-0.13958248496055603
1700516905765750500,7.60075048828125,0.12358445674180984,0.805618941783905,0.8476061224937439
1700516905775760400,7.610760498046875,0.07346935570240021,-0.5339204668998718,0.6330304145812988
1700516905785771300,7.620771240234375,-0.009239286184310913,1.0284000635147095,0.602716326713562
1700516905795782400,7.630782470703125,0.04198102653026581,0.02726237289607525,1.0436424016952515
1700516905805793300,7.640793212890625,0.02952788956463337,0.2657454311847687,-0.236238494515419
1700516905815803400,7.650803466796875,0.11866815388202667,-0.15191175043582916,0.034079279750585556
1700516905825814500,7.660814453125,-0.0844547227025032,0.10442831367254257,0.005036790855228901
1700516905835825400,7.670825439453125,0.05747897922992706,-0.7554667592048645,-0.7181488871574402
1700516905845836300,7.680836181640625,-0.044863659888505936,0.015511466190218925,-0.6563883423805237
1700516905855847400,7.690847412109375,0.009370550513267517,-0.3556969463825226,-0.23580487072467804
1700516905865857300,7.700857177734375,0.09967216849327087,-0.03568873926997185,-0.07005529850721359
1700516905875868400,7.710868408203125,0.09983861446380615,0.035631246864795685,-0.5338490605354309
1700516905885879300,7.72087939453125,0.14707502722740173,0.3220694959163666,0.11742005497217178
1700516905895890400,7.730890380859375,0.05476081743836403,0.0477609783411026,0.5814635753631592
1700516905905900500,7.740900634765625,0.01006355881690979,-0.16508923470973969,-0.008419864811003208
1700516905915911400,7.750911376953125,0.2063196301460266,0.409490168094635,0.2112685590982437
1700516905925922300,7.76092236328125,0.0054014683701097965,-0.0039407904259860516,0.3583521842956543
1700516905935933400,7.770933349609375,0.08841326832771301,-0.21416033804416656,-0.21317443251609802
1700516905945944300,7.7809443359375,0.05488845333456993,0.1766597330570221,-0.27880504727363586
1700516905955954400,7.790954345703125,0.02962437830865383,-0.2982998490333557,0.05121786892414093
1700516905965965300,7.80096533203125,0.10015051066875458,0.14401297271251678,-0.12765483558177948
1700516905975976400,7.8109765625,0.029852377250790596,-0.44312456250190735,-0.9239181876182556
1700516905985987300,7.8209873046875,0.06306959688663483,0.27692535519599915,-0.302420049905777
1700516905995997400,7.83099755859375,0.01334118377417326,-0.1787036806344986,0.017183242365717888
1700516906006008300,7.84100830078125,0.05743717774748802,-0.07813048362731934,-0.21763508021831512
1700516906016019500,7.85101953125,0.05724010244011879,0.2853928804397583,0.032548654824495316
1700516906026030300,7.8610302734375,0.012837754562497139,-0.23672306537628174,-0.3228733539581299
1700516906036041200,7.871041259765625,0.11336356401443481,0.18146567046642303,-0.3612218201160431
1700516906046051300,7.88105126953125,-0.015365849249064922,-0.14619992673397064,-0.3542187809944153
1700516906056062500,7.8910625,0.03810429945588112,0.16592788696289062,-0.11252411454916
1700516906066073300,7.9010732421875,0.04436565190553665,-0.2177189439535141,-0.45053014159202576
1700516906076084500,7.91108447265625,0.1300981342792511,0.08056361973285675,-0.04244277626276016
1700516906086095400,7.921095458984375,0.11798789352178574,0.07222015410661697,-0.18972449004650116
1700516906096105200,7.931105224609375,0.14730210602283478,0.09236376732587814,0.1877996325492859
1700516906106116400,7.941116455078125,0.15309466421604156,0.017628824338316917,0.07625839114189148
1700516906116127200,7.951127197265625,0.18014571070671082,0.057497940957546234,0.03853470832109451
1700516906126138400,7.961138427734375,0.07649385929107666,0.11566445231437683,-0.10100971162319183
1700516906136148500,7.9711484375,0.14942851662635803,-0.2660898268222809,-0.08628509193658829
1700516906146159400,7.981159423828125,0.0759974867105484,0.17257367074489594,-0.19019009172916412
1700516906156170500,7.99117041015625,0.03589906170964241,0.01210116595029831,0.08194290101528168
1700516906166181400,8.001181396484375,0.05843362212181091,0.08099967241287231,-0.1550597846508026
1700516906176192300,8.011192138671875,0.563485324382782,-0.9724818468093872,-2.549318313598633
1700516906186202400,8.021202392578125,-0.4309011995792389,0.40446990728378296,-0.8609517812728882
1700516906196213500,8.031213623046876,-0.10337071120738983,-0.14356471598148346,2.449927568435669
1700516906206224400,8.041224365234376,-0.05037815496325493,-0.04918459430336952,0.7028112411499023
1700516906216235500,8.051235595703124,-0.10533301532268524,-0.151712566614151,-0.13995300233364105
1700516906226245400,8.061245361328124,-0.0982469990849495,-0.24875269830226898,-0.8985875248908997
1700516906236256300,8.07125634765625,-0.07536592334508896,-0.03171677887439728,-0.018649796023964882
1700516906246267400,8.081267333984375,-0.06721781939268112,-0.2375440001487732,0.06692731380462646
1700516906256278300,8.0912783203125,-0.005482284352183342,-0.10176645219326019,-0.08143153041601181
1700516906266289400,8.101289306640625,-0.04526751488447189,-0.023022111505270004,-0.4481815695762634
1700516906276299500,8.111299560546875,-0.01558099128305912,0.13130487501621246,0.06335495412349701
1700516906286310400,8.121310302734376,-0.08282803744077682,-0.02118782326579094,0.19154511392116547
1700516906296321300,8.1313212890625,-0.09685783833265305,-0.10671710968017578,-0.1968068927526474
1700516906306332400,8.14133251953125,-0.06433017551898956,0.09975802898406982,-0.11162614077329636
1700516906316342300,8.15134228515625,-0.16506770253181458,-0.2059861719608307,-0.3080425262451172
1700516906326353400,8.161353515625,-0.015267718583345413,-0.010523452423512936,-0.3212980329990387
1700516906336364300,8.1713642578125,-0.08540073037147522,-0.20462261140346527,-0.27409297227859497
1700516906346375400,8.18137548828125,-0.09016256034374237,-0.10208293795585632,-0.24476219713687897
1700516906356386300,8.19138623046875,-0.087473563849926,0.012672409415245056,0.12020377814769745
1700516906366396400,8.201396484375,-0.07251989841461182,-0.06403398513793945,-0.22160767018795013
1700516906376407300,8.2114072265625,-0.057877566665410995,-0.007109709084033966,-0.04972298443317413
1700516906386418400,8.22141845703125,-0.07561113685369492,0.05125894770026207,0.11007767915725708
1700516906396429300,8.23142919921875,0.015375758521258831,0.01804213784635067,-0.008983194828033447
1700516906406440200,8.241440185546875,-0.10810377448797226,0.06657546013593674,0.3359820246696472
1700516906416450300,8.2514501953125,0.05175725743174553,0.2537837028503418,0.2771807610988617
1700516906426461400,8.26146142578125,0.02609197236597538,0.16849982738494873,0.5136210918426514
1700516906436472300,8.271472412109375,-0.030558258295059204,0.09524238854646683,0.432548850774765
1700516906446483500,8.2814833984375,0.0007174542406573892,0.21754246950149536,0.2960454225540161
1700516906456493300,8.291493408203126,-0.01291153859347105,0.08292153477668762,0.29139208793640137
1700516906466504400,8.30150439453125,-0.09439109265804291,0.03249816596508026,-0.12604130804538727
1700516906476515300,8.311515380859374,-0.04233348369598389,-0.0028116190806031227,0.05065063759684563
1700516906486526500,8.3215263671875,-0.0924462080001831,-0.23165175318717957,-0.5107032656669617
1700516906496537300,8.331537353515625,-0.03325612470507622,0.08145902305841446,-0.5436425805091858
1700516906506547500,8.34154736328125,-0.04253213480114937,-0.04704182595014572,0.010120470076799393
1700516906516558300,8.351558349609375,-0.05453420430421829,-0.00848511140793562,-0.4085114002227783
1700516906526569500,8.361569580078125,-0.03668443486094475,-0.11166899651288986,-0.07386464625597
1700516906536580400,8.371580322265626,-0.05613003671169281,-0.06397657096385956,-0.009753566235303879
1700516906546590200,8.381590087890626,-0.023927217349410057,-0.1610340029001236,-0.38465985655784607
1700516906556601300,8.391601318359376,-0.02459966577589512,-0.008381882682442665,0.1551988273859024
1700516906566612500,8.401612548828124,0.04875614121556282,0.07595005631446838,0.13869108259677887
1700516906576623400,8.411623291015625,-0.03711722046136856,0.07342937588691711,-0.07887852936983109
1700516906586634500,8.421634521484375,-0.10111478716135025,0.09936027228832245,0.5363772511482239
1700516906596644400,8.431644287109375,-0.005053502041846514,-0.053321413695812225,0.09590505063533783
1700516906606655200,8.4416552734375,-0.08370853215456009,0.0072833639569580555,-0.1348404437303543
1700516906616666400,8.451666259765625,-0.08321691304445267,-0.20066823065280914,0.26426219940185547
1700516906626677200,8.46167724609375,-0.08121787011623383,-0.12862735986709595,-0.38234591484069824
1700516906636687400,8.471687255859376,-0.08640943467617035,-0.10797640681266785,-0.3869513273239136
1700516906646698500,8.481698486328124,-0.1181253045797348,0.01708979159593582,0.3131141662597656
1700516906656709400,8.49170947265625,-0.1287824809551239,-0.14202448725700378,0.12385953962802887
1700516906666720000,8.501719970703125,-0.09117703884840012,0.017919644713401794,0.021250750869512558
1700516906676731000,8.51173095703125,-0.14630873501300812,-0.21068690717220306,0.22050660848617554
1700516906686741000,8.521740966796875,-0.10142738372087479,-0.03544807434082031,-0.19764035940170288
1700516906696751900,8.531751953125,-0.05656670033931732,-0.040717676281929016,-0.07580021023750305
1700516906706762800,8.5417626953125,-0.05218198150396347,-0.12242522835731506,0.13987259566783905
1700516906716774000,8.55177392578125,-0.09460107237100601,-0.010086702182888985,-0.055970676243305206
1700516906726783700,8.56178369140625,-0.0888909325003624,0.02449192851781845,-0.1626352071762085
1700516906736795000,8.571794921875,-0.133611798286438,-0.15636014938354492,-0.06306707859039307
1700516906746806000,8.581805908203124,-0.055906109511852264,-0.005181389860808849,-0.18914027512073517
1700516906756817000,8.59181689453125,-0.018612267449498177,0.0787031278014183,-0.08003696799278259
1700516906766827800,8.601827880859375,-0.048047687858343124,0.0746375024318695,0.09431841969490051
1700516906776838000,8.611837890625,-0.028435636311769485,0.12298186868429184,0.27727439999580383
1700516906786848800,8.621848876953125,-0.013179445639252663,0.1361566185951233,0.18859413266181946
1700516906796860000,8.63185986328125,-0.018267149105668068,0.09180460125207901,0.0864616334438324
1700516906806871000,8.64187109375,-0.08699888736009598,-0.049025826156139374,0.35327813029289246
1700516906816881000,8.651880859375,-0.012611469253897667,0.062104154378175735,0.12900961935520172
1700516906826891800,8.661891845703124,-0.05901255086064339,0.027438296005129814,-0.02303505688905716
1700516906836903000,8.67190283203125,-0.07177255302667618,-0.14131556451320648,-0.01683681458234787
1700516906846913800,8.681913818359375,-0.004397215787321329,0.16763165593147278,0.06714785099029541
1700516906856924700,8.691924560546875,-0.0688057616353035,-0.03942805901169777,-0.09837932884693146
1700516906866934800,8.701934814453125,-0.051295068114995956,-0.054394789040088654,-0.0709380954504013
1700516906876946000,8.71194580078125,-0.038236524909734726,0.05440652370452881,0.25721848011016846
1700516906886957000,8.72195703125,-0.04204097390174866,0.007540092337876558,-0.1139596551656723
1700516906896968000,8.731968017578126,-0.07718511670827866,0.020688118413090706,-0.08443158864974976
1700516906906977800,8.741977783203126,-0.042267318814992905,-0.07488232105970383,0.09018657356500626
1700516906916989000,8.751989013671874,-0.03887738287448883,-0.003910675644874573,0.06575313210487366
1700516906926999800,8.761999755859375,-0.07230017334222794,0.038538217544555664,-0.09965444356203079
1700516906937010700,8.7720107421875,-0.03984209522604942,-0.005158929154276848,0.21951235830783844
1700516906947022000,8.78202197265625,-0.05403226613998413,0.03641119599342346,0.13720370829105377
1700516906957032000,8.792031982421875,-0.030927475541830063,0.11809194087982178,-0.17874759435653687
1700516906967042800,8.802042724609375,-0.088260218501091,-0.015427188947796822,0.21301670372486115
1700516906977054000,8.812053955078126,-0.01742386631667614,0.04929535090923309,-0.2596043646335602
1700516906987064800,8.82206494140625,-0.036007110029459,0.030554980039596558,-0.2539310157299042
1700516906997075000,8.832074951171874,-0.028102580457925797,0.09700138121843338,-0.21001814305782318
1700516907007085800,8.8420859375,-0.0032159651163965464,0.03943014144897461,0.032549332827329636
1700516907017096700,8.8520966796875,0.010002635419368744,0.1771957278251648,-0.0004443028010427952
1700516907027107800,8.86210791015625,0.012742750346660614,0.1150394007563591,0.14070630073547363
1700516907037119000,8.872118896484375,-0.0687907263636589,-0.014699948020279408,0.2937624156475067
1700516907047128800,8.88212890625,0.017431659623980522,0.18644244968891144,0.3379908800125122
1700516907057140000,8.892139892578125,-0.036833975464105606,0.004144015721976757,0.07731321454048157
1700516907067150800,8.90215087890625,-0.08895333856344223,-0.013957197777926922,0.13845010101795197
1700516907077161700,8.91216162109375,-0.03865155577659607,-0.0346134752035141,0.3484536409378052
1700516907087171800,8.922171875,-0.02617659419775009,0.06372189521789551,-0.09457950294017792
1700516907097183000,8.932182861328124,-0.09402381628751755,-0.08744072914123535,0.07261694222688675
1700516907107193900,8.94219384765625,-0.04513083025813103,-0.102946437895298,-0.09221154451370239
1700516907117205000,8.952205078125,-0.03650698438286781,0.02519688382744789,-0.10495050996541977
1700516907127215900,8.9622158203125,-0.0801396444439888,0.01621895842254162,-0.2292582392692566
1700516907137226000,8.97222607421875,-0.03695595636963844,-0.002356323879212141,0.02911658212542534
1700516907147236900,8.98223681640625,-0.021303679794073105,0.00919486302882433,0.16392402350902557
1700516907157247700,8.992247802734376,-0.013313930481672287,0.07042919099330902,-0.09661222994327545
1700516907167259000,9.0022587890625,-0.06944818049669266,0.0040620132349431515,0.22449927031993866
1700516907177269000,9.01226904296875,-0.05319570377469063,-0.05531556159257889,0.22221507132053375
1700516907187280000,9.02227978515625,-0.035258181393146515,0.05815718322992325,0.3462378978729248
1700516907197291000,9.032291015625,-0.06208500266075134,0.017739187926054,0.02233891561627388
1700516907207302000,9.042302001953125,-0.09557128697633743,-0.07541202008724213,0.12520341575145721
1700516907217312800,9.052312744140625,-0.07674486935138702,0.011544713750481606,0.20891427993774414
1700516907227323000,9.062322998046875,-0.08166907727718353,-0.10901208966970444,-0.24644580483436584
1700516907237333800,9.072333740234376,-0.09312546998262405,-0.07449246197938919,-0.030172880738973618
1700516907247345000,9.082344970703126,-0.09079902619123459,-0.14309212565422058,-0.11860185861587524
1700516907257356000,9.09235595703125,-0.07098004966974258,-0.04656133055686951,-0.17533090710639954
1700516907267366000,9.102365966796874,-0.08119349181652069,-0.09711810946464539,-0.4081173241138458
1700516907277376800,9.112376708984375,-0.04744671657681465,-0.14328879117965698,-0.27038130164146423
1700516907287388000,9.122387939453125,-0.06072090566158295,-0.03270851448178291,-0.10870908945798874
1700516907297398800,9.132398681640625,-0.027318742126226425,0.05577581003308296,-0.28398239612579346
1700516907307409700,9.14240966796875,-0.027720995247364044,0.042090244591236115,-0.06183258444070816
1700516907317419800,9.152419677734375,-0.06392373889684677,-0.028775671496987343,0.1789637953042984
1700516907327431000,9.162430908203126,0.018261443823575974,0.21601955592632294,0.18876858055591583
1700516907337442000,9.172442138671874,-0.02948131039738655,0.024168092757463455,0.1845749020576477
1700516907347453000,9.182452880859374,0.007753386162221432,0.031942013651132584,0.035375867038965225
1700516907357462800,9.192462890625,-0.02760753408074379,0.02325771190226078,0.2531515955924988
1700516907367474000,9.202473876953125,-0.03135797008872032,0.05620909482240677,0.007822969928383827
1700516907377484800,9.21248486328125,-0.034697309136390686,0.013504775241017342,-0.13529372215270996
1700516907387495700,9.22249560546875,-0.01205599308013916,-0.008546723052859306,0.13540081679821014
1700516907397505800,9.232505859375,-0.031993214040994644,-0.027839461341500282,0.006746438331902027
1700516907407517000,9.242516845703125,-0.01457460317760706,0.06613659858703613,0.23552176356315613
1700516907417527800,9.25252783203125,-0.04987160861492157,-0.010249250568449497,-0.2163705974817276
1700516907427539000,9.2625390625,-0.05723150819540024,-0.0319976806640625,0.05656679719686508
1700516907437548800,9.272548828125,0.015896763652563095,0.024795297533273697,0.12770675122737885
1700516907447560000,9.282559814453125,-0.039271462708711624,0.00856505986303091,-0.2095538079738617
1700516907457570800,9.29257080078125,-0.03875347971916199,0.017593441531062126,0.11229878664016724
1700516907467582000,9.30258203125,-0.048962656408548355,-0.021114137023687363,0.10361553728580475
1700516907477592800,9.3125927734375,-0.027500512078404427,0.05056989938020706,0.026153763756155968
1700516907487603000,9.32260302734375,-0.035790473222732544,-0.014308148995041847,0.021671980619430542
1700516907497613800,9.33261376953125,-0.03035762347280979,0.04230479523539543,-0.11074092239141464
1700516907507625000,9.342625,-0.054329827427864075,-0.04172595217823982,-0.04520386829972267
1700516907517635800,9.3526357421875,-0.03761902451515198,0.0828375443816185,-0.14702770113945007
1700516907527646000,9.36264599609375,-0.04854258894920349,0.04287763312458992,-0.3037477731704712
1700516907537656800,9.37265673828125,-0.01579795777797699,-0.01988508552312851,-0.08373576402664185
1700516907547668000,9.38266796875,-0.06541553139686584,-0.00577179528772831,0.020691022276878357
1700516907557678800,9.392678955078125,-0.01435793936252594,0.11545795947313309,-0.023668985813856125
1700516907567689000,9.40268896484375,-0.06423932313919067,-0.05309512838721275,-0.06756237894296646
1700516907577699800,9.412699951171875,-0.03739066794514656,-0.08022181689739227,-0.08024781197309494
1700516907587711000,9.4227109375,-0.03617370128631592,-0.028265243396162987,-0.15197491645812988
1700516907597721900,9.432721923828124,0.00020614475943148136,-0.06261655688285828,-0.13446809351444244
1700516907607731700,9.442731689453124,-0.05813652276992798,-0.11161845177412033,-0.2321232706308365
1700516907617742800,9.452742919921874,-0.022013673558831215,-0.023694992065429688,-0.19022029638290405
1700516907627754000,9.46275390625,-0.03508930653333664,0.02325240895152092,-0.08099072426557541
1700516907637764900,9.472764892578125,0.028180208057165146,0.12132464349269867,-0.09438642859458923
1700516907647776000,9.48277587890625,0.01772487536072731,0.07551398873329163,0.057660214602947235
1700516907657785900,9.492785888671875,-0.0028706807643175125,-0.018852196633815765,0.15128950774669647
1700516907667800300,9.50280029296875,-0.030251096934080124,0.1573682576417923,0.18508461117744446
1700516907677811700,9.512811767578125,0.02026107907295227,0.08435797691345215,0.22531351447105408
1700516907687822600,9.522822509765625,0.009004916064441204,0.00827052816748619,0.08267996460199356
1700516907697832700,9.532832763671875,-0.052146852016448975,0.02728043869137764,0.02489655837416649
1700516907707843600,9.542843505859375,-0.03819519653916359,-0.028331445530056953,0.08318360149860382
1700516907717854500,9.5528544921875,0.008366446010768414,0.0021598837338387966,-0.028428412973880768
1700516907727865300,9.562865234375,-0.02041277103126049,0.06552319973707199,0.07895947247743607
1700516907737875500,9.57287548828125,-0.01117399800568819,-0.06613363325595856,-0.02427530288696289
1700516907747886300,9.58288623046875,-0.039865028113126755,0.022569868713617325,-0.05868281424045563
1700516907757897700,9.592897705078125,0.022816764190793037,-0.0021129772067070007,0.035079482942819595
1700516907767908600,9.60290869140625,0.005138685926795006,0.1002272292971611,0.0709296315908432
1700516907777918500,9.61291845703125,-0.005861501209437847,-0.00834052637219429,0.11620070040225983
1700516907787929600,9.6229296875,-0.01624487154185772,-0.029277648776769638,0.09328124672174454
1700516907797940500,9.6329404296875,-0.002706958446651697,0.028693241998553276,0.05401880294084549
1700516907807951400,9.642951416015626,0.025537319481372833,0.044225361198186874,0.05195346847176552
1700516907817961500,9.65296142578125,-0.010739460587501526,0.018612144514918327,0.15564709901809692
1700516907827972600,9.66297265625,-0.014454327523708344,-0.08916334062814713,0.002134919399395585
1700516907837983500,9.6729833984375,-0.010262778028845787,0.02471049688756466,-0.1590648889541626
1700516907847994600,9.68299462890625,-0.05350673571228981,-0.035654570907354355,-0.32718580961227417
1700516907858005500,9.693005615234375,-0.00894939061254263,-0.009071429260075092,-0.06399811804294586
1700516907868015600,9.703015625,-0.04854762181639671,-0.0454183854162693,-0.12425030022859573
1700516907878026500,9.713026611328125,-0.03461183235049248,-0.008268086239695549,-0.3068355619907379
1700516907888037400,9.723037353515625,0.0005739181069657207,-0.10851268470287323,-0.2841104567050934
1700516907898048500,9.733048583984376,0.02168106846511364,-0.02775632217526436,-0.11922135949134827
1700516907908058600,9.74305859375,-0.0071702999994158745,0.031211286783218384,0.18682007491588593
1700516907918069500,9.753069580078124,-0.04483751580119133,-0.09603960812091827,0.2926162779331207
1700516907928080600,9.76308056640625,-0.03524230048060417,-0.07042467594146729,0.23782633244991302
1700516907938091500,9.773091552734375,-0.028294114395976067,0.001115285325795412,0.3144654631614685
1700516907948101600,9.7831015625,-0.02559676393866539,0.07703349739313126,0.41722121834754944
1700516907958112500,9.793112548828125,-0.004426232073456049,0.1180829331278801,0.471048504114151
1700516907968123400,9.803123291015625,-0.008781337179243565,-0.0840790867805481,0.29127997159957886
1700516907978134500,9.813134521484375,-0.028903383761644363,0.04886511340737343,0.11626339703798294
1700516907988144600,9.82314453125,-0.01944759488105774,-0.0017411946319043636,0.12937335669994354
1700516907998155500,9.833155517578126,-0.001254210015758872,0.1057991161942482,0.1336301565170288
1700516908008166700,9.843166748046874,-0.004269493743777275,0.014881052076816559,0.2994925081729889
1700516908018177500,9.853177490234375,-0.0005996575928293169,-0.09676611423492432,0.14683666825294495
1700516908028187400,9.8631875,0.0028186985291540623,0.08228114247322083,0.19842931628227234
1700516908038198500,9.873198486328125,-0.007348718121647835,0.04120773822069168,0.174355149269104
1700516908048209400,9.88320947265625,0.024736378341913223,0.007469880394637585,0.12827134132385254
1700516908058220500,9.893220458984375,0.005003419704735279,-0.018788620829582214,-0.04979400336742401
1700516908068230700,9.903230712890625,0.006409003399312496,0.012138010002672672,0.00003934372216463089
1700516908078241500,9.913241455078126,-0.017872633412480354,0.0437537282705307,0.06436799466609955
1700516908088252700,9.923252685546874,0.02057202346622944,0.023700105026364326,-0.04885711520910263
1700516908098262500,9.933262451171874,-0.002791621722280979,-0.02044152282178402,0.07052014023065567
1700516908108273400,9.9432734375,0.07862298935651779,0.22860026359558105,-0.06689346581697464
1700516908118284500,9.953284423828125,0.004382584244012833,-0.016135718673467636,-0.11421943455934525
1700516908128295400,9.96329541015625,-0.011597303673624992,0.1603100299835205,-0.08828578144311905
1700516908138305500,9.973305419921875,0.02699030190706253,0.4396553933620453,-0.3840412497520447
1700516908148316700,9.983316650390625,0.1663741171360016,-0.2928982079029083,-0.1301220804452896
1700516908158327600,9.99332763671875,-0.04542069882154465,-0.012667347677052021,0.08481711894273758
1700516908168338400,10.00333837890625,-0.11009866744279861,-0.1705659031867981,-0.0588277131319046
1700516908178348500,10.0133486328125,-0.030440591275691986,-0.20763976871967316,-0.15953807532787323
1700516908188359400,10.023359375,0.15476983785629272,0.4293428361415863,-0.11174888908863068
1700516908198370600,10.03337060546875,0.12719999253749847,-0.1739470511674881,0.1469748169183731
1700516908208381700,10.043381591796875,-0.0737619549036026,-0.18399807810783386,-0.014722440391778946
1700516908218391300,10.053391357421875,-0.00803194846957922,0.15945462882518768,0.024825502187013626
1700516908228402700,10.063402587890625,0.053366515785455704,0.012870240025222301,0.020050015300512314
1700516908238413600,10.07341357421875,0.0006215452449396253,-0.051342301070690155,-0.047640614211559296
1700516908248424400,10.083424560546876,0.08955865353345871,0.2409573346376419,-0.10839799046516418
1700516908258434600,10.0934345703125,0.09650471061468124,0.0021346393041312695,0.14228002727031708
1700516908268445400,10.103445556640626,0.051732100546360016,-0.009988861158490181,0.12718313932418823
1700516908278456600,10.11345654296875,0.03857368603348732,0.2151520997285843,0.07201895117759705
1700516908288467700,10.1234677734375,0.019159745424985886,-0.1116599515080452,0.08283789455890656
1700516908298477600,10.1334775390625,-0.007408215198665857,0.04187474399805069,-0.18410538136959076
1700516908308488700,10.14348876953125,0.006509419530630112,-0.038050852715969086,0.05590324103832245
1700516908318499600,10.15349951171875,-0.0012291937600821257,-0.028306877240538597,0.11713144928216934
1700516908328510500,10.163510498046875,0.03331049159169197,-0.060482654720544815,0.012130025774240494
1700516908338520600,10.1735205078125,-0.018091978505253792,-0.011668778955936432,-0.13540591299533844
1700516908348531500,10.183531494140626,-0.009053396061062813,-0.02804749086499214,0.07086415588855743
1700516908358542300,10.193542236328126,0.0007331890519708395,-0.030123155564069748,0.054133642464876175
1700516908368552400,10.203552490234374,0.002708018757402897,0.08797472715377808,0.03346998244524002
1700516908378563600,10.2135634765625,0.010566207580268383,-0.12557590007781982,0.15665316581726074
1700516908388574700,10.22357470703125,-0.005233125761151314,-0.026157841086387634,-0.2193751335144043
1700516908398585600,10.233585693359375,-0.0034384215250611305,-0.02216602861881256,-0.09902314841747284
1700516908408595500,10.243595458984375,-0.012325309216976166,-0.005212081596255302,0.04260852187871933
1700516908418606600,10.253606689453125,-0.005454620346426964,-0.09801498800516129,0.00263474159874022
1700516908428617500,10.263617431640625,-0.041766032576560974,-0.12941740453243256,-0.2707690894603729
1700516908438628400,10.27362841796875,-0.018388275057077408,0.031038859859108925,-0.11283164471387863
1700516908448638500,10.283638427734376,-0.025339365005493164,-0.1323910653591156,-0.0025300970301032066
1700516908458649600,10.293649658203124,0.020044628530740738,0.13163605332374573,-0.022897420451045036
1700516908468660500,10.303660400390624,-0.002040483057498932,-0.06280333548784256,0.0859895572066307
1700516908478671600,10.313671630859375,-0.05256650969386101,-0.1150745302438736,-0.2302970439195633
1700516908488681500,10.323681396484375,-0.023105740547180176,-0.00046060216845944524,-0.09322603046894073
1700516908498692600,10.333692626953125,-0.054152604192495346,0.08264893293380737,0.10676591843366623
1700516908508703500,10.343703369140625,0.03734881430864334,-0.015079226344823837,0.057086508721113205
1700516908518713600,10.353713623046875,-0.016587654128670692,-0.01773679442703724,-0.2181035280227661
1700516908528724500,10.363724365234376,-0.03928708657622337,0.004402867518365383,0.038398634642362595
1700516908538735600,10.373735595703126,0.019311778247356415,0.028567591682076454,0.06824548542499542
1700516908548746500,10.38374658203125,0.02671656385064125,0.16860099136829376,0.08138079941272736
1700516908558756600,10.393756591796874,0.021034710109233856,-0.08611597865819931,0.11632067710161209
1700516908568767500,10.403767578125,-0.02489456906914711,-0.0049450937658548355,-0.22489836812019348
1700516908578778600,10.413778564453125,-0.005522734485566616,-0.009256752207875252,0.05666487663984299
1700516908588789500,10.42378955078125,-0.017145121470093727,0.07038241624832153,0.18211990594863892
1700516908598799400,10.43379931640625,0.030273526906967163,-0.06620365381240845,0.04271141067147255
1700516908608810500,10.443810546875,-0.04429459199309349,-0.009660087525844574,-0.1630023717880249
1700516908618821600,10.453821533203126,-0.04781875014305115,-0.010410033166408539,0.1333928108215332
1700516908628831700,10.463831787109376,0.00007563165854662657,0.0009001455036923289,0.15104162693023682
1700516908638842600,10.473842529296874,-0.00569277536123991,0.14125166833400726,0.14990100264549255
1700516908648853500,10.483853515625,0.00966509710997343,-0.1557348668575287,0.09696697443723679
1700516908658864400,10.493864501953125,-0.02364252507686615,0.08665433526039124,-0.19734933972358704
1700516908668875000,10.503875,-0.008158509619534016,-0.013542975299060345,0.09239386767148972
1700516908678886000,10.513885986328125,0.0000685275299474597,0.0559423565864563,0.17177365720272064
1700516908688897000,10.52389697265625,0.029094230383634567,-0.06685999035835266,-0.03319676220417023
1700516908698907100,10.5339072265625,-0.03823820501565933,0.05294603481888771,-0.19260293245315552
1700516908708918000,10.54391796875,0.004319423343986273,-0.09256255626678467,0.08854281157255173
1700516908718929200,10.55392919921875,0.016380880028009415,0.05503914877772331,0.03303081914782524
1700516908728940000,10.56393994140625,0.00742618041113019,0.08265799283981323,0.12504293024539948
1700516908738950000,10.573949951171874,-0.012346459552645683,-0.1729053407907486,-0.07138703763484955
1700516908748961000,10.5839609375,-0.034602366387844086,0.08260033279657364,-0.214781254529953
1700516908758972000,10.593971923828125,-0.016420699656009674,-0.06984779238700867,0.1157521903514862
1700516908768982000,10.60398193359375,0.003126556985080242,0.041105084121227264,0.10718876868486404
1700516908778993200,10.6139931640625,-0.0010791068198159337,-0.10145952552556992,-0.1829269379377365
1700516908789004000,10.624004150390626,-0.05734606087207794,0.059671979397535324,-0.13765190541744232
1700516908799015200,10.63401513671875,0.00797541905194521,-0.10071343928575516,0.15183237195014954
1700516908809025000,10.64402490234375,-0.00038943777326494455,0.12284228950738907,0.050514090806245804
1700516908819036000,10.654035888671874,0.00867170188575983,-0.03373906388878822,0.14167356491088867
1700516908829047000,10.664047119140625,-0.018916955217719078,-0.05288773030042648,-0.13789479434490204
1700516908839057000,10.674056884765625,-0.018775274977087975,0.053619273006916046,-0.06866992264986038
1700516908849068000,10.684068115234375,-0.002287522656843066,0.008920920081436634,0.16320501267910004
1700516908859079200,10.6940791015625,0.012245879508554935,0.008165115490555763,0.12007805705070496
1700516908869090000,10.704090087890625,-0.02625086158514023,-0.06997456401586533,-0.15155166387557983
1700516908879100200,10.71410009765625,-0.040980540215969086,0.06896521151065826,-0.0241838488727808
1700516908889111000,10.724111083984376,-0.002718679141253233,-0.08612144738435745,0.17264585196971893
1700516908899122000,10.734121826171876,-0.01799883134663105,0.13723254203796387,0.10840985924005508
1700516908909132000,10.744132080078124,-0.007102463860064745,-0.09154537320137024,0.1870282143354416
1700516908919143000,10.754142822265624,-0.014567304402589798,0.013863072730600834,-0.13934724032878876
1700516908929153800,10.76415380859375,-0.028961163014173508,0.02051618881523609,0.021036513149738312
1700516908939165200,10.774165283203125,0.0074658202938735485,0.03438779339194298,0.20077885687351227
1700516908949175000,10.784175048828125,0.012532486580312252,-0.019740154966711998,0.09597451984882355
1700516908959186200,10.794186279296875,-0.01999669522047043,0.009174317121505737,-0.18535064160823822
1700516908969197000,10.804197021484375,-0.015420093201100826,0.01641691103577614,0.035249631851911545
1700516908979207000,10.81420703125,0.009566483087837696,-0.00047738366993144155,0.11013292521238327
1700516908989218000,10.824218017578126,-0.002867639297619462,0.12642383575439453,0.06976904720067978
1700516908999229000,10.83422900390625,0.0030006361193954945,-0.1108345165848732,0.06943988054990768
1700516909009240000,10.844239990234374,-0.01649153232574463,0.0713396891951561,-0.20181770622730255
1700516909019250200,10.854250244140625,-0.008799790404736996,-0.04034716263413429,0.05114104971289635
1700516909029261000,10.864260986328125,0.02612113766372204,0.09071297943592072,0.12741701304912567
1700516909039272200,10.874272216796875,0.00810298789292574,-0.0867941677570343,-0.044923339039087296
1700516909049282000,10.884281982421875,-0.024357393383979797,0.03662337362766266,-0.2450835406780243
1700516909059293000,10.89429296875,-0.0038300142623484135,-0.0569973960518837,0.10880449414253235
1700516909069304000,10.904303955078126,0.016038760542869568,0.03925378620624542,0.08605837821960449
1700516909079314000,10.91431396484375,-0.005546425469219685,0.09475672990083694,0.06868977099657059
1700516909089325000,10.924324951171876,-0.00938341859728098,-0.11793769896030426,0.004663863219320774
1700516909099336200,10.934336181640624,-0.01730312779545784,0.07618783414363861,-0.17394103109836578
1700516909109347000,10.94434716796875,-0.01831645891070366,-0.07380831986665726,0.10868959873914719
1700516909119357200,10.954357177734375,0.005723096430301666,0.0681682601571083,0.13594678044319153
1700516909129368000,10.9643681640625,-0.01823372207581997,-0.15981058776378632,-0.018070049583911896
1700516909139379000,10.97437890625,-0.04466532915830612,-0.038956332951784134,-0.12444042414426804
1700516909149389000,10.98438916015625,-0.019938722252845764,-0.24446168541908264,0.26733681559562683
1700516909159400000,10.99439990234375,0.009053247980773449,-0.06634841114282608,0.18743769824504852
1700516909169410800,11.004410888671876,-0.005518324673175812,-0.10121878981590271,0.21581581234931946
1700516909179421000,11.0144208984375,-0.018778735771775246,-0.08464593440294266,0.05714121833443642
1700516909189432000,11.02443212890625,-0.007849214598536491,-0.003403799142688513,-0.059709131717681885
1700516909199443200,11.034443115234374,-0.013692456297576427,-0.04713982716202736,0.13719888031482697
1700516909209454000,11.0444541015625,0.011833367869257927,0.023516623303294182,0.12618029117584229
1700516909219464000,11.0544638671875,-0.002357285935431719,-0.0721110999584198,-0.058012720197439194
1700516909229475000,11.06447509765625,0.002115887589752674,-0.003264510305598378,-0.09029554575681686
1700516909239486000,11.07448583984375,-0.0024173452984541655,-0.03364558517932892,0.13909876346588135
1700516909249496000,11.08449609375,0.03597039356827736,0.09182535856962204,-0.024330714717507362
1700516909259507000,11.0945068359375,-0.0010861585615202785,0.06887317448854446,0.04929610341787338
1700516909269518000,11.10451806640625,0.009963384829461575,0.06041017174720764,-0.09388843923807144
1700516909279528200,11.114528076171876,-0.008043577894568443,0.12964490056037903,-0.14315292239189148
1700516909289539000,11.1245390625,0.00628733541816473,0.10482850670814514,0.040775153785943985
1700516909299550000,11.134550048828125,0.012770001776516438,0.19503828883171082,-0.031908370554447174
1700516909309561000,11.14456103515625,0.01594844087958336,0.03560164198279381,-0.1905023604631424
1700516909319571000,11.154571044921875,-0.00853106938302517,0.08373401314020157,-0.195801243185997
1700516909329582000,11.16458203125,0.008078000508248806,-0.10795047134160995,0.10357321798801422
