time,seconds_elapsed,z,y,x
1700516042465591600,0.014591552734375,-0.9484100341796875,-0.130401611328125,0.05810546875
1700516042475600600,0.0246005859375,-0.96539306640625,0.0660552978515625,0.0244140625
1700516042485610800,0.03461083984375,-1.0985870361328125,-0.1905670166015625,0.044281005859375
1700516042495619800,0.044619873046875,-0.7884063720703125,-0.065765380859375,0.027374267578125
1700516042505629000,0.05462890625,-1.13055419921875,-0.079742431640625,0.0274505615234375
1700516042515638800,0.064638671875,-1.01336669921875,-0.0694732666015625,-0.00836181640625
1700516042525647600,0.074647705078125,-0.8776092529296875,0.038848876953125,0.0476226806640625
1700516042535657700,0.08465771484375,-0.8087615966796875,-0.30828857421875,0.08856201171875
1700516042545666800,0.094666748046875,-1.4189453125,0.046539306640625,-0.04315185546875
1700516042555675600,0.104675537109375,-0.950592041015625,-0.099853515625,0.0309295654296875
1700516042565685800,0.114685791015625,-0.8812255859375,0.025543212890625,0.0517425537109375
1700516042575694800,0.12469482421875,-0.9695281982421875,-0.2157135009765625,0.0456390380859375
1700516042585703700,0.13470361328125,-0.9100189208984375,-0.0695953369140625,0.0149688720703125
1700516042595713500,0.144713623046875,-1.1956939697265625,-0.0541229248046875,0.0367279052734375
1700516042605722600,0.15472265625,-0.97271728515625,-0.0559539794921875,-0.0061492919921875
1700516042615732700,0.164732666015625,-0.8143768310546875,0.0535736083984375,0.03387451171875
1700516042625741800,0.174741943359375,-0.8989715576171875,-0.3164520263671875,0.0857086181640625
1700516042635750700,0.184750732421875,-1.4196929931640625,0.05999755859375,-0.036834716796875
1700516042645760800,0.1947607421875,-0.9031982421875,-0.1152801513671875,0.03009033203125
1700516042655769900,0.204769775390625,-0.867950439453125,0.0310211181640625,0.0548553466796875
1700516042665778700,0.21477880859375,-1.0012359619140625,-0.212799072265625,0.037994384765625
1700516042675788500,0.22478857421875,-0.91754150390625,-0.0594940185546875,0.0141754150390625
1700516042685797600,0.234797607421875,-1.168060302734375,-0.0612640380859375,0.04107666015625
1700516042695806700,0.244806640625,-0.9700469970703125,-0.0417327880859375,-0.0064849853515625
1700516042705816800,0.25481689453125,-0.848846435546875,0.0252227783203125,0.03717041015625
1700516042715826000,0.264825927734375,-0.887054443359375,-0.311309814453125,0.095367431640625
1700516042725835800,0.274835693359375,-1.373931884765625,0.0648956298828125,-0.053497314453125
1700516042735844600,0.2848447265625,-0.9466552734375,-0.14398193359375,0.0363006591796875
1700516042745853700,0.294853759765625,-0.860504150390625,0.029815673828125,0.044525146484375
1700516042755863600,0.304863525390625,-0.996673583984375,-0.2203369140625,0.0343170166015625
1700516042765872000,0.3148720703125,-0.884429931640625,-0.0727386474609375,0.0011138916015625
1700516042775881200,0.324881103515625,-1.2174224853515625,-0.06109619140625,0.0365447998046875
1700516042785891300,0.334891357421875,-0.9638214111328125,-0.046539306640625,-0.014068603515625
1700516042795900400,0.344900390625,-0.8035736083984375,0.0179290771484375,0.0338287353515625
1700516042805910300,0.35491015625,-0.9063568115234375,-0.33001708984375,0.0905914306640625
1700516042815919400,0.36491943359375,-1.3797454833984375,0.0836944580078125,-0.061370849609375
1700516042825928400,0.374928466796875,-0.9402313232421875,-0.128875732421875,0.053466796875
1700516042835938600,0.3849384765625,-0.8684539794921875,0.0249176025390625,0.0555877685546875
1700516042845947400,0.394947509765625,-0.9749298095703125,-0.2033538818359375,0.026153564453125
1700516042855956200,0.404956298828125,-0.8800201416015625,-0.040313720703125,0.023284912109375
1700516042865966300,0.41496630859375,-1.2548828125,-0.0506439208984375,0.0473785400390625
1700516042875975400,0.424975341796875,-0.936614990234375,-0.013092041015625,-0.01141357421875
1700516042885984500,0.434984619140625,-0.7832794189453125,0.0071258544921875,0.05120849609375
1700516042895994400,0.444994384765625,-0.9578094482421875,-0.2934112548828125,0.0987396240234375
1700516042906003200,0.455003173828125,-1.4046173095703125,0.0804290771484375,-0.0550079345703125
1700516042916013300,0.465013427734375,-0.8778839111328125,-0.1083831787109375,0.0508880615234375
1700516042926022400,0.4750224609375,-0.899749755859375,0.0211181640625,0.072845458984375
1700516042936031200,0.48503125,-0.9502716064453125,-0.2447509765625,0.0223541259765625
1700516042946041300,0.495041259765625,-0.940216064453125,-0.0119476318359375,0.0166015625
1700516042956050400,0.505050537109375,-1.229034423828125,-0.0923004150390625,0.0514068603515625
1700516042966059500,0.5150595703125,-0.8960113525390625,-0.008331298828125,-0.028076171875
1700516042976069400,0.5250693359375,-0.766937255859375,-0.054595947265625,0.058258056640625
1700516042986078200,0.535078125,-1.0763092041015625,-0.2866668701171875,0.0807647705078125
1700516042996088300,0.54508837890625,-1.353302001953125,0.0741424560546875,-0.062652587890625
1700516043006097400,0.555097412109375,-0.8292694091796875,-0.1219635009765625,0.046417236328125
1700516043016106200,0.565106201171875,-0.960784912109375,0.0110015869140625,0.0678253173828125
1700516043026116400,0.575116455078125,-0.9055023193359375,-0.2601776123046875,0.017059326171875
1700516043036125400,0.58512548828125,-1.0036468505859375,0.0079803466796875,0.0035858154296875
1700516043046134300,0.59513427734375,-1.211334228515625,-0.11004638671875,0.053619384765625
1700516043056144100,0.60514404296875,-0.85296630859375,0.05242919921875,-0.0469207763671875
1700516043066153200,0.6151533203125,-0.708282470703125,-0.1591644287109375,0.094482421875
1700516043076163300,0.625163330078125,-1.1983642578125,-0.194244384765625,0.0416717529296875
1700516043086172400,0.63517236328125,-1.288238525390625,0.0307159423828125,-0.0406341552734375
1700516043096181500,0.645181396484375,-0.7630767822265625,-0.07135009765625,0.0415496826171875
1700516043106191400,0.65519140625,-0.973358154296875,-0.020599365234375,0.0579071044921875
1700516043116200400,0.665200439453125,-0.8943939208984375,-0.2774505615234375,0.027252197265625
1700516043126209300,0.675209228515625,-1.1398773193359375,0.0839080810546875,-0.00439453125
1700516043136219100,0.68521923828125,-0.998443603515625,-0.147613525390625,0.0644073486328125
1700516043146228200,0.695228271484375,-0.937652587890625,0.096771240234375,-0.0467987060546875
1700516043156238300,0.70523828125,-0.8676300048828125,-0.207122802734375,0.1193084716796875
1700516043166247400,0.715247314453125,-1.1862030029296875,-0.1091156005859375,-0.00360107421875
1700516043176256500,0.725256591796875,-0.9440155029296875,-0.0488433837890625,-0.010223388671875
1700516043186266400,0.735266357421875,-1.1433563232421875,0.02972412109375,0.066314697265625
1700516043196275200,0.745275146484375,-0.942047119140625,-0.09918212890625,0.00592041015625
1700516043206284300,0.7552841796875,-0.8804779052734375,-0.18719482421875,0.0702056884765625
1700516043216294400,0.76529443359375,-0.9533843994140625,-0.0319366455078125,-0.002288818359375
1700516043226303200,0.77530322265625,-1.1567840576171875,-0.089935302734375,0.0252685546875
1700516043236313300,0.785313232421875,-1.0016326904296875,0.1087799072265625,-0.0054779052734375
1700516043246322400,0.795322509765625,-0.802215576171875,-0.271514892578125,0.099639892578125
1700516043256331500,0.80533154296875,-1.148345947265625,-0.0866241455078125,-0.0050811767578125
1700516043266341400,0.81534130859375,-0.9045562744140625,-0.0903167724609375,-0.0048675537109375
1700516043276350200,0.82535009765625,-1.2165374755859375,0.0420074462890625,0.06585693359375
1700516043286359300,0.835359375,-0.902313232421875,-0.136871337890625,0.000091552734375
1700516043296369400,0.845369384765625,-0.838623046875,-0.1686553955078125,0.0621337890625
1700516043306378200,0.855378173828125,-1.069976806640625,-0.0600738525390625,-0.0004730224609375
1700516043316388400,0.865388427734375,-0.9850616455078125,-0.0921173095703125,0.0159759521484375
1700516043326397400,0.8753974609375,-1.0570831298828125,0.1052093505859375,-0.0024261474609375
1700516043336406300,0.88540625,-0.7967071533203125,-0.2789459228515625,0.10797119140625
1700516043346416000,0.895416015625,-1.2468719482421875,-0.042266845703125,-0.0421142578125
1700516043356425200,0.90542529296875,-0.9678497314453125,-0.1124114990234375,0.0506439208984375
1700516043366434300,0.915434326171875,-0.9172821044921875,0.0456085205078125,0.01434326171875
1700516043376444400,0.9254443359375,-1.0922088623046875,-0.1685333251953125,0.059051513671875
1700516043386453500,0.93545361328125,-0.791595458984375,-0.0794677734375,0.0098876953125
1700516043396463400,0.94546337890625,-1.170562744140625,-0.061492919921875,0.0461578369140625
1700516043406472400,0.955472412109375,-1.0119781494140625,-0.07244873046875,0.000732421875
1700516043416481300,0.965481201171875,-0.8592681884765625,0.0781707763671875,0.0137176513671875
1700516043426491100,0.9754912109375,-0.8334503173828125,-0.3005523681640625,0.1009368896484375
1700516043436500200,0.985500244140625,-1.399932861328125,0.0370941162109375,-0.0301513671875
1700516043446509300,0.99550927734375,-0.949981689453125,-0.110107421875,0.0289764404296875
1700516043456519400,1.00551953125,-0.843170166015625,0.0313720703125,0.0398101806640625
1700516043466528500,1.015528564453125,-1.053558349609375,-0.2047119140625,0.05645751953125
1700516043476538400,1.025538330078125,-0.8436737060546875,-0.0704345703125,-0.0000457763671875
1700516043486547200,1.035547119140625,-1.1958465576171875,-0.04931640625,0.043670654296875
1700516043496556300,1.045556396484375,-0.9752197265625,-0.0696563720703125,-0.0040435791015625
1700516043506566400,1.05556640625,-0.830902099609375,0.05145263671875,0.0102691650390625
1700516043516575200,1.0655751953125,-0.8760986328125,-0.3097991943359375,0.103118896484375
1700516043526585300,1.07558544921875,-1.3822021484375,0.041748046875,-0.038604736328125
1700516043536594400,1.085594482421875,-0.91693115234375,-0.1314697265625,0.02423095703125
1700516043546603500,1.095603515625,-0.8711700439453125,0.0380706787109375,0.050537109375
1700516043556613400,1.10561328125,-1.0425872802734375,-0.2028350830078125,0.034515380859375
1700516043566622200,1.115622314453125,-0.8464508056640625,-0.05694580078125,0.00225830078125
1700516043576631300,1.12563134765625,-1.234039306640625,-0.0607147216796875,0.04925537109375
1700516043586641400,1.135641357421875,-0.9491424560546875,-0.046234130859375,-0.0184478759765625
1700516043596650200,1.145650146484375,-0.7794189453125,0.02178955078125,0.029388427734375
1700516043606660400,1.155660400390625,-0.97930908203125,-0.2936859130859375,0.0988616943359375
1700516043616669400,1.16566943359375,-1.38409423828125,0.04620361328125,-0.0467529296875
1700516043626678300,1.17567822265625,-0.828338623046875,-0.12481689453125,0.03497314453125
1700516043636688100,1.185688232421875,-0.953216552734375,0.0528717041015625,0.064056396484375
1700516043646697200,1.195697265625,-1.0134124755859375,-0.23797607421875,0.0337982177734375
1700516043656707300,1.205707275390625,-0.857177734375,-0.0278167724609375,-0.00238037109375
1700516043666716400,1.21571630859375,-1.2262115478515625,-0.074615478515625,0.071502685546875
1700516043676725500,1.2257255859375,-0.9126739501953125,-0.005096435546875,-0.0393524169921875
1700516043686735400,1.2357353515625,-0.7821044921875,-0.02606201171875,0.048065185546875
1700516043696744400,1.245744384765625,-1.09002685546875,-0.2415771484375,0.0959320068359375
1700516043706754600,1.255754638671875,-1.2867279052734375,0.0146484375,-0.0658111572265625
1700516043716763100,1.26576318359375,-0.74688720703125,-0.0989532470703125,0.04888916015625
1700516043726772200,1.275772216796875,-1.0950775146484375,0.0482635498046875,0.07122802734375
1700516043736782300,1.2857822265625,-0.89410400390625,-0.2742462158203125,0.0117950439453125
1700516043746791400,1.29579150390625,-1.0174102783203125,0.0225372314453125,0.0073394775390625
1700516043756801300,1.30580126953125,-1.05902099609375,-0.1363983154296875,0.071502685546875
1700516043766810600,1.315810546875,-0.919830322265625,0.0486602783203125,-0.0528717041015625
1700516043776819500,1.3258193359375,-0.956756591796875,-0.080596923828125,0.0891265869140625
1700516043786829600,1.33582958984375,-0.9886322021484375,-0.1987152099609375,0.030731201171875
1700516043796838400,1.34583837890625,-1.2047882080078125,-0.030487060546875,-0.0153350830078125
1700516043806848500,1.3558486328125,-0.87335205078125,-0.0542755126953125,0.0277557373046875
1700516043816857600,1.365857666015625,-1.0933837890625,-0.0098876953125,0.0918731689453125
1700516043826866700,1.37586669921875,-0.84820556640625,-0.21539306640625,-0.0291900634765625
1700516043836876500,1.38587646484375,-1.03271484375,-0.010955810546875,0.0755615234375
1700516043846885400,1.395885498046875,-0.952301025390625,-0.155487060546875,0.0019683837890625
1700516043856895500,1.4058955078125,-1.1173553466796875,0.0922393798828125,-0.0010528564453125
1700516043866904600,1.415904541015625,-0.8317718505859375,-0.1110076904296875,0.0748748779296875
1700516043876913700,1.42591357421875,-1.0536041259765625,-0.21685791015625,0.017669677734375
1700516043886923500,1.435923583984375,-1.06842041015625,-0.0362701416015625,-0.0026397705078125
1700516043896932600,1.4459326171875,-1.038848876953125,-0.024200439453125,0.037445068359375
1700516043906942700,1.455942626953125,-0.98486328125,-0.0351715087890625,0.0706787109375
1700516043916951600,1.46595166015625,-0.90911865234375,-0.211669921875,-0.0185089111328125
1700516043926960400,1.47596044921875,-0.977081298828125,-0.011627197265625,0.0748748779296875
1700516043936970500,1.485970458984375,-0.9522552490234375,-0.148162841796875,-0.0054473876953125
1700516043946979600,1.4959794921875,-1.14593505859375,0.1132049560546875,0.007476806640625
1700516043956989400,1.505989501953125,-0.8434600830078125,-0.138214111328125,0.069488525390625
1700516043966998500,1.51599853515625,-1.03753662109375,-0.19305419921875,0.0265655517578125
1700516043977007600,1.526007568359375,-0.976287841796875,-0.054229736328125,-0.0121917724609375
1700516043987017700,1.536017822265625,-1.17626953125,0.0008392333984375,0.0543670654296875
1700516043997026600,1.546026611328125,-0.9357757568359375,-0.0445098876953125,0.0412445068359375
1700516044007036400,1.556036376953125,-0.921234130859375,-0.2006072998046875,0.0067596435546875
1700516044017045500,1.56604541015625,-0.9339141845703125,-0.029998779296875,0.056060791015625
1700516044027054600,1.5760546875,-0.9967498779296875,-0.140228271484375,0.002655029296875
1700516044037064400,1.586064453125,-1.1454925537109375,0.1174774169921875,0.0077667236328125
1700516044047073500,1.596073486328125,-0.82720947265625,-0.155548095703125,0.072509765625
1700516044057083600,1.606083740234375,-1.0357513427734375,-0.1871795654296875,0.0180206298828125
1700516044067092700,1.6160927734375,-0.968963623046875,-0.0567626953125,-0.00506591796875
1700516044077101600,1.6261015625,-1.198272705078125,0.001434326171875,0.0565032958984375
1700516044087111400,1.636111328125,-0.9192962646484375,-0.054901123046875,0.03369140625
1700516044097120500,1.64612060546875,-0.9284820556640625,-0.2034149169921875,0.012237548828125
1700516044107130600,1.656130615234375,-0.915771484375,-0.027008056640625,0.052886962890625
1700516044117139500,1.666139404296875,-1.018829345703125,-0.1487884521484375,0.0030517578125
1700516044127149600,1.676149658203125,-1.1357574462890625,0.130523681640625,0.002410888671875
1700516044137158700,1.68615869140625,-0.8453521728515625,-0.1618194580078125,0.08197021484375
1700516044147167500,1.69616748046875,-1.006500244140625,-0.1862640380859375,0.0111846923828125
1700516044157177300,1.70617724609375,-0.965576171875,-0.056884765625,-0.0058135986328125
1700516044167186400,1.7161865234375,-1.2138519287109375,0.002471923828125,0.0600433349609375
1700516044177196500,1.726196533203125,-0.9289703369140625,-0.0582275390625,0.03253173828125
1700516044187205600,1.73620556640625,-0.906768798828125,-0.1828155517578125,0.0097808837890625
1700516044197214700,1.746214599609375,-0.9365234375,-0.0450439453125,0.0657501220703125
1700516044207224600,1.756224609375,-0.97784423828125,-0.1345062255859375,-0.011383056640625
1700516044217233700,1.766233642578125,-1.1773529052734375,0.1224822998046875,0.0173187255859375
1700516044227243800,1.776243896484375,-0.8172607421875,-0.15911865234375,0.0740509033203125
1700516044237252400,1.78625244140625,-1.0434112548828125,-0.1973876953125,0.007843017578125
1700516044247261400,1.796261474609375,-0.938507080078125,-0.0386199951171875,-0.0055389404296875
1700516044257271600,1.806271484375,-1.2259979248046875,-0.000885009765625,0.06610107421875
1700516044267280600,1.81628076171875,-0.917022705078125,-0.0614166259765625,0.0164642333984375
1700516044277290500,1.82629052734375,-0.918182373046875,-0.1920928955078125,0.02618408203125
1700516044287299600,1.836299560546875,-0.9098358154296875,-0.033050537109375,0.0479888916015625
1700516044297309700,1.846309814453125,-1.0201568603515625,-0.1370086669921875,0.0026702880859375
1700516044307318500,1.856318603515625,-1.16094970703125,0.1282501220703125,0.0057525634765625
1700516044317327600,1.86632763671875,-0.807708740234375,-0.1760711669921875,0.0856475830078125
1700516044327337500,1.87633740234375,-1.041412353515625,-0.181549072265625,0.005645751953125
1700516044337346600,1.8863466796875,-0.928131103515625,-0.05511474609375,-0.00372314453125
1700516044347356700,1.896356689453125,-1.2353515625,0.0119476318359375,0.0706634521484375
1700516044357365500,1.906365478515625,-0.9247589111328125,-0.0756683349609375,0.0107879638671875
1700516044367374600,1.91637451171875,-0.8964385986328125,-0.1824798583984375,0.035369873046875
1700516044377384700,1.926384765625,-0.92230224609375,-0.0532073974609375,0.045562744140625
1700516044387393500,1.9363935546875,-1.0473785400390625,-0.12255859375,-0.0025787353515625
1700516044397403400,1.9464033203125,-1.155364990234375,0.13116455078125,0.0149383544921875
1700516044407412500,1.95641259765625,-0.7955169677734375,-0.206024169921875,0.08465576171875
1700516044417422600,1.966422607421875,-1.0571441650390625,-0.1668243408203125,-0.0035400390625
1700516044427431700,1.976431640625,-0.9491729736328125,-0.0428924560546875,0.0006866455078125
1700516044437440500,1.9864404296875,-1.21038818359375,0.02587890625,0.0767059326171875
1700516044447450600,1.99645068359375,-0.9232940673828125,-0.1033477783203125,-0.01318359375
1700516044457459500,2.00645947265625,-0.8952789306640625,-0.1787567138671875,0.0663299560546875
1700516044467469600,2.016469482421875,-0.8629302978515625,-0.0450286865234375,0.00775146484375
1700516044477478400,2.026478515625,-1.147735595703125,-0.1134490966796875,0.024810791015625
1700516044487488500,2.036488525390625,-1.117706298828125,0.130645751953125,-0.0058135986328125
1700516044497497600,2.04649755859375,-0.7831268310546875,-0.2286834716796875,0.098846435546875
1700516044507506700,2.056506591796875,-1.066925048828125,-0.13250732421875,-0.0150604248046875
1700516044517516500,2.0665166015625,-0.953033447265625,-0.064697265625,0.0098114013671875
1700516044527525600,2.076525634765625,-1.20806884765625,0.040496826171875,0.070159912109375
1700516044537535500,2.086535400390625,-0.9199371337890625,-0.12042236328125,-0.0119476318359375
1700516044547544600,2.096544677734375,-0.8707733154296875,-0.162872314453125,0.0670318603515625
1700516044557554400,2.106554443359375,-0.880767822265625,-0.0656585693359375,0.0154571533203125
1700516044567563500,2.1165634765625,-1.162353515625,-0.089080810546875,0.0087432861328125
1700516044577572600,2.126572509765625,-1.1085052490234375,0.11871337890625,0.013153076171875
1700516044587582500,2.13658251953125,-0.7689666748046875,-0.256072998046875,0.0913848876953125
1700516044597591600,2.146591552734375,-1.0711517333984375,-0.11639404296875,-0.0189056396484375
1700516044607601700,2.1566015625,-1.02142333984375,-0.06146240234375,0.01885986328125
1700516044617610500,2.166610595703125,-1.1537933349609375,0.0489349365234375,0.0682830810546875
1700516044627620400,2.176620361328125,-0.924285888671875,-0.1587066650390625,-0.0196685791015625
1700516044637629400,2.18662939453125,-0.8743133544921875,-0.147186279296875,0.08123779296875
1700516044647638500,2.196638427734375,-0.85186767578125,-0.0611419677734375,-0.0079498291015625
1700516044657648600,2.206648681640625,-1.2179412841796875,-0.0814361572265625,0.030242919921875
1700516044667657700,2.21665771484375,-1.0656585693359375,0.0944061279296875,-0.0018310546875
1700516044677667600,2.22666748046875,-0.7698974609375,-0.25213623046875,0.0987091064453125
1700516044687676400,2.236676513671875,-1.0608367919921875,-0.09222412109375,-0.0183563232421875
1700516044697686500,2.2466865234375,-1.0706024169921875,-0.07403564453125,0.0214080810546875
1700516044707695400,2.2566953125,-1.120849609375,0.06072998046875,0.0578765869140625
1700516044717705500,2.26670556640625,-0.9344940185546875,-0.1612548828125,-0.0082244873046875
1700516044727714600,2.276714599609375,-0.8558197021484375,-0.1277008056640625,0.0717620849609375
1700516044737723600,2.2867236328125,-0.859954833984375,-0.0776214599609375,0.0040740966796875
1700516044747733500,2.2967333984375,-1.221038818359375,-0.0721588134765625,0.0136871337890625
1700516044757742600,2.30674267578125,-1.062225341796875,0.096832275390625,0.0120849609375
1700516044767752700,2.316752685546875,-0.77252197265625,-0.2602386474609375,0.0890045166015625
1700516044777765600,2.326765625,-1.0703277587890625,-0.0912017822265625,-0.0175933837890625
1700516044787775700,2.336775634765625,-1.0597381591796875,-0.073089599609375,0.017791748046875
1700516044797784800,2.346784912109375,-1.116851806640625,0.048858642578125,0.0644073486328125
1700516044807794700,2.356794677734375,-0.949188232421875,-0.155517578125,-0.0141143798828125
1700516044817803800,2.3668037109375,-0.83404541015625,-0.1312255859375,0.0717620849609375
1700516044827812900,2.376812744140625,-0.9429473876953125,-0.0943450927734375,0.0091705322265625
1700516044837823000,2.386822998046875,-1.12103271484375,-0.0903472900390625,0.000946044921875
1700516044847831800,2.396831787109375,-1.092987060546875,0.1289215087890625,0.025421142578125
1700516044857841700,2.406841552734375,-0.7891998291015625,-0.277862548828125,0.0850982666015625
1700516044867850800,2.416850830078125,-1.1457672119140625,-0.094482421875,-0.02099609375
1700516044877860900,2.42686083984375,-0.9010772705078125,-0.0916595458984375,0.0185394287109375
1700516044887870000,2.436869873046875,-1.182281494140625,0.0290069580078125,0.06134033203125
1700516044897879800,2.4468798828125,-0.9279937744140625,-0.1295928955078125,0.0192108154296875
1700516044907889000,2.456888916015625,-0.8635406494140625,-0.1222686767578125,0.0211029052734375
1700516044917897700,2.466897705078125,-1.026641845703125,-0.06195068359375,0.0467376708984375
1700516044927907600,2.476907470703125,-1.0590972900390625,-0.1219940185546875,-0.001434326171875
1700516044937916700,2.486916748046875,-0.904632568359375,0.1201324462890625,-0.0047760009765625
1700516044947926800,2.4969267578125,-0.8746337890625,-0.239898681640625,0.112945556640625
1700516044957935900,2.506935791015625,-1.2631683349609375,-0.0180206298828125,-0.00665283203125
1700516044967945700,2.51694580078125,-1.0362701416015625,-0.101287841796875,-0.0221405029296875
1700516044977954800,2.526954833984375,-0.8400115966796875,0.002044677734375,0.0679168701171875
1700516044987965000,2.53696484375,-1.062042236328125,-0.104156494140625,0.0626678466796875
1700516044997973800,2.546973876953125,-0.80810546875,-0.128570556640625,-0.034088134765625
1700516045007983600,2.556983642578125,-1.1510467529296875,0.0146026611328125,0.0433349609375
1700516045017992700,2.56699267578125,-1.060821533203125,-0.1290435791015625,0.023193359375
1700516045028001800,2.577001708984375,-0.8654022216796875,0.10137939453125,-0.0299835205078125
1700516045038012000,2.587011962890625,-0.7933807373046875,-0.2693939208984375,0.12371826171875
1700516045048020700,2.597020751953125,-1.291229248046875,-0.070770263671875,-0.017913818359375
1700516045058030800,2.60703076171875,-1.1167449951171875,-0.0673370361328125,-0.021484375
1700516045068040000,2.6170400390625,-0.80810546875,-0.038177490234375,0.057952880859375
1700516045078049800,2.6270498046875,-1.0619049072265625,-0.1097869873046875,0.0637969970703125
1700516045088058600,2.63705859375,-0.82147216796875,-0.1819610595703125,-0.023590087890625
1700516045098068700,2.64706884765625,-1.143524169921875,-0.0023345947265625,0.035125732421875
1700516045108077800,2.657077880859375,-1.0662384033203125,-0.1531829833984375,0.037994384765625
1700516045118087700,2.667087646484375,-0.841400146484375,0.09930419921875,-0.037200927734375
1700516045128096800,2.6770966796875,-0.7921905517578125,-0.268218994140625,0.1318359375
1700516045138107000,2.68710693359375,-1.316375732421875,-0.0492706298828125,-0.021087646484375
1700516045148116000,2.697115966796875,-1.090087890625,-0.0552215576171875,-0.0195465087890625
1700516045158125800,2.707125732421875,-0.8018035888671875,-0.0198974609375,0.0484771728515625
1700516045168134700,2.717134765625,-1.0504302978515625,-0.083099365234375,0.073211669921875
1700516045178143700,2.727143798828125,-0.8275604248046875,-0.165283203125,-0.03045654296875
1700516045188153900,2.73715380859375,-1.1621551513671875,0.0435791015625,0.02581787109375
1700516045198162700,2.74716259765625,-1.051513671875,-0.120025634765625,0.036346435546875
1700516045208172800,2.7571728515625,-0.859375,0.120880126953125,-0.0481414794921875
1700516045218182000,2.767181884765625,-0.7911834716796875,-0.2640838623046875,0.1178741455078125
1700516045228191700,2.777191650390625,-1.338653564453125,-0.0121002197265625,-0.0332794189453125
1700516045238200800,2.787200927734375,-1.0795440673828125,-0.0713043212890625,-0.01336669921875
1700516045248211000,2.7972109375,-0.8112640380859375,-0.0115509033203125,0.03143310546875
1700516045258219800,2.8072197265625,-1.0494384765625,-0.1197052001953125,0.078582763671875
1700516045268229600,2.817229736328125,-0.8396759033203125,-0.1627655029296875,-0.0390777587890625
1700516045278238700,2.82723876953125,-1.1680755615234375,0.002197265625,0.0339813232421875
1700516045288248800,2.837248779296875,-1.035003662109375,-0.1419830322265625,0.0296478271484375
1700516045298258000,2.8472578125,-0.8485260009765625,0.10113525390625,-0.0313720703125
1700516045308267800,2.857267822265625,-0.800750732421875,-0.299896240234375,0.1247406005859375
1700516045318276900,2.86727685546875,-1.349090576171875,-0.019134521484375,-0.026824951171875
1700516045328287000,2.877286865234375,-1.0487060546875,-0.0952606201171875,0.006561279296875
1700516045338295800,2.8872958984375,-0.8208770751953125,-0.0113677978515625,0.0438079833984375
1700516045348305700,2.8973056640625,-1.03509521484375,-0.1314849853515625,0.0854949951171875
1700516045358314800,2.907314697265625,-0.8265533447265625,-0.153839111328125,-0.0170745849609375
1700516045368324900,2.917324951171875,-1.2004852294921875,0.0105438232421875,0.04541015625
1700516045378333700,2.927333740234375,-1.010284423828125,-0.1286773681640625,0.0322265625
1700516045388342800,2.9373427734375,-0.830657958984375,0.105743408203125,-0.011077880859375
1700516045398353000,2.947352783203125,-0.8137664794921875,-0.3046875,0.134063720703125
1700516045408362000,2.957362060546875,-1.353546142578125,0.03021240234375,-0.0312347412109375
1700516045418371800,2.967371826171875,-1.0479583740234375,-0.086273193359375,0.0166473388671875
1700516045428380700,2.977380615234375,-0.83355712890625,0.0177764892578125,0.056549072265625
1700516045438390800,2.987390869140625,-1.00262451171875,-0.1562347412109375,0.0719451904296875
1700516045448400000,2.99739990234375,-0.861663818359375,-0.1225433349609375,-0.016754150390625
1700516045458409700,3.00740966796875,-1.21435546875,0.0059661865234375,0.0394287109375
1700516045468418800,3.017418701171875,-0.979736328125,-0.114959716796875,0.01226806640625
1700516045478429000,3.027428955078125,-0.84832763671875,0.08746337890625,-0.0119781494140625
1700516045488438000,3.03743798828125,-0.839263916015625,-0.30133056640625,0.110504150390625
1700516045498448000,3.04744775390625,-1.364654541015625,0.0453338623046875,-0.04547119140625
1700516045508456700,3.057456787109375,-1.0080413818359375,-0.1142120361328125,-0.0007781982421875
1700516045518466800,3.067466796875,-0.8387451171875,0.0213470458984375,0.0431060791015625
1700516045528475600,3.0774755859375,-1.018402099609375,-0.17181396484375,0.0584716796875
1700516045538485800,3.08748583984375,-0.8473968505859375,-0.1168365478515625,-0.03564453125
1700516045548494800,3.097494873046875,-1.20953369140625,-0.017425537109375,0.0413970947265625
1700516045558504700,3.107504638671875,-0.9795379638671875,-0.097625732421875,-0.0008392333984375
1700516045568513800,3.117513671875,-0.83624267578125,0.0658721923828125,-0.001190185546875
1700516045578524000,3.12752392578125,-0.8527374267578125,-0.310333251953125,0.1082916259765625
1700516045588532700,3.13753271484375,-1.35711669921875,0.0558929443359375,-0.04388427734375
1700516045598542600,3.14754248046875,-0.99969482421875,-0.1260833740234375,0.0058746337890625
1700516045608551700,3.1575517578125,-0.8489532470703125,0.0299530029296875,0.0548858642578125
1700516045618561800,3.167561767578125,-1.0113525390625,-0.1805572509765625,0.0604248046875
1700516045628571000,3.17757080078125,-0.83905029296875,-0.1061248779296875,-0.02972412109375
1700516045638580700,3.187580810546875,-1.2369384765625,-0.01800537109375,0.05438232421875
1700516045648590800,3.1975908203125,-0.97222900390625,-0.0839996337890625,0.001068115234375
1700516045658600000,3.207599853515625,-0.823089599609375,0.0592041015625,0.0038604736328125
1700516045668609800,3.21760986328125,-0.867279052734375,-0.308502197265625,0.1212005615234375
1700516045678619000,3.227618896484375,-1.370819091796875,0.0675811767578125,-0.044921875
1700516045688629000,3.23762890625,-0.973907470703125,-0.1293487548828125,0.0150299072265625
1700516045698637800,3.247637939453125,-0.8584136962890625,0.031951904296875,0.065521240234375
1700516045708647700,3.257647705078125,-1.000518798828125,-0.1917572021484375,0.05780029296875
1700516045718656800,3.26765673828125,-0.8324127197265625,-0.091461181640625,-0.0249481201171875
1700516045728667000,3.2776669921875,-1.256866455078125,-0.030303955078125,0.0629119873046875
1700516045738675700,3.28767578125,-0.965057373046875,-0.0651397705078125,-0.009674072265625
1700516045748685800,3.297685791015625,-0.8034820556640625,0.0407257080078125,0.010223388671875
1700516045758695000,3.30769482421875,-0.89398193359375,-0.30792236328125,0.117889404296875
1700516045768704800,3.317704833984375,-1.3926239013671875,0.0767822265625,-0.0554351806640625
1700516045778713300,3.32771337890625,-0.9455108642578125,-0.13470458984375,0.0141754150390625
1700516045788723200,3.33772314453125,-0.874420166015625,0.0355224609375,0.0699462890625
1700516045798732300,3.347732177734375,-0.9698944091796875,-0.2177734375,0.0405120849609375
1700516045808742400,3.357742431640625,-0.8663177490234375,-0.0722503662109375,-0.0296783447265625
1700516045818751000,3.3677509765625,-1.2642059326171875,-0.040863037109375,0.06304931640625
1700516045828761000,3.377760986328125,-0.932159423828125,-0.0453643798828125,-0.0257720947265625
1700516045838770200,3.387770263671875,-0.7772064208984375,0.00274658203125,0.02288818359375
1700516045848780000,3.397780029296875,-0.944183349609375,-0.2938232421875,0.1048583984375
1700516045858789000,3.4077890625,-1.3980560302734375,0.0861053466796875,-0.0626373291015625
1700516045868799200,3.41779931640625,-0.896270751953125,-0.1364288330078125,0.01947021484375
1700516045878809000,3.42780908203125,-0.9035797119140625,0.0438079833984375,0.0754241943359375
1700516045888818200,3.437818115234375,-0.9213714599609375,-0.2488861083984375,0.0324249267578125
1700516045898828300,3.447828369140625,-0.9404754638671875,-0.03057861328125,-0.0260162353515625
1700516045908837000,3.457837158203125,-1.25103759765625,-0.0610809326171875,0.071197509765625
1700516045918847000,3.467846923828125,-0.88995361328125,-0.0105438232421875,-0.0361175537109375
1700516045928856000,3.47785595703125,-0.76312255859375,-0.0529632568359375,0.05267333984375
1700516045938866200,3.4878662109375,-1.03533935546875,-0.249786376953125,0.082366943359375
1700516045948875300,3.497875244140625,-1.369964599609375,0.0801544189453125,-0.058135986328125
1700516045958885000,3.507885009765625,-0.8446044921875,-0.1248321533203125,0.0321502685546875
1700516045968894200,3.517894287109375,-0.9332275390625,0.0323638916015625,0.0839080810546875
1700516045978904300,3.527904296875,-0.87994384765625,-0.273162841796875,0.0241851806640625
1700516045988913200,3.5379130859375,-1.0405731201171875,0.0220184326171875,-0.0213165283203125
1700516045998923000,3.547923095703125,-1.190399169921875,-0.1051483154296875,0.0793609619140625
1700516046008933000,3.55793310546875,-0.86163330078125,0.0358428955078125,-0.048736572265625
1700516046018942200,3.567942138671875,-0.7646636962890625,-0.1282958984375,0.08233642578125
1700516046028952000,3.5779521484375,-1.135955810546875,-0.1800689697265625,0.0456390380859375
1700516046038961200,3.587961181640625,-1.3080596923828125,0.0447845458984375,-0.04425048828125
1700516046048971300,3.59797119140625,-0.807373046875,-0.101654052734375,0.0364227294921875
1700516046058980400,3.60798046875,-0.9565887451171875,0.003814697265625,0.08428955078125
1700516046068990200,3.617990234375,-0.8636932373046875,-0.2731475830078125,0.010223388671875
1700516046078999300,3.627999267578125,-1.120025634765625,0.0580902099609375,-0.0146636962890625
1700516046089009400,3.638009521484375,-1.111419677734375,-0.1453704833984375,0.0745086669921875
1700516046099018000,3.64801806640625,-0.856597900390625,0.0762176513671875,-0.04937744140625
1700516046109028000,3.658028076171875,-0.7865142822265625,-0.1938018798828125,0.099609375
1700516046119038200,3.6680380859375,-1.1984100341796875,-0.1033782958984375,0.0130615234375
1700516046129047000,3.678047119140625,-1.237091064453125,-0.0085601806640625,-0.02618408203125
1700516046139057200,3.68805712890625,-0.79461669921875,-0.0734100341796875,0.02923583984375
1700516046149066200,3.698066162109375,-0.9864501953125,-0.0307159423828125,0.08953857421875
1700516046159076000,3.708076171875,-0.85528564453125,-0.2408447265625,-0.0098419189453125
1700516046169085200,3.718085205078125,-1.141357421875,0.0536651611328125,-0.0003509521484375
1700516046179095300,3.72809521484375,-1.090484619140625,-0.1552581787109375,0.0626678466796875
1700516046189104000,3.738104248046875,-0.8514556884765625,0.1033935546875,-0.0478668212890625
1700516046199114000,3.748114013671875,-0.7917022705078125,-0.238067626953125,0.1125030517578125
1700516046209124000,3.7581240234375,-1.2406005859375,-0.063446044921875,-0.00439453125
1700516046219133200,3.76813330078125,-1.1942138671875,-0.039306640625,-0.0208892822265625
1700516046229143000,3.77814306640625,-0.7915191650390625,-0.0462799072265625,0.0338287353515625
1700516046239152000,3.788152099609375,-0.999664306640625,-0.06134033203125,0.087188720703125
1700516046249162200,3.798162353515625,-0.850830078125,-0.22113037109375,-0.0201263427734375
1700516046259171300,3.80817138671875,-1.16363525390625,0.052093505859375,0.0135955810546875
1700516046269181200,3.81818115234375,-1.0511474609375,-0.1582794189453125,0.053436279296875
1700516046279191300,3.82819140625,-0.866607666015625,0.1084442138671875,-0.0424346923828125
1700516046289200000,3.8382001953125,-0.805511474609375,-0.2541351318359375,0.11669921875
1700516046299210000,3.8482099609375,-1.2524566650390625,-0.0370330810546875,-0.0123138427734375
1700516046309219000,3.858218994140625,-1.1558074951171875,-0.06109619140625,-0.0113372802734375
1700516046319229200,3.868229248046875,-0.8010101318359375,-0.0328369140625,0.02838134765625
1700516046329238300,3.87823828125,-1.020355224609375,-0.079193115234375,0.0941925048828125
1700516046339248000,3.888248046875,-0.8331451416015625,-0.1918792724609375,-0.0288848876953125
1700516046349258200,3.89825830078125,-1.1550445556640625,0.03076171875,0.022705078125
1700516046359267300,3.908267333984375,-1.06903076171875,-0.1455841064453125,0.04461669921875
1700516046369277200,3.918277099609375,-0.8565673828125,0.1074676513671875,-0.0378570556640625
1700516046379286300,3.928286376953125,-0.80035400390625,-0.2618560791015625,0.11871337890625
1700516046389296000,3.938296142578125,-1.2676239013671875,-0.0347747802734375,-0.0134429931640625
1700516046399305200,3.94830517578125,-1.1537017822265625,-0.0594940185546875,-0.017120361328125
1700516046409315000,3.958315185546875,-0.7931671142578125,-0.0327301025390625,0.0380096435546875
1700516046419325200,3.9683251953125,-1.0272369384765625,-0.0883026123046875,0.0896453857421875
1700516046429334300,3.978334228515625,-0.83056640625,-0.186431884765625,-0.0310211181640625
1700516046439344000,3.98834423828125,-1.161468505859375,0.029693603515625,0.0257110595703125
1700516046449353200,3.998353271484375,-1.06365966796875,-0.143768310546875,0.046630859375
1700516046459363300,4.00836328125,-0.8574066162109375,0.1084442138671875,-0.0451202392578125
1700516046469372200,4.0183720703125,-0.79833984375,-0.269317626953125,0.128936767578125
1700516046479382300,4.02838232421875,-1.2897491455078125,-0.0255584716796875,-0.019012451171875
1700516046489392400,4.038392333984375,-1.134185791015625,-0.06146240234375,-0.0193634033203125
1700516046499401200,4.048401123046875,-0.79998779296875,-0.0263824462890625,0.0418853759765625
1700516046509411000,4.0584111328125,-1.0211639404296875,-0.0988006591796875,0.08740234375
1700516046519420200,4.068420166015625,-0.8245391845703125,-0.1847991943359375,-0.0323638916015625
1700516046529430300,4.07843017578125,-1.1851806640625,0.0327911376953125,0.02618408203125
1700516046539440000,4.088440185546875,-1.0396270751953125,-0.1426544189453125,0.0439300537109375
1700516046549449200,4.09844921875,-0.852630615234375,0.1068878173828125,-0.044189453125
1700516046559459300,4.108459228515625,-0.8033447265625,-0.276641845703125,0.12908935546875
1700516046569468200,4.11846826171875,-1.3079986572265625,-0.0061492919921875,-0.025726318359375
1700516046579478300,4.128478271484375,-1.112030029296875,-0.0747833251953125,-0.01226806640625
1700516046589487000,4.138487060546875,-0.8033447265625,-0.0147857666015625,0.0386962890625
1700516046599497000,4.1484970703125,-1.02069091796875,-0.112060546875,0.0876007080078125
1700516046609507000,4.158507080078125,-0.832061767578125,-0.1724700927734375,-0.0333251953125
1700516046619516200,4.16851611328125,-1.185638427734375,0.0247039794921875,0.028778076171875
1700516046629526000,4.178526123046875,-1.0341644287109375,-0.138153076171875,0.037109375
1700516046639535000,4.18853515625,-0.8538665771484375,0.1067657470703125,-0.038818359375
1700516046649545200,4.198545166015625,-0.80621337890625,-0.290374755859375,0.127685546875
1700516046659555000,4.20855517578125,-1.3182373046875,0.0066680908203125,-0.0278778076171875
1700516046669564200,4.218564208984375,-1.09600830078125,-0.0861968994140625,-0.0096435546875
1700516046679574300,4.22857421875,-0.809661865234375,-0.0065155029296875,0.041168212890625
1700516046689583000,4.2385830078125,-1.0310211181640625,-0.121795654296875,0.0845794677734375
1700516046699593000,4.248593017578125,-0.8036041259765625,-0.163360595703125,-0.0338134765625
1700516046709603000,4.25860302734375,-1.2167816162109375,0.014129638671875,0.0374298095703125
1700516046719612200,4.268612060546875,-1.0322265625,-0.119781494140625,0.027496337890625
1700516046729622000,4.2786220703125,-0.8238983154296875,0.0943603515625,-0.0326385498046875
1700516046739631000,4.288631103515625,-0.81689453125,-0.3017730712890625,0.13360595703125
1700516046749641200,4.29864111328125,-1.350250244140625,0.0224151611328125,-0.0385589599609375
1700516046759651000,4.308651123046875,-1.0596923828125,-0.09161376953125,-0.0041656494140625
1700516046769660200,4.31866015625,-0.824951171875,0.006256103515625,0.048980712890625
1700516046779670500,4.32867041015625,-0.9981231689453125,-0.153778076171875,0.07421875
1700516046789679600,4.3386796875,-0.832000732421875,-0.1434326171875,-0.0302734375
1700516046799689500,4.348689453125,-1.229034423828125,0.0145416259765625,0.0374755859375
1700516046809699600,4.358699462890625,-0.9976806640625,-0.114898681640625,0.0189666748046875
1700516046819708400,4.36870849609375,-0.8321380615234375,0.0845489501953125,-0.0240936279296875
1700516046829718300,4.37871826171875,-0.8325653076171875,-0.3102264404296875,0.1324005126953125
1700516046839728400,4.388728271484375,-1.3664093017578125,0.0466461181640625,-0.0439910888671875
1700516046849737500,4.398737548828125,-1.0226593017578125,-0.1089324951171875,0.005462646484375
1700516046859747300,4.408747314453125,-0.8481903076171875,0.013519287109375,0.0479888916015625
1700516046869756400,4.41875634765625,-0.9973297119140625,-0.160247802734375,0.070831298828125
1700516046879766500,4.4287666015625,-0.827789306640625,-0.12725830078125,-0.027252197265625
1700516046889776400,4.4387763671875,-1.2668304443359375,-0.0012054443359375,0.04888916015625
1700516046899785500,4.448785400390625,-0.977081298828125,-0.0768890380859375,-0.0041046142578125
1700516046909795600,4.458795654296875,-0.7919158935546875,0.06146240234375,-0.0013580322265625
1700516046919804400,4.468804443359375,-0.8791961669921875,-0.31890869140625,0.1223907470703125
1700516046929814300,4.478814208984375,-1.39007568359375,0.076019287109375,-0.055267333984375
1700516046939824400,4.488824462890625,-0.9719696044921875,-0.1056365966796875,0.0171051025390625
1700516046949833500,4.49883349609375,-0.8621063232421875,0.0357208251953125,0.0582733154296875
1700516046959843300,4.50884326171875,-0.9418792724609375,-0.2166290283203125,0.0511627197265625
1700516046969853400,4.518853515625,-0.9177093505859375,-0.069580078125,-0.0230865478515625
1700516046979862500,4.528862548828125,-1.234375,-0.0141754150390625,0.0486907958984375
1700516046989872400,4.538872314453125,-0.9285430908203125,-0.0634918212890625,-0.013092041015625
1700516046999881500,4.548881591796875,-0.799530029296875,0.0250396728515625,0.0175933837890625
1700516047009891600,4.5588916015625,-0.93511962890625,-0.295318603515625,0.0988311767578125
1700516047019901400,4.5689013671875,-1.373046875,0.0728302001953125,-0.0534210205078125
1700516047029910300,4.57891015625,-0.9158782958984375,-0.1432647705078125,0.0289154052734375
1700516047039920400,4.58892041015625,-0.894561767578125,0.03948974609375,0.060302734375
1700516047049930200,4.59893017578125,-0.94696044921875,-0.23370361328125,0.0383148193359375
1700516047059939300,4.608939208984375,-0.9397125244140625,-0.0689849853515625,-0.02020263671875
1700516047069949400,4.618949462890625,-1.2092132568359375,-0.076446533203125,0.0609588623046875
1700516047079958500,4.62895849609375,-0.90887451171875,-0.0320281982421875,-0.0250701904296875
1700516047089968400,4.638968505859375,-0.7998199462890625,-0.024261474609375,0.04547119140625
1700516047099978500,4.648978515625,-0.9786224365234375,-0.30401611328125,0.0776214599609375
1700516047109987600,4.658987548828125,-1.341644287109375,0.07708740234375,-0.04302978515625
1700516047119997400,4.66899755859375,-0.879608154296875,-0.1381988525390625,0.042327880859375
1700516047130007600,4.679007568359375,-0.928070068359375,0.0407562255859375,0.067352294921875
1700516047140016400,4.689016357421875,-0.9260101318359375,-0.23907470703125,0.040435791015625
1700516047150026200,4.699026123046875,-0.972412109375,0.0016326904296875,-0.0040130615234375
1700516047160035300,4.709035400390625,-1.185394287109375,-0.0779266357421875,0.067626953125
1700516047170045400,4.71904541015625,-0.9124755859375,0.0312957763671875,-0.0276031494140625
1700516047180055300,4.72905517578125,-0.814727783203125,-0.0431976318359375,0.0723876953125
1700516047190064400,4.739064453125,-1.0195465087890625,-0.234710693359375,0.06884765625
1700516047200074500,4.749074462890625,-1.32537841796875,0.0800628662109375,-0.0423583984375
1700516047210084400,4.75908447265625,-0.8662109375,-0.1105499267578125,0.038116455078125
1700516047220093400,4.769093505859375,-0.9594879150390625,0.0427398681640625,0.07403564453125
1700516047230103600,4.779103515625,-0.909942626953125,-0.254913330078125,0.014495849609375
1700516047240113400,4.789113525390625,-1.004913330078125,0.0110626220703125,-0.0123748779296875
1700516047250122200,4.799122314453125,-1.1642303466796875,-0.1206512451171875,0.0709381103515625
1700516047260132400,4.80913232421875,-0.8973541259765625,0.0310516357421875,-0.051849365234375
1700516047270141400,4.819141357421875,-0.79058837890625,-0.1101837158203125,0.0681915283203125
1700516047280151300,4.8291513671875,-1.1249847412109375,-0.2087554931640625,0.0482177734375
1700516047290161400,4.839161376953125,-1.2698516845703125,0.0119781494140625,-0.0540771484375
1700516047300170500,4.84917041015625,-0.813507080078125,-0.135955810546875,0.0220947265625
1700516047310180400,4.859180419921875,-0.9798736572265625,0.0290985107421875,0.078155517578125
1700516047320190500,4.8691904296875,-0.922698974609375,-0.2746734619140625,-0.012237548828125
1700516047330199600,4.879199462890625,-1.0141754150390625,0.00726318359375,-0.0189666748046875
1700516047340209400,4.88920947265625,-1.1349029541015625,-0.13201904296875,0.0650787353515625
1700516047350219500,4.899219482421875,-0.8897552490234375,0.0473175048828125,-0.061767578125
1700516047360228600,4.909228515625,-0.7975311279296875,-0.127349853515625,0.085296630859375
1700516047370238200,4.91923828125,-1.090087890625,-0.19561767578125,0.0294036865234375
1700516047380248300,4.929248291015625,-1.2728424072265625,0.0477294921875,-0.0341796875
1700516047390257400,4.93925732421875,-0.841064453125,-0.1035919189453125,0.0270233154296875
1700516047400267300,4.949267333984375,-0.9586944580078125,0.03271484375,0.0879364013671875
1700516047410276400,4.9592763671875,-0.910675048828125,-0.240631103515625,0.0047149658203125
1700516047420286500,4.969286376953125,-1.0177001953125,0.0435028076171875,0.0031890869140625
1700516047430296300,4.97929638671875,-1.1542510986328125,-0.12847900390625,0.0794830322265625
1700516047440306400,4.989306396484375,-0.900482177734375,0.0758056640625,-0.038909912109375
1700516047450315500,4.9993154296875,-0.7993011474609375,-0.117523193359375,0.0908660888671875
1700516047460325400,5.009325439453125,-1.0937042236328125,-0.1810302734375,0.0456085205078125
1700516047470334500,5.01933447265625,-1.29296875,0.0339508056640625,-0.020843505859375
1700516047480344600,5.029344482421875,-0.8206634521484375,-0.101470947265625,0.0318145751953125
1700516047490354400,5.0393544921875,-0.9702911376953125,-0.0023345947265625,0.1064605712890625
1700516047500363300,5.04936328125,-0.9285736083984375,-0.24090576171875,0.00244140625
1700516047510373400,5.059373291015625,-0.989715576171875,0.0128631591796875,0.0049896240234375
1700516047520383200,5.06938330078125,-1.1678009033203125,-0.1456756591796875,0.0705108642578125
1700516047530392300,5.079392333984375,-0.907257080078125,0.04376220703125,-0.0352935791015625
1700516047540402400,5.08940234375,-0.748779296875,-0.132415771484375,0.0713043212890625
1700516047550412500,5.09941259765625,-1.165618896484375,-0.215667724609375,0.051177978515625
1700516047560421400,5.10942138671875,-1.184234619140625,-0.00103759765625,-0.050262451171875
1700516047570431500,5.119431396484375,-0.88836669921875,-0.07281494140625,0.0171051025390625
1700516047580441600,5.129441650390625,-1.0149078369140625,-0.015625,0.0889129638671875
1700516047590450400,5.139450439453125,-0.9189605712890625,-0.22039794921875,-0.0265045166015625
1700516047600460500,5.14946044921875,-0.9450531005859375,-0.02008056640625,0.0512237548828125
1700516047610470700,5.159470703125,-1.02044677734375,-0.1342620849609375,0.0049896240234375
1700516047620479200,5.169479248046875,-1.086669921875,0.07867431640625,-0.0265960693359375
1700516047630489300,5.1794892578125,-0.909942626953125,-0.027679443359375,0.0747528076171875
1700516047640499500,5.18949951171875,-0.9772796630859375,-0.25732421875,0.0511322021484375
1700516047650508300,5.19950830078125,-1.025054931640625,-0.0508575439453125,-0.0380859375
1700516047660518400,5.209518310546875,-1.1007843017578125,-0.0005035400390625,0.0606231689453125
1700516047670528500,5.219528564453125,-1.024200439453125,-0.0179595947265625,0.0644989013671875
1700516047680537300,5.229537353515625,-0.9285888671875,-0.1767425537109375,-0.0024871826171875
1700516047690547500,5.23954736328125,-0.84466552734375,-0.0408935546875,0.09088134765625
1700516047700557600,5.2495576171875,-1.1312103271484375,-0.14581298828125,0.0105743408203125
1700516047710566400,5.25956640625,-1.086151123046875,0.0711517333984375,-0.0230560302734375
1700516047720576500,5.269576416015625,-0.733642578125,-0.043212890625,0.0723419189453125
1700516047730586600,5.279586669921875,-1.065673828125,-0.244171142578125,0.086944580078125
1700516047740595500,5.289595458984375,-1.267303466796875,0.0224151611328125,-0.0628204345703125
1700516047750605300,5.299605224609375,-0.896392822265625,-0.0722198486328125,0.0362701416015625
1700516047760615400,5.309615478515625,-0.9909210205078125,-0.01788330078125,0.0897674560546875
1700516047770624500,5.31962451171875,-0.871124267578125,-0.24609375,0.012298583984375
1700516047780634400,5.32963427734375,-0.8736114501953125,-0.0234832763671875,0.019866943359375
1700516047790644500,5.33964453125,-1.277740478515625,-0.08355712890625,0.0391082763671875
1700516047800653600,5.349653564453125,-0.965240478515625,0.0188140869140625,-0.0457916259765625
1700516047810663400,5.359663330078125,-0.723297119140625,-0.0337371826171875,0.0582122802734375
1700516047820673500,5.369673583984375,-0.982421875,-0.318634033203125,0.0962677001953125
1700516047830682600,5.3796826171875,-1.388397216796875,0.077972412109375,-0.0838775634765625
1700516047840692500,5.3896923828125,-0.8874664306640625,-0.0525970458984375,0.052734375
1700516047850702600,5.39970263671875,-0.972259521484375,-0.0061492919921875,0.0522308349609375
1700516047860711700,5.409711669921875,-0.8614044189453125,-0.256622314453125,0.0218963623046875
1700516047870721500,5.419721435546875,-0.9077606201171875,-0.000823974609375,-0.0026702880859375
1700516047880731600,5.429731689453125,-1.2738189697265625,-0.0626678466796875,0.0346221923828125
1700516047890741200,5.4397412109375,-0.9682464599609375,0.02313232421875,-0.0419769287109375
1700516047900750300,5.449750244140625,-0.6840972900390625,-0.0589447021484375,0.066864013671875
1700516047910760400,5.459760498046875,-1.006744384765625,-0.279510498046875,0.081939697265625
1700516047920770300,5.469770263671875,-1.406646728515625,0.078216552734375,-0.06439208984375
1700516047930779400,5.479779296875,-0.881805419921875,-0.0714569091796875,0.03955078125
1700516047940789500,5.48978955078125,-0.92431640625,-0.0167694091796875,0.0587158203125
1700516047950799400,5.49979931640625,-0.8390350341796875,-0.29266357421875,0.0406646728515625
1700516047960808400,5.509808349609375,-0.97088623046875,-0.0030364990234375,-0.008026123046875
1700516047970818600,5.519818603515625,-1.25726318359375,-0.095306396484375,0.035888671875
1700516047980828400,5.529828369140625,-0.9508056640625,0.0308074951171875,-0.038665771484375
1700516047990837500,5.53983740234375,-0.6503143310546875,-0.086181640625,0.04888916015625
1700516048000847600,5.54984765625,-1.1097412109375,-0.2552337646484375,0.0675048828125
1700516048010857500,5.559857421875,-1.444122314453125,0.0894622802734375,-0.0219573974609375
1700516048020866300,5.5698662109375,-0.688690185546875,-0.0518646240234375,0.0072021484375
1700516048030876400,5.57987646484375,-1.0558013916015625,-0.0443878173828125,0.0332489013671875
1700516048040886500,5.589886474609375,-0.88592529296875,-0.2024078369140625,0.0645294189453125
1700516048050895400,5.599895263671875,-0.8955230712890625,0.0140533447265625,-0.00823974609375
1700516048060905500,5.609905517578125,-1.2949981689453125,-0.0768890380859375,0.059326171875
1700516048070915600,5.61991552734375,-0.85797119140625,0.1201019287109375,-0.058258056640625
1700516048080925400,5.629925537109375,-0.7711639404296875,-0.1425933837890625,0.0234832763671875
1700516048090934500,5.6399345703125,-1.251190185546875,-0.2537841796875,0.125274658203125
1700516048100944600,5.649944580078125,-1.0879364013671875,0.057647705078125,-0.01904296875
1700516048110954500,5.65995458984375,-0.7912750244140625,-0.050811767578125,-0.037384033203125
1700516048120963600,5.669963623046875,-1.3343048095703125,-0.024017333984375,0.0668792724609375
1700516048130973700,5.6799736328125,-0.56195068359375,-0.2401580810546875,-0.005584716796875
1700516048140983600,5.689983642578125,-1.168121337890625,-0.0369110107421875,0.0528564453125
1700516048150992400,5.699992431640625,-0.9300689697265625,-0.1693115234375,0.03118896484375
1700516048161002500,5.71000244140625,-1.15765380859375,0.1142120361328125,-0.082611083984375
1700516048171012400,5.720012451171875,-0.8518218994140625,-0.151641845703125,0.0912017822265625
1700516048181021400,5.730021484375,-0.9852142333984375,-0.2444305419921875,0.102691650390625
1700516048191031600,5.740031494140625,-1.00311279296875,-0.05706787109375,-0.0345611572265625
1700516048201041400,5.75004150390625,-1.1055145263671875,0.007568359375,0.060211181640625
1700516048211050500,5.760050537109375,-1.130706787109375,-0.0701446533203125,0.0036773681640625
1700516048221060600,5.770060546875,-0.855865478515625,-0.1702880859375,0.086669921875
1700516048231070500,5.780070556640625,-0.8145904541015625,-0.1419830322265625,0.051361083984375
1700516048241080600,5.79008056640625,-1.0967254638671875,-0.1049346923828125,0.0253448486328125
1700516048251089700,5.800089599609375,-1.1032562255859375,0.1183624267578125,-0.0398101806640625
1700516048261099500,5.810099609375,-0.958831787109375,-0.2523193359375,0.0775146484375
1700516048271109600,5.820109619140625,-0.8201141357421875,-0.109222412109375,0.043243408203125
1700516048281118500,5.830118408203125,-1.1168060302734375,-0.08221435546875,-0.04144287109375
1700516048291128300,5.84012841796875,-1.0884246826171875,0.0303955078125,0.056427001953125
1700516048301138400,5.850138427734375,-1.075469970703125,-0.0543212890625,-0.0339813232421875
1700516048311147500,5.8601474609375,-0.8538970947265625,-0.137664794921875,0.0519561767578125
1700516048321157400,5.870157470703125,-0.7758636474609375,-0.15740966796875,0.0042724609375
1700516048331167500,5.88016748046875,-1.174560546875,-0.0279541015625,-0.017486572265625
1700516048341176600,5.890176513671875,-1.1051788330078125,0.124664306640625,-0.021697998046875
1700516048351186400,5.9001865234375,-0.9057464599609375,-0.2698822021484375,0.0924835205078125
1700516048361196500,5.910196533203125,-0.834320068359375,-0.1073455810546875,-0.032806396484375
1700516048371205600,5.92020556640625,-1.073822021484375,-0.052642822265625,0.058563232421875
1700516048381215500,5.930215576171875,-1.153778076171875,-0.0110321044921875,0.021697998046875
1700516048391225600,5.9402255859375,-1.0881195068359375,-0.0652313232421875,0.010009765625
1700516048401235500,5.9502353515625,-0.806365966796875,-0.1484222412109375,0.08538818359375
1700516048411244300,5.960244384765625,-0.6958770751953125,-0.1717376708984375,-0.00927734375
1700516048421254400,5.97025439453125,-1.28814697265625,-0.0040130615234375,0.0642852783203125
1700516048431264500,5.980264404296875,-0.8358001708984375,0.0470123291015625,-0.0624847412109375
1700516048441273300,5.9902734375,-1.3040924072265625,-0.2491912841796875,0.22137451171875
1700516048451283500,6.000283447265625,-1.4258270263671875,0.032806396484375,0.2315826416015625
1700516048461293600,6.01029345703125,-0.2555084228515625,-0.053070068359375,-0.1595458984375
1700516048471302400,6.020302490234375,-0.4555511474609375,-0.33367919921875,0.1071624755859375
1700516048481312500,6.0303125,-2.258697509765625,0.3223419189453125,-0.42462158203125
1700516048491322600,6.040322509765625,-1.216888427734375,-0.1620635986328125,0.52545166015625
1700516048501331500,6.05033154296875,-0.0607147216796875,-0.192718505859375,-0.0659942626953125
1700516048511341600,6.060341552734375,-0.9940948486328125,-0.011505126953125,0.0235443115234375
1700516048521351700,6.0703515625,-1.1656646728515625,-0.3307037353515625,0.17498779296875
1700516048531361500,6.080361572265625,-0.809844970703125,-0.1746368408203125,-0.123626708984375
1700516048541370400,6.090370361328125,-1.366973876953125,-0.0512542724609375,-0.01556396484375
1700516048551380500,6.10038037109375,-1.07635498046875,0.2130889892578125,0.1259613037109375
1700516048561390300,6.110390380859375,-0.67462158203125,-0.3615875244140625,0.0214996337890625
1700516048571399400,6.1203994140625,-0.9583282470703125,-0.4316253662109375,-0.008026123046875
1700516048581409500,6.130409423828125,-0.9218292236328125,0.3515777587890625,-0.028594970703125
1700516048591419400,6.14041943359375,-1.304656982421875,-0.2426910400390625,0.107421875
1700516048601428500,6.150428466796875,-0.8634033203125,-0.3135223388671875,-0.038543701171875
1700516048611438600,6.1604384765625,-1.0395050048828125,-0.108062744140625,-0.0076446533203125
1700516048621448400,6.170448486328125,-1.05731201171875,0.139007568359375,0.0959014892578125
1700516048631458600,6.18045849609375,-0.779998779296875,-0.10858154296875,0.01605224609375
1700516048641467600,6.190467529296875,-1.08355712890625,-0.61187744140625,0.1148223876953125
1700516048651477500,6.2004775390625,-1.0211029052734375,0.243499755859375,-0.0627288818359375
1700516048661487600,6.210487548828125,-1.087158203125,-0.196990966796875,0.1714630126953125
1700516048671496400,6.220496337890625,-0.7771453857421875,-0.33331298828125,-0.0483856201171875
1700516048681506300,6.23050634765625,-1.29815673828125,-0.37188720703125,0.0832061767578125
1700516048691516400,6.240516357421875,-0.8776092529296875,0.292449951171875,-0.0608673095703125
1700516048701525500,6.250525390625,-0.9263153076171875,-0.4785003662109375,0.1898040771484375
1700516048711535400,6.260535400390625,-0.9787750244140625,-0.22528076171875,-0.06683349609375
1700516048721545500,6.27054541015625,-1.130401611328125,-0.19219970703125,0.12591552734375
1700516048731554600,6.280554443359375,-0.8217010498046875,-0.3893585205078125,0.0185089111328125
1700516048741564400,6.290564453125,-1.1956787109375,-0.3207550048828125,-0.0314178466796875
1700516048751574500,6.300574462890625,-1.0974884033203125,-0.2318878173828125,0.031646728515625
1700516048761583600,6.31058349609375,-0.7662200927734375,-0.41973876953125,0.1291351318359375
1700516048771593500,6.320593505859375,-0.93402099609375,-0.0488433837890625,-0.0987091064453125
1700516048781599700,6.330599853515625,-1.1317901611328125,-0.6042022705078125,0.1768341064453125
1700516048791609900,6.34060986328125,-0.6461334228515625,-0.1536407470703125,-0.0421905517578125
1700516048801618700,6.35061865234375,-1.2703094482421875,-0.2422027587890625,-0.0450439453125
1700516048811628500,6.360628662109375,-0.86572265625,-0.546783447265625,0.1256256103515625
1700516048821638700,6.370638671875,-1.2261962890625,-0.065887451171875,0.0143890380859375
1700516048831647700,6.380647705078125,-0.8144683837890625,-0.360870361328125,-0.0311126708984375
1700516048841657600,6.39065771484375,-0.810577392578125,-0.745147705078125,0.1131744384765625
1700516048851667700,6.400667724609375,-1.2457427978515625,-0.0209808349609375,0.0370635986328125
1700516048861676800,6.4106767578125,-0.70001220703125,-0.2133331298828125,0.0152435302734375
1700516048871686700,6.420686767578125,-1.006591796875,-0.7976837158203125,0.0790252685546875
1700516048881696800,6.43069677734375,-1,-0.048065185546875,-0.06646728515625
1700516048891705900,6.440705810546875,-1.00311279296875,-0.8026275634765625,0.0927886962890625
1700516048901715700,6.4507158203125,-1.448455810546875,-0.50567626953125,-0.0980224609375
1700516048911725800,6.460725830078125,-0.419097900390625,0.178558349609375,0.030487060546875
1700516048921735700,6.470735595703125,-1.0745086669921875,-0.7640228271484375,0.125030517578125
1700516048931744500,6.48074462890625,-1.0569000244140625,-0.113311767578125,0.02532958984375
1700516048941754600,6.490754638671875,-0.474090576171875,-0.3687744140625,0.06964111328125
1700516048951764500,6.500764404296875,-1.681854248046875,-0.7585906982421875,-0.0298004150390625
1700516048961773600,6.510773681640625,-0.6753387451171875,0.04547119140625,0.0728302001953125
1700516048971783700,6.52078369140625,-0.92919921875,-0.7729034423828125,0.1011810302734375
1700516048981793500,6.53079345703125,-1.4626007080078125,-0.3539276123046875,-0.0237884521484375
1700516048991802600,6.540802734375,-0.6390838623046875,-0.4040069580078125,0.0704193115234375
1700516049001812700,6.550812744140625,-1.3585662841796875,-0.780670166015625,-0.0068206787109375
1700516049011822600,6.560822509765625,-0.7957305908203125,-0.1631927490234375,0.0378265380859375
1700516049021831700,6.570831787109375,-0.64501953125,-0.3664398193359375,0.045135498046875
1700516049031841800,6.580841796875,-0.903839111328125,-0.701934814453125,0.0326080322265625
1700516049041851600,6.5908515625,-0.9694671630859375,-0.0457611083984375,-0.0329437255859375
1700516049051860500,6.600860595703125,-0.8346405029296875,-0.7037353515625,0.11474609375
1700516049061870600,6.61087060546875,-1.2722320556640625,-0.538177490234375,-0.063232421875
1700516049071880700,6.620880615234375,-1.0063323974609375,-0.0167999267578125,0.060943603515625
1700516049081889500,6.6308896484375,-0.6855926513671875,-0.5499420166015625,0.058990478515625
1700516049091899600,6.640899658203125,-0.894775390625,-0.2646942138671875,0.0517425537109375
1700516049101909800,6.65090966796875,-0.7841949462890625,0.0478515625,0.03338623046875
1700516049111918600,6.660918701171875,-1.099639892578125,-0.754608154296875,0.048553466796875
1700516049121928700,6.6709287109375,-1.13555908203125,-0.2220916748046875,-0.0699615478515625
1700516049131938800,6.680938720703125,-0.93487548828125,-0.079681396484375,0.034698486328125
1700516049141948700,6.69094873046875,-0.8697052001953125,-0.626953125,0.0526123046875
1700516049151957800,6.700957763671875,-1.0447998046875,0.0611724853515625,-0.00799560546875
1700516049161967900,6.7109677734375,-0.894744873046875,-0.6923828125,0.097564697265625
1700516049171977700,6.720977783203125,-1.269775390625,-0.5440826416015625,0.0013885498046875
1700516049181986600,6.730986572265625,-1.0428924560546875,-0.085601806640625,0.0329742431640625
1700516049191996700,6.74099658203125,-0.8529052734375,-0.6045989990234375,0.041259765625
1700516049202006500,6.751006591796875,-1.051361083984375,-0.6507110595703125,0.0470428466796875
1700516049212015600,6.761015625,-0.762115478515625,0.0872955322265625,-0.1098785400390625
1700516049222025700,6.771025634765625,-0.906829833984375,-0.671905517578125,0.204986572265625
1700516049232035600,6.78103564453125,-0.9890289306640625,-0.2846527099609375,-0.118682861328125
1700516049242044700,6.791044677734375,-0.789825439453125,-0.05340576171875,0.02520751953125
1700516049252054800,6.8010546875,-1.1379241943359375,-0.8766632080078125,0.228424072265625
1700516049262064600,6.811064697265625,-1.207427978515625,-0.031707763671875,-0.124725341796875
1700516049272073700,6.82107373046875,-0.9193878173828125,-0.546630859375,0.1660003662109375
1700516049282083800,6.831083740234375,-1.13128662109375,-0.6530914306640625,-0.00921630859375
1700516049292093700,6.84109375,-0.7297515869140625,0.117706298828125,-0.10760498046875
1700516049302102500,6.8511025390625,-0.885589599609375,-0.777923583984375,0.238250732421875
1700516049312112600,6.861112548828125,-1.28900146484375,-0.2925567626953125,-0.1389007568359375
1700516049322122500,6.87112255859375,-0.80291748046875,-0.5717315673828125,0.1085968017578125
1700516049332131600,6.881131591796875,-0.9962615966796875,-0.613006591796875,0.0553741455078125
1700516049342141700,6.8911416015625,-0.9741668701171875,0.00299072265625,-0.120880126953125
1700516049352151600,6.901151611328125,-0.7764129638671875,-0.882110595703125,0.268218994140625
1700516049362160600,6.91116064453125,-1.3258209228515625,-0.4376678466796875,-0.1329345703125
1700516049372170800,6.921170654296875,-0.7689971923828125,-0.4922027587890625,0.141998291015625
1700516049382180600,6.9311806640625,-1.03155517578125,-0.52874755859375,0.1189422607421875
1700516049392189700,6.941189697265625,-0.4936065673828125,0.023773193359375,-0.1747283935546875
1700516049402199800,6.95119970703125,-0.879791259765625,-0.522369384765625,0.2521209716796875
1700516049412209700,6.961209716796875,-1.4552764892578125,-0.6179962158203125,0.040374755859375
1700516049422218500,6.971218505859375,-0.9578094482421875,-1.013916015625,0.0407867431640625
1700516049432228600,6.981228515625,-1.46905517578125,-0.39910888671875,-0.1003570556640625
1700516049442238500,6.991238525390625,-0.4244384765625,-0.3159942626953125,-0.049224853515625
1700516049452248600,7.00124853515625,-0.9320831298828125,-0.778778076171875,0.2718353271484375
1700516049462257700,7.011257568359375,-0.776763916015625,-0.5604095458984375,-0.06121826171875
1700516049472267500,7.021267578125,-0.4326934814453125,-0.3431549072265625,0.1933135986328125
1700516049482277600,7.031277587890625,-1.21051025390625,-0.2099151611328125,-0.0147857666015625
1700516049492286700,7.04128662109375,-0.591156005859375,-0.760986328125,0.0416412353515625
1700516049502296600,7.051296630859375,-1.8546142578125,-0.6661224365234375,-0.1042022705078125
1700516049512306700,7.061306640625,-0.858917236328125,-0.54583740234375,-0.1034698486328125
1700516049522315800,7.071315673828125,-1.1254119873046875,-0.4084930419921875,0.3127288818359375
1700516049532325600,7.08132568359375,-0.6769256591796875,-0.5028076171875,-0.0915374755859375
1700516049542335700,7.091335693359375,-0.8370819091796875,-0.5570220947265625,0.0594482421875
1700516049552344600,7.101344482421875,-1.426849365234375,-0.4221343994140625,-0.1501617431640625
1700516049562354700,7.111354736328125,-1.0415802001953125,-0.6654205322265625,0.0579071044921875
1700516049572364500,7.121364501953125,-0.938079833984375,-0.2123565673828125,-0.0867919921875
1700516049582373600,7.13137353515625,-0.6147918701171875,-0.642822265625,0.0505523681640625
1700516049592383700,7.1413837890625,-0.947723388671875,-0.1678009033203125,0.039306640625
1700516049602393600,7.1513935546875,-0.999969482421875,-0.8191375732421875,0.051788330078125
1700516049612402700,7.161402587890625,-1.07806396484375,-0.2163848876953125,-0.13421630859375
1700516049622412800,7.171412841796875,-0.911041259765625,-0.49688720703125,-0.00189208984375
1700516049632422700,7.181422607421875,-0.6300506591796875,-0.4579315185546875,0.1261749267578125
1700516049642431700,7.191431640625,-0.9912261962890625,-0.5307464599609375,0.0146942138671875
1700516049652441900,7.20144189453125,-0.88580322265625,-0.620269775390625,0.08740234375
1700516049662451700,7.21145166015625,-0.917266845703125,-0.1001739501953125,-0.1862640380859375
1700516049672460500,7.22146044921875,-0.73681640625,-0.626220703125,0.1320953369140625
1700516049682470700,7.231470703125,-1.4555206298828125,-0.3755645751953125,0.054351806640625
1700516049692480500,7.24148046875,-0.45892333984375,-0.71875,-0.0377655029296875
1700516049702489600,7.251489501953125,-1.437164306640625,-0.0371856689453125,0.0367889404296875
1700516049712499700,7.261499755859375,-0.3345489501953125,-0.48382568359375,-0.1141204833984375
1700516049722509600,7.271509521484375,-1.398345947265625,-0.4639129638671875,0.066162109375
1700516049732518700,7.2815185546875,-0.8804473876953125,-0.559478759765625,-0.1153717041015625
1700516049742528800,7.29152880859375,-1.0044708251953125,-0.2213287353515625,0.0955657958984375
1700516049752538600,7.30153857421875,-0.9824371337890625,-0.57135009765625,-0.046173095703125
1700516049762547700,7.311547607421875,-1.06036376953125,-0.36651611328125,0.0519866943359375
1700516049772558000,7.32155810546875,-1.4429931640625,-0.509063720703125,-0.0601348876953125
1700516049782568000,7.33156787109375,-0.9594879150390625,-0.3995819091796875,0.2067108154296875
1700516049792577000,7.341576904296875,-0.887725830078125,-0.397674560546875,-0.1212005615234375
1700516049802587100,7.351587158203125,-0.91827392578125,-0.5155029296875,0.10089111328125
1700516049812597000,7.361596923828125,-0.9793701171875,-0.323394775390625,0.01025390625
1700516049822606000,7.371606201171875,-1.0068206787109375,-0.413787841796875,0.1490936279296875
1700516049832616200,7.3816162109375,-0.977752685546875,-0.2869415283203125,-0.0528106689453125
1700516049842626000,7.3916259765625,-0.8642730712890625,-0.57257080078125,0.200958251953125
1700516049852635100,7.40163525390625,-0.843505859375,-0.282806396484375,-0.057708740234375
1700516049862645200,7.411645263671875,-0.9544219970703125,-0.425079345703125,0.23626708984375
1700516049872655000,7.421655029296875,-0.4927520751953125,-0.007598876953125,-0.1641998291015625
1700516049882664200,7.431664306640625,-1.2493133544921875,-0.8491363525390625,0.2203216552734375
1700516049892674300,7.44167431640625,-0.4407501220703125,-0.303558349609375,-0.1313629150390625
1700516049902684000,7.451683837890625,-1.1738739013671875,-0.4153900146484375,0.1836395263671875
1700516049912693000,7.46169287109375,-0.673736572265625,-0.0374603271484375,-0.0097503662109375
1700516049922703000,7.471703125,-1.1310577392578125,-0.726593017578125,0.1366119384765625
1700516049932713000,7.481712890625,-1.16510009765625,-0.565765380859375,-0.143524169921875
1700516049942722000,7.49172216796875,-0.9926300048828125,-0.0810699462890625,0.23846435546875
1700516049952732200,7.501732177734375,-0.7734832763671875,-0.296905517578125,-0.0860443115234375
1700516049962742000,7.511741943359375,-1.0216217041015625,-0.7129058837890625,0.1383209228515625
1700516049972751000,7.521751220703125,-1.1769561767578125,-0.3889312744140625,-0.1402130126953125
1700516049982761200,7.53176123046875,-0.856658935546875,-0.199859619140625,0.2103271484375
1700516049992771000,7.54177099609375,-0.7406005859375,-0.5041961669921875,-0.0782012939453125
1700516050002780200,7.5517802734375,-1.022705078125,-0.2607574462890625,0.03662109375
1700516050012790300,7.561790283203125,-1.019989013671875,-0.562713623046875,0.177642822265625
1700516050022800100,7.571800048828125,-0.9704742431640625,-0.013885498046875,0.0029754638671875
1700516050032809000,7.58180908203125,-1.0164642333984375,-0.6378021240234375,0.0721893310546875
1700516050042819000,7.591819091796875,-1.184783935546875,-0.4308929443359375,0.0182952880859375
1700516050052829000,7.601828857421875,-1.16094970703125,-0.2457275390625,0.07110595703125
1700516050062838000,7.611838134765625,-0.9630889892578125,-0.4728546142578125,-0.00927734375
1700516050072848100,7.62184814453125,-0.935577392578125,-0.502655029296875,0.03839111328125
1700516050082858000,7.63185791015625,-0.986846923828125,-0.6187896728515625,0.0408172607421875
1700516050092867000,7.6418671875,-1.06927490234375,-0.010284423828125,0.1021728515625
1700516050102877200,7.651877197265625,-0.8830413818359375,-0.5664825439453125,0.12469482421875
1700516050112886300,7.66188623046875,-1.124420166015625,-0.3054962158203125,0.0749359130859375
1700516050122896100,7.671896240234375,-0.975555419921875,-0.5337066650390625,0.0848236083984375
1700516050132906200,7.68190625,-0.7765655517578125,0.1330108642578125,-0.064971923828125
1700516050142915000,7.6919150390625,-0.8178863525390625,-0.7381591796875,0.120941162109375
1700516050152925000,7.701925048828125,-1.1139984130859375,-0.4092864990234375,-0.1126556396484375
1700516050162935000,7.71193505859375,-0.9114227294921875,-0.1758575439453125,-0.027740478515625
1700516050172944100,7.721944091796875,-0.67041015625,-0.356048583984375,-0.0304718017578125
1700516050182954000,7.7319541015625,-0.798309326171875,-0.5193328857421875,0.0307769775390625
1700516050192964000,7.741964111328125,-0.8315887451171875,-0.5599365234375,-0.0386810302734375
1700516050202973200,7.75197314453125,-1.1198577880859375,-0.091217041015625,0.057769775390625
1700516050212983000,7.761983154296875,-1.1379852294921875,-0.5312652587890625,0.1173095703125
1700516050222993200,7.7719931640625,-1.194732666015625,-0.43743896484375,0.05224609375
1700516050233002200,7.782002197265625,-0.9580078125,-0.3333740234375,0.0480804443359375
1700516050243012000,7.79201220703125,-1.010711669921875,-0.200714111328125,0.0891265869140625
1700516050253022200,7.802022216796875,-0.97796630859375,-0.4477081298828125,0.1062164306640625
1700516050263031000,7.812031005859375,-0.9613800048828125,-0.5590362548828125,-0.02349853515625
1700516050273041000,7.822041015625,-0.9357452392578125,-0.0344696044921875,0.01361083984375
1700516050283051000,7.832051025390625,-0.7399444580078125,-0.5769500732421875,0.037994384765625
1700516050293060000,7.84206005859375,-1.0823974609375,-0.231353759765625,-0.0732879638671875
1700516050303070000,7.852070068359375,-0.8310699462890625,-0.4936981201171875,0.1133880615234375
1700516050313079000,7.8620791015625,-0.987152099609375,-0.1468963623046875,0.0175628662109375
1700516050323089200,7.872089111328125,-0.9424591064453125,-0.403961181640625,0.16229248046875
1700516050333099000,7.88209912109375,-1.2178497314453125,-0.51519775390625,-0.075439453125
1700516050343108000,7.892108154296875,-1.0227508544921875,-0.091033935546875,0.01263427734375
1700516050353118200,7.9021181640625,-0.866973876953125,-0.71832275390625,0.1530914306640625
1700516050363128000,7.912128173828125,-0.96624755859375,-0.1831512451171875,-0.0551910400390625
1700516050373137000,7.922136962890625,-0.9478912353515625,-0.50445556640625,0.1391143798828125
1700516050383147000,7.93214697265625,-1.111480712890625,-0.075653076171875,-0.0363616943359375
1700516050393157000,7.9421572265625,-1.045928955078125,-0.50213623046875,0.106719970703125
1700516050403166000,7.952166015625,-1.1497650146484375,-0.556488037109375,-0.0160980224609375
1700516050413176000,7.962176025390625,-1.050537109375,-0.0472564697265625,-0.066497802734375
1700516050423186200,7.972186279296875,-0.837860107421875,-0.6708221435546875,0.1021270751953125
1700516050433195000,7.982195068359375,-1.0168914794921875,-0.277496337890625,-0.0769500732421875
1700516050443205000,7.992205078125,-0.8209381103515625,-0.6933441162109375,0.12725830078125
1700516050453214200,8.002214111328126,-0.9213409423828125,0.0493621826171875,-0.09771728515625
1700516050463224000,8.01222412109375,-0.9463348388671875,-0.506072998046875,0.24542236328125
1700516050473234200,8.022234130859376,-1.029541015625,-0.475860595703125,0.0519256591796875
1700516050483243000,8.032242919921876,-1.0174102783203125,-0.166778564453125,0.1349029541015625
1700516050493253000,8.042253173828126,-0.533905029296875,-0.210418701171875,0.034881591796875
1700516050503263000,8.052262939453126,-1.12640380859375,-0.3920135498046875,0.212371826171875
1700516050513272000,8.06227197265625,-0.5776824951171875,-0.4958343505859375,0.0570220947265625
1700516050523282200,8.0722822265625,-0.867095947265625,0.0556182861328125,-0.0129241943359375
1700516050533292000,8.0822919921875,-0.7989349365234375,-0.3788909912109375,0.0628509521484375
1700516050543301000,8.092301025390626,-1.334320068359375,-0.5523834228515625,-0.024169921875
1700516050553311200,8.102311279296876,-1.354400634765625,-0.1785736083984375,-0.040496826171875
1700516050563320000,8.112320068359375,-0.9506988525390625,-0.397796630859375,-0.1322479248046875
1700516050573330200,8.122330078125,-1.032440185546875,-0.311920166015625,-0.0422515869140625
1700516050583340300,8.13234033203125,-1.1395263671875,-0.57928466796875,0.0211181640625
1700516050593348900,8.142348876953125,-0.947998046875,-0.205780029296875,-0.0465545654296875
1700516050603359000,8.15235888671875,-0.7762603759765625,-0.3339996337890625,0.0032806396484375
1700516050613369000,8.162369140625,-0.839263916015625,-0.450775146484375,0.109466552734375
1700516050623378000,8.1723779296875,-0.7620697021484375,-0.1347198486328125,0.1408233642578125
1700516050633388000,8.182387939453125,-0.84185791015625,-0.4576873779296875,0.1334686279296875
1700516050643397000,8.192397216796875,-0.8748016357421875,-0.1435546875,0.05975341796875
1700516050653407000,8.202406982421875,-0.900543212890625,-0.58477783203125,0.2253875732421875
1700516050663417000,8.2124169921875,-0.9734954833984375,0.024871826171875,-0.08013916015625
1700516050673426200,8.22242626953125,-1.2740478515625,-0.285125732421875,0.180908203125
1700516050683436000,8.23243603515625,-1.1817169189453125,-0.6272125244140625,-0.01995849609375
1700516050693446100,8.242446044921875,-1.2109375,-0.2214202880859375,-0.01068115234375
1700516050703455000,8.252455078125,-0.81134033203125,-0.275787353515625,-0.0426788330078125
1700516050713465000,8.262465087890625,-1.175262451171875,-0.4675750732421875,0.0746917724609375
1700516050723474000,8.272473876953125,-0.9815216064453125,-0.5749053955078125,-0.03533935546875
1700516050733484000,8.282484130859375,-0.8447265625,-0.0684356689453125,0.035400390625
1700516050743494100,8.292494140625,-0.93206787109375,-0.42034912109375,0.1870574951171875
1700516050753503000,8.3025029296875,-1.133514404296875,-0.349334716796875,0.0261383056640625
1700516050763513000,8.31251318359375,-0.884765625,-0.20697021484375,0.117156982421875
1700516050773522700,8.322522705078125,-0.8336639404296875,-0.47784423828125,0.05828857421875
1700516050783531800,8.33253173828125,-0.9769287109375,-0.1412353515625,0.0449371337890625
1700516050793541600,8.342541748046875,-0.8375701904296875,-0.472625732421875,0.205078125
1700516050803550700,8.35255078125,-0.7784881591796875,0.1840362548828125,-0.0329437255859375
1700516050813560800,8.362560791015625,-0.881195068359375,-0.3979949951171875,0.20660400390625
1700516050823570700,8.37257080078125,-0.8332366943359375,-0.559906005859375,-0.0089111328125
1700516050833579800,8.382579833984375,-0.84002685546875,-0.0993804931640625,0.0326995849609375
1700516050843590000,8.39258984375,-0.2272796630859375,0.0848846435546875,-0.10821533203125
1700516050853599700,8.402599853515625,-1.1048583984375,-0.5998687744140625,0.101898193359375
1700516050863608600,8.412608642578125,-0.802276611328125,-0.660400390625,-0.08392333984375
1700516050873618700,8.42261865234375,-0.8162994384765625,0.1080474853515625,-0.10833740234375
1700516050883627800,8.432627685546874,-1.0572357177734375,-0.3579559326171875,0.0655059814453125
1700516050893637600,8.4426376953125,-1.338409423828125,-0.5323638916015625,0.2097015380859375
1700516050903647700,8.452647705078125,-1.094268798828125,-0.24420166015625,0.0918121337890625
1700516050913656800,8.46265673828125,-1.0233612060546875,-0.1798095703125,0.0215911865234375
1700516050923666700,8.472666748046874,-1.0524749755859375,-0.3231048583984375,0.23895263671875
1700516050933676800,8.4826767578125,-1.3266143798828125,-0.635101318359375,0.1538848876953125
1700516050943686000,8.492685791015624,-1.441864013671875,0.001434326171875,-0.035797119140625
1700516050953695700,8.50269580078125,-0.9217681884765625,-0.420989990234375,-0.06512451171875
1700516050963704600,8.51270458984375,-0.9560089111328125,-0.5461578369140625,-0.054290771484375
1700516050973714700,8.522714599609374,-0.98883056640625,-0.22210693359375,0.04364013671875
1700516050983724500,8.532724609375,-0.67669677734375,-0.3771514892578125,-0.0520477294921875
1700516050993733600,8.542733642578124,-1.0902557373046875,-0.286376953125,0.06854248046875
1700516051003743700,8.55274365234375,-1.0301513671875,-0.4697418212890625,0.2288055419921875
1700516051013752600,8.562752685546876,-1.11138916015625,0.1623077392578125,0.0802001953125
1700516051023762700,8.5727626953125,-1.1339263916015625,-0.6222076416015625,0.318511962890625
1700516051033772800,8.582772705078124,-1.2587127685546875,-0.412506103515625,0.02484130859375
1700516051043781600,8.59278173828125,-1.061370849609375,-0.1115875244140625,0.138153076171875
1700516051053791700,8.602791748046876,-0.6934661865234375,-0.383148193359375,0.054931640625
1700516051063800600,8.612800537109376,-0.9092864990234375,-0.4158782958984375,0.0491180419921875
1700516051073810700,8.622810791015626,-0.8394927978515625,-0.64239501953125,-0.0060272216796875
1700516051083820500,8.632820556640626,-0.7076873779296875,0.1595001220703125,-0.0327911376953125
1700516051093829600,8.64282958984375,-0.67633056640625,-0.33917236328125,0.041595458984375
1700516051103839700,8.65283984375,-1.010345458984375,-0.665802001953125,0.0631103515625
1700516051113848600,8.6628486328125,-0.544677734375,-0.2773895263671875,-0.0270538330078125
1700516051123858700,8.672858642578126,-0.8051605224609375,0.0547027587890625,-0.0271148681640625
1700516051133868800,8.682868896484376,-1.26153564453125,-0.27911376953125,0.09088134765625
1700516051143877600,8.692877685546875,-0.8697052001953125,-0.510009765625,0.0998077392578125
1700516051153887700,8.7028876953125,-1.56243896484375,0.2776947021484375,0.08905029296875
1700516051163897900,8.71289794921875,-1.0272674560546875,-0.315704345703125,0.0506134033203125
1700516051173906700,8.72290673828125,-1.0188751220703125,-0.8468475341796875,0.0385284423828125
1700516051183916500,8.73291650390625,-1.129486083984375,-0.238311767578125,-0.0081024169921875
1700516051193925600,8.742925537109375,-0.70703125,-0.1056060791015625,-0.1378021240234375
1700516051203935700,8.752935791015625,-0.99578857421875,-0.54974365234375,0.1083526611328125
1700516051213945600,8.762945556640625,-0.8982086181640625,-0.4454803466796875,0.0941925048828125
1700516051223954700,8.77295458984375,-1.1046142578125,-0.1661834716796875,-0.0237884521484375
1700516051233964800,8.78296484375,-1.0182952880859375,-0.3740997314453125,0.1555328369140625
1700516051243973600,8.7929736328125,-1.153350830078125,-0.42041015625,0.1418304443359375
1700516051253983700,8.802983642578125,-0.959625244140625,0.0445556640625,0.1671142578125
1700516051263993900,8.812993896484375,-0.721588134765625,-0.507049560546875,0.1005096435546875
1700516051274002700,8.823002685546875,-1.0370941162109375,-0.4895477294921875,0.058197021484375
1700516051284012500,8.833012451171875,-0.8278961181640625,-0.3674774169921875,0.1365509033203125
1700516051294021600,8.843021728515625,-0.945526123046875,0.073028564453125,0.0675811767578125
1700516051304031500,8.853031494140625,-1.389892578125,-0.5357208251953125,0.275054931640625
1700516051314041600,8.86304150390625,-1.393463134765625,-0.45855712890625,-0.1400909423828125
1700516051324050700,8.87305078125,-1.150360107421875,-0.0281829833984375,0.1197662353515625
1700516051334060500,8.883060546875,-0.6518096923828125,-0.3524627685546875,-0.0765380859375
1700516051344069600,8.893069580078125,-0.9663543701171875,-0.5633544921875,0.0453643798828125
1700516051354079700,8.903079833984375,-1.075775146484375,-0.4321136474609375,0.0566558837890625
1700516051364089600,8.913089599609375,-1.085052490234375,-0.0750579833984375,-0.1822967529296875
1700516051374098700,8.9230986328125,-0.9665985107421875,-0.3660430908203125,0.0308380126953125
1700516051384108800,8.93310888671875,-0.905059814453125,-0.4135894775390625,-0.08489990234375
1700516051394117600,8.94311767578125,-0.60003662109375,-0.0769195556640625,0.06732177734375
1700516051404127500,8.95312744140625,-0.7732696533203125,-0.4586639404296875,0.093231201171875
1700516051414137600,8.9631376953125,-1.0737152099609375,-0.1892547607421875,0.1220703125
1700516051424146700,8.973146728515625,-1.20648193359375,-0.422149658203125,0.0667572021484375
1700516051434156500,8.983156494140625,-0.8893890380859375,-0.0269012451171875,-0.161346435546875
1700516051444165600,8.99316552734375,-0.765533447265625,-0.2432403564453125,0.1646575927734375
1700516051454175700,9.00317578125,-0.6848602294921875,-0.5462188720703125,0.054534912109375
1700516051464185600,9.013185546875,-0.981658935546875,-0.1314544677734375,-0.08026123046875
1700516051474194700,9.023194580078124,-0.9718017578125,-0.454071044921875,-0.0169219970703125
1700516051484204800,9.033204833984374,-1.03302001953125,-0.3912353515625,0.0335845947265625
1700516051494213600,9.043213623046874,-1.059844970703125,-0.319427490234375,0.1288909912109375
1700516051504223500,9.053223388671874,-0.9158172607421875,-0.078277587890625,0.0475921630859375
1700516051514232600,9.063232666015624,-1.1862945556640625,-0.3515472412109375,0.24993896484375
1700516051524242700,9.07324267578125,-1.3162689208984375,-0.68170166015625,0.003875732421875
1700516051534252500,9.08325244140625,-0.921234130859375,0.136749267578125,-0.056121826171875
1700516051544261600,9.09326171875,-0.768951416015625,-0.414337158203125,0.074798583984375
1700516051554271700,9.103271728515624,-0.9481201171875,-0.48907470703125,0.0312652587890625
1700516051564280800,9.11328076171875,-0.99267578125,-0.1153411865234375,0.0947265625
1700516051574290700,9.123290771484376,-0.8974761962890625,-0.3248138427734375,-0.0011749267578125
1700516051584300800,9.13330078125,-1.1392364501953125,-0.29998779296875,-0.1107177734375
1700516051594309600,9.1433095703125,-1.0908050537109375,-0.49322509765625,-0.0193328857421875
1700516051604319500,9.153319580078126,-0.6304931640625,0.20684814453125,-0.2197113037109375
1700516051614328600,9.16332861328125,-0.769622802734375,-0.5433197021484375,0.0967559814453125
1700516051624338700,9.173338623046876,-1.0153350830078125,-0.4541015625,0.1687164306640625
1700516051634348500,9.1833486328125,-1.1277923583984375,-0.070281982421875,0.0902099609375
1700516051644357600,9.193357666015626,-0.8916778564453125,-0.22882080078125,-0.0726470947265625
1700516051654367700,9.20336767578125,-0.9848480224609375,-0.3959503173828125,0.1349334716796875
1700516051664376800,9.213376953125,-0.74951171875,-0.458465576171875,-0.019073486328125
1700516051674386700,9.22338671875,-0.7064056396484375,0.0269317626953125,0.03143310546875
1700516051684396800,9.233396728515626,-1.135345458984375,-0.4617767333984375,0.2075347900390625
1700516051694405600,9.243405517578125,-0.9166107177734375,-0.5020751953125,-0.067626953125
1700516051704415500,9.25341552734375,-1.3186187744140625,-0.0999298095703125,0.1457061767578125
1700516051714424600,9.263424560546875,-0.3936614990234375,-0.0481414794921875,-0.020050048828125
1700516051724434700,9.2734345703125,-1.39178466796875,-0.4685516357421875,0.279815673828125
1700516051734443800,9.28344384765625,-1.1482391357421875,-0.6235809326171875,-0.001800537109375
1700516051744453600,9.29345361328125,-0.8658294677734375,0.159759521484375,-0.1522674560546875
1700516051754463700,9.303463623046875,-0.8858184814453125,-0.3114166259765625,0.148956298828125
1700516051764472800,9.313472900390625,-1.227386474609375,-0.5948944091796875,0.048309326171875
1700516051774483200,9.323483154296875,-1.203460693359375,-0.0596466064453125,-0.0521087646484375
1700516051784492300,9.3334921875,-0.8158111572265625,-0.350982666015625,-0.0107879638671875
1700516051794502100,9.343502197265625,-1.07708740234375,-0.375091552734375,0.05328369140625
1700516051804511200,9.35351123046875,-0.9350738525390625,-0.3244171142578125,0.03680419921875
1700516051814521300,9.363521240234375,-0.7019500732421875,-0.09722900390625,-0.0710906982421875
1700516051824531200,9.37353125,-0.880828857421875,-0.40167236328125,0.2125396728515625
1700516051834540000,9.3835400390625,-1.052337646484375,-0.4890289306640625,0.0488433837890625
1700516051844550100,9.393550048828125,-0.737335205078125,0.1403656005859375,0.0962677001953125
1700516051854559200,9.403559326171875,-0.9794158935546875,-0.286865234375,0.1555633544921875
1700516051864569000,9.413569091796875,-1.3785552978515625,-0.4503021240234375,0.0239410400390625
1700516051874579200,9.4235791015625,-1.1465606689453125,-0.3056182861328125,0.0740203857421875
1700516051884588300,9.43358837890625,-0.909423828125,-0.020782470703125,-0.1312103271484375
1700516051894598100,9.44359814453125,-1.0422210693359375,-0.3157196044921875,0.01055908203125
1700516051904607200,9.453607177734375,-1.132293701171875,-0.722991943359375,0.0359954833984375
1700516051914617300,9.463617431640625,-1.05535888671875,0.0642852783203125,-0.031097412109375
1700516051924626200,9.473626220703125,-0.790679931640625,-0.392669677734375,-0.00091552734375
1700516051934636000,9.483635986328125,-0.9350738525390625,-0.417327880859375,0.0023345947265625
1700516051944646100,9.493646240234375,-0.9377593994140625,-0.2058563232421875,0.19561767578125
1700516051954655200,9.5036552734375,-0.8706512451171875,-0.2888336181640625,0.0421905517578125
1700516051964665000,9.5136650390625,-0.9981536865234375,-0.2900848388671875,0.1086273193359375
1700516051974674200,9.523674072265624,-1.293212890625,-0.3814697265625,0.123992919921875
1700516051984684300,9.533684326171874,-0.883941650390625,0.0978546142578125,0.1082916259765625
1700516051994693400,9.543693359375,-1.0002288818359375,-0.4167633056640625,0.1163787841796875
1700516052004703200,9.553703125,-1.235992431640625,-0.3867034912109375,-0.072418212890625
1700516052014713300,9.56371337890625,-0.9049072265625,-0.102813720703125,0.04595947265625
1700516052024722200,9.57372216796875,-0.801788330078125,-0.2553863525390625,-0.087493896484375
1700516052034732000,9.58373193359375,-0.973175048828125,-0.34124755859375,0.0848388671875
1700516052044741000,9.5937412109375,-1.26177978515625,-0.5501708984375,-0.071197509765625
1700516052054751200,9.603751220703124,-1.221160888671875,0.1739959716796875,-0.1629180908203125
1700516052064761000,9.613760986328124,-1.0604400634765625,-0.3759002685546875,0.1540679931640625
1700516052074770200,9.623770263671876,-1.1941986083984375,-0.56707763671875,0.0179443359375
1700516052084780300,9.6337802734375,-0.9426116943359375,0.0799102783203125,0.0154266357421875
1700516052094789400,9.643789306640626,-0.73199462890625,-0.4228363037109375,0.020416259765625
1700516052104799200,9.65379931640625,-0.8641815185546875,-0.4340362548828125,0.082427978515625
1700516052114808300,9.663808349609376,-0.5650634765625,-0.3271331787109375,0.032470703125
1700516052124818400,9.673818359375,-0.7905731201171875,0.042388916015625,0.1284332275390625
1700516052134828300,9.683828369140626,-1.3521881103515625,-0.3888397216796875,0.0877532958984375
1700516052144837000,9.693837158203126,-1.00732421875,-0.4196929931640625,-0.154052734375
1700516052154847200,9.70384716796875,-0.8546600341796875,-0.0323486328125,0.0667724609375
1700516052164856300,9.713856201171875,-0.800872802734375,-0.0258941650390625,0.0319366455078125
1700516052174866200,9.7238662109375,-1.73358154296875,-0.39697265625,0.1432342529296875
1700516052184875300,9.733875244140625,-0.7849578857421875,-0.637237548828125,-0.0970458984375
1700516052194885400,9.743885498046875,-0.6543121337890625,0.18450927734375,-0.167938232421875
1700516052204894200,9.753894287109375,-0.976898193359375,-0.306732177734375,0.0824737548828125
1700516052214904300,9.763904296875,-1.358551025390625,-0.575103759765625,0.005462646484375
1700516052224914400,9.77391455078125,-0.506866455078125,0.11114501953125,-0.052459716796875
1700516052234923000,9.783923095703125,-0.832672119140625,-0.33135986328125,0.0203704833984375
1700516052244933000,9.79393310546875,-1.2490234375,-0.354827880859375,0.1027374267578125
1700516052254942200,9.803942138671875,-1.0187530517578125,-0.2210235595703125,0.0636749267578125
1700516052264952000,9.8139521484375,-1.046783447265625,-0.1255950927734375,-0.036163330078125
1700516052274961200,9.823961181640625,-1.255035400390625,-0.206817626953125,0.0744476318359375
1700516052284971300,9.83397119140625,-1.16943359375,-0.5745086669921875,-0.04815673828125
1700516052294981000,9.843981201171875,-0.8347320556640625,0.111358642578125,-0.0321044921875
1700516052304990200,9.853990234375,-0.796234130859375,-0.4266815185546875,-0.04339599609375
1700516052315000300,9.864000244140625,-0.697540283203125,-0.631256103515625,0.00933837890625
1700516052325009200,9.874009033203125,-1.2203826904296875,-0.3107147216796875,0.0918121337890625
1700516052335019000,9.88401904296875,-0.1923828125,0.127716064453125,-0.2017364501953125
1700516052345028000,9.894028076171875,-1.7164154052734375,-0.5922088623046875,0.1178131103515625
1700516052355038200,9.9040380859375,-0.8278961181640625,-0.4396820068359375,0.0109405517578125
1700516052365048000,9.914048095703125,-0.047271728515625,0.07470703125,-0.073638916015625
1700516052375057200,9.92405712890625,-1.178955078125,-0.16998291015625,0.0655059814453125
1700516052385067300,9.9340673828125,-1.181671142578125,-0.267547607421875,0.1548614501953125
1700516052395076400,9.944076416015625,-0.10345458984375,-0.3444366455078125,-0.0881195068359375
1700516052405086200,9.954086181640625,-0.698944091796875,-0.1302337646484375,-0.1292572021484375
1700516052415095300,9.96409521484375,-0.930633544921875,-0.22796630859375,0.136474609375
1700516052425105400,9.97410546875,-0.8509368896484375,-0.3818359375,-0.018798828125
1700516052435114200,9.9841142578125,-0.8406982421875,0.33978271484375,0.0453643798828125
1700516052445124000,9.9941240234375,-0.98138427734375,-0.310516357421875,-0.1681671142578125
1700516052455134200,10.00413427734375,-1.7141265869140625,-0.5526123046875,-0.022003173828125
1700516052465143300,10.014143310546874,-0.6760711669921875,0.0325469970703125,0.0065765380859375
1700516052475153200,10.024153076171874,-1.12811279296875,-0.0926055908203125,-0.016876220703125
1700516052485162200,10.034162353515624,-1.4688262939453125,-0.3473358154296875,0.1811065673828125
1700516052495172400,10.04417236328125,-0.8542327880859375,-0.5482177734375,0.099578857421875
1700516052505181400,10.054181396484376,-0.8557281494140625,-0.0028839111328125,-0.0510406494140625
1700516052515191300,10.06419140625,-1.1009979248046875,-0.382415771484375,0.133819580078125
1700516052525200100,10.0742001953125,-1.13507080078125,-0.5748748779296875,0.237701416015625
1700516052535210200,10.084210205078126,-1.083526611328125,0.041259765625,0.051666259765625
1700516052545220000,10.09422021484375,-0.8148040771484375,-0.3946685791015625,-0.1615447998046875
1700516052555229200,10.104229248046876,-0.8501434326171875,-0.440948486328125,-0.007293701171875
1700516052565239300,10.1142392578125,-0.9487152099609375,-0.51812744140625,0.169586181640625
1700516052575248100,10.124248046875,-1.028533935546875,0.0749053955078125,-0.0051727294921875
1700516052585258200,10.13425830078125,-1.2706298828125,-0.222076416015625,0.0841522216796875
1700516052595267300,10.144267333984375,-1.267974853515625,-0.414093017578125,-0.1878509521484375
1700516052605277200,10.154277099609375,-0.6415863037109375,-0.01361083984375,0.0345458984375
1700516052615287300,10.164287353515626,-0.5011138916015625,-0.069610595703125,-0.0335235595703125
1700516052625296100,10.174296142578125,-1.74493408203125,-0.6310882568359375,0.231414794921875
1700516052635306200,10.18430615234375,-0.3006134033203125,-0.183502197265625,-0.0858154296875
1700516052645315000,10.194315185546875,-0.575927734375,0.0753021240234375,-0.0510711669921875
1700516052655325200,10.2043251953125,-1.8922119140625,-0.205413818359375,0.213134765625
1700516052665334300,10.214334228515625,-0.86602783203125,-0.3637237548828125,-0.0284881591796875
1700516052675344100,10.22434423828125,-0.481292724609375,-0.0490570068359375,-0.0336761474609375
1700516052685353200,10.234353271484375,-0.964019775390625,-0.2493896484375,0.0898895263671875
1700516052695363300,10.24436328125,-1.6101837158203125,-0.44317626953125,0.1633453369140625
1700516052705373200,10.254373291015625,-0.6921539306640625,-0.2759246826171875,0.090728759765625
1700516052715382000,10.264382080078125,-1.2783203125,-0.0035552978515625,-0.0804595947265625
1700516052725392100,10.27439208984375,-1.5236053466796875,-0.43023681640625,-0.03521728515625
1700516052735401200,10.284401123046875,-1.218231201171875,-0.31219482421875,-0.0142059326171875
1700516052745411000,10.2944111328125,-1.015472412109375,-0.114532470703125,0.0444793701171875
1700516052755420200,10.304420166015625,-0.8716278076171875,-0.3387603759765625,-0.0062408447265625
1700516052765430300,10.31443017578125,-1.0425872802734375,-0.5404815673828125,0.011322021484375
1700516052775442400,10.3244423828125,-1.198089599609375,-0.0786590576171875,0.0999603271484375
1700516052785452300,10.334452392578125,-0.8018341064453125,-0.1781463623046875,-0.0622406005859375
1700516052795461400,10.34446142578125,-1.014862060546875,-0.566436767578125,0.1616058349609375
1700516052805471200,10.35447119140625,-0.5282135009765625,-0.385498046875,0.045166015625
1700516052815481000,10.364481201171875,-0.6052398681640625,0.0948944091796875,0.047698974609375
1700516052825490200,10.374490234375,-0.98175048828125,-0.2451324462890625,0.0831451416015625
1700516052835500300,10.384500244140625,-1.1833648681640625,-0.3784942626953125,-0.0487823486328125
1700516052845509400,10.39450927734375,-0.4716033935546875,-0.1339874267578125,-0.03179931640625
1700516052855519200,10.404519287109375,-0.6682281494140625,0.0543365478515625,-0.0927886962890625
1700516052865528300,10.4145283203125,-1.534881591796875,-0.2837982177734375,0.1488037109375
1700516052875538400,10.424538330078125,-0.930877685546875,-0.392578125,-0.0232391357421875
1700516052885547500,10.434547607421875,-0.59295654296875,0.332122802734375,-0.062255859375
1700516052895557400,10.444557373046875,-1.0612945556640625,-0.3576812744140625,0.1647186279296875
1700516052905566200,10.454566162109375,-1.660797119140625,-0.4700927734375,0.0654296875
1700516052915576300,10.464576416015625,-0.6893157958984375,-0.045654296875,-0.03240966796875
1700516052925586200,10.474586181640625,-0.72882080078125,-0.1783294677734375,-0.246551513671875
1700516052935595300,10.48459521484375,-1.481231689453125,-0.4693756103515625,0.1140899658203125
1700516052945605400,10.49460546875,-0.961029052734375,-0.4459991455078125,0.0408782958984375
1700516052955614200,10.5046142578125,-1.1636810302734375,0.016265869140625,-0.1357879638671875
1700516052965624300,10.514624267578125,-1.2064056396484375,-0.40130615234375,0.0897369384765625
1700516052975633400,10.52463330078125,-0.9990234375,-0.4515838623046875,0.036376953125
1700516052985643300,10.534643310546874,-0.8339385986328125,0.0755615234375,0.0286102294921875
1700516052995652000,10.544652099609374,-0.8657989501953125,-0.460052490234375,0.0913238525390625
1700516053005662200,10.554662109375,-1.10308837890625,-0.2920074462890625,0.168975830078125
1700516053015672300,10.56467236328125,-1.2304840087890625,-0.38031005859375,0.122772216796875
1700516053025681200,10.57468115234375,-0.4860076904296875,0.2968597412109375,-0.0927276611328125
1700516053035691300,10.584691162109374,-1.1845855712890625,-0.5201873779296875,0.2008514404296875
1700516053045700400,10.594700439453124,-1.1803131103515625,-0.3832550048828125,-0.0218963623046875
1700516053055710200,10.604710205078124,-0.36651611328125,0.177154541015625,0.0355377197265625
1700516053065719300,10.61471923828125,-0.96087646484375,-0.32696533203125,-0.015289306640625
1700516053075729400,10.6247294921875,-1.347900390625,-0.33984375,-0.0355377197265625
1700516053085738200,10.63473828125,-0.7078857421875,-0.2195281982421875,0.0313720703125
1700516053095748000,10.644748046875,-0.9119873046875,0.0677642822265625,-0.2176055908203125
1700516053105757200,10.654757080078125,-1.4287109375,-0.4150238037109375,0.06182861328125
1700516053115767300,10.664767333984376,-0.9963226318359375,-0.3946533203125,-0.0200042724609375
1700516053125776400,10.6747763671875,-0.78497314453125,0.135711669921875,0.08880615234375
1700516053135786200,10.6847861328125,-1.316864013671875,-0.3989105224609375,0.13336181640625
1700516053145796400,10.69479638671875,-1.168182373046875,-0.53125,0.117919921875
1700516053155805400,10.704805419921875,-1.219390869140625,-0.1092071533203125,0.1016693115234375
1700516053165815300,10.714815185546875,-0.777496337890625,0.0172576904296875,-0.000244140625
1700516053175824400,10.724824462890625,-0.892059326171875,-0.5813751220703125,0.122314453125
1700516053185834500,10.73483447265625,-1.0003509521484375,-0.3054351806640625,0.142547607421875
1700516053195843300,10.74484326171875,-0.9526519775390625,0.0273284912109375,-0.0713348388671875
1700516053205853200,10.754853271484375,-0.958953857421875,-0.2866363525390625,0.0596923828125
1700516053215862300,10.7648623046875,-1.0826263427734375,-0.4202117919921875,-0.00836181640625
1700516053225872400,10.774872314453125,-1.01568603515625,-0.0622100830078125,0.2472076416015625
1700516053235881200,10.784881103515625,-0.3748931884765625,-0.0000457763671875,-0.0747222900390625
1700516053245891300,10.794891357421875,-1.667877197265625,-0.4805908203125,0.1647186279296875
1700516053255900400,10.804900390625,-0.7165374755859375,-0.2373046875,-0.0060577392578125
1700516053265910300,10.81491015625,-0.84716796875,0.1764068603515625,-0.1044464111328125
1700516053275920400,10.82492041015625,-1.27850341796875,-0.412322998046875,0.1338653564453125
1700516053285929200,10.83492919921875,-1.1651611328125,-0.43658447265625,-0.0736236572265625
1700516053295939300,10.844939208984375,-0.7853240966796875,-0.015167236328125,0.12646484375
1700516053305948200,10.8549482421875,-0.8471221923828125,-0.2662200927734375,0.0556182861328125
1700516053315958300,10.864958251953125,-1.51837158203125,-0.4969024658203125,0.0521087646484375
1700516053325967400,10.87496728515625,-0.860504150390625,-0.200408935546875,0.0037384033203125
1700516053335977200,10.884977294921875,-0.6763763427734375,0.0220489501953125,-0.0102691650390625
1700516053345986300,10.894986328125,-1.00946044921875,-0.3441162109375,0.1471099853515625
1700516053355996400,10.904996337890625,-0.7672271728515625,-0.56695556640625,0.1158294677734375
1700516053366005200,10.915005126953124,-1.08489990234375,0.1475677490234375,0.0202789306640625
1700516053376015000,10.92501513671875,-0.5312957763671875,-0.063323974609375,0.0347747802734375
1700516053386024200,10.935024169921874,-1.7262115478515625,-0.44482421875,0.0809783935546875
1700516053396034300,10.945034423828124,-0.482818603515625,-0.0929107666015625,0.07318115234375
1700516053406043400,10.95504345703125,-0.78570556640625,-0.00836181640625,-0.038543701171875
1700516053416053200,10.96505322265625,-1.1207275390625,-0.2595977783203125,0.0425567626953125
1700516053426063400,10.9750634765625,-0.6546783447265625,-0.4866180419921875,-0.0223388671875
1700516053436072400,10.985072509765626,-1.12249755859375,0.1405029296875,-0.06689453125
1700516053446082300,10.995082275390626,-1.0006256103515625,-0.218292236328125,0.0462799072265625
1700516053456091400,11.00509130859375,-1.466827392578125,-0.4265899658203125,0.0419921875
1700516053466101500,11.0151015625,-0.708831787109375,-0.1361541748046875,0.18389892578125
1700516053476110300,11.0251103515625,-0.945404052734375,-0.1225128173828125,0.067291259765625
1700516053486120200,11.0351201171875,-1.40057373046875,-0.4356536865234375,0.2130889892578125
1700516053496129300,11.04512939453125,-1.278961181640625,-0.53802490234375,-0.00897216796875
1700516053506139400,11.055139404296876,-1.088104248046875,0.3427581787109375,0.0273590087890625
1700516053516148200,11.065148193359375,-0.8184814453125,-0.521820068359375,0.021270751953125
1700516053526158300,11.075158447265625,-0.741241455078125,-0.3780517578125,0.00225830078125
1700516053536167400,11.08516748046875,-0.9089202880859375,-0.05474853515625,0.0412139892578125
1700516053546177300,11.09517724609375,-0.92596435546875,-0.2642974853515625,-0.1071624755859375
1700516053556186000,11.10518603515625,-1.1203460693359375,-0.2102813720703125,0.040924072265625
1700516053566196200,11.1151962890625,-0.8567657470703125,-0.4398345947265625,0.0748291015625
1700516053576205300,11.125205322265625,-0.540435791015625,0.3886260986328125,-0.0615997314453125
1700516053586215200,11.135215087890625,-0.9045562744140625,-0.2942047119140625,0.0715789794921875
1700516053596225300,11.145225341796875,-1.4095611572265625,-0.58282470703125,0.0558624267578125
1700516053606234400,11.155234375,-0.6687469482421875,0.04156494140625,0.0537872314453125
1700516053616244200,11.165244140625,-0.7633209228515625,0.04437255859375,-0.074798583984375
1700516053626253300,11.17525341796875,-1.5844573974609375,-0.386016845703125,0.3379974365234375
1700516053636263400,11.185263427734375,-0.9359588623046875,-0.452484130859375,0.0631866455078125
1700516053646272300,11.195272216796875,-0.72216796875,0.2503662109375,-0.13037109375
1700516053656282000,11.2052822265625,-1.3660736083984375,-0.4345550537109375,0.112762451171875
1700516053666291200,11.215291259765625,-0.9766845703125,-0.548980712890625,-0.0247802734375
1700516053676301300,11.22530126953125,-1.094146728515625,-0.076904296875,0.0052947998046875
1700516053686310400,11.235310302734375,-0.6901092529296875,-0.073516845703125,-0.1558380126953125
1700516053696320300,11.2453203125,-1.130218505859375,-0.494354248046875,0.0852203369140625
1700516053706329300,11.255329345703124,-1.215667724609375,-0.1739349365234375,0.1416473388671875
1700516053716339500,11.26533935546875,-0.865631103515625,-0.0452423095703125,-0.085784912109375
1700516053726348300,11.275348388671874,-0.81988525390625,-0.171966552734375,0.1877593994140625
1700516053736358400,11.2853583984375,-0.9141693115234375,-0.502105712890625,0.1754608154296875
1700516053746367200,11.2953671875,-1.0292510986328125,0.156341552734375,0.00537109375
1700516053756377300,11.30537744140625,-0.3061676025390625,-0.1291351318359375,-0.0522308349609375
1700516053766386200,11.31538623046875,-1.7159271240234375,-0.569580078125,0.075775146484375
1700516053776392700,11.325392822265625,-0.536712646484375,-0.1039886474609375,0.0387420654296875
1700516053786401800,11.33540185546875,-0.711029052734375,0.0285186767578125,-0.0963287353515625
1700516053796411600,11.34541162109375,-1.467803955078125,-0.3274688720703125,0.1461029052734375
1700516053806421800,11.355421875,-0.9323577880859375,-0.466644287109375,-0.1019287109375
1700516053816430800,11.365430908203125,-0.6795806884765625,0.209503173828125,-0.0292816162109375
1700516053826440700,11.375440673828125,-0.952911376953125,-0.3301544189453125,0.0597686767578125
1700516053836449800,11.38544970703125,-1.6112060546875,-0.479705810546875,-0.02435302734375
1700516053846460000,11.3954599609375,-0.225372314453125,-0.0599822998046875,0.0223388671875
1700516053856469000,11.405468994140625,-0.6611785888671875,-0.020263671875,-0.0531005859375
1700516053866478600,11.415478515625,-1.562042236328125,-0.28173828125,0.1874847412109375
1700516053876487700,11.42548779296875,-0.653778076171875,-0.42547607421875,0.0634613037109375
1700516053886497800,11.435497802734375,-0.5869293212890625,0.2560882568359375,-0.020660400390625
1700516053896507000,11.4455068359375,-1.2971954345703125,-0.2033843994140625,0.1809844970703125
1700516053906516700,11.455516845703125,-1.3880462646484375,-0.399078369140625,-0.04290771484375
1700516053916525800,11.46552587890625,-0.3533477783203125,-0.1163482666015625,0.0426025390625
1700516053926536000,11.475535888671875,-0.7244415283203125,0.002777099609375,-0.113525390625
1700516053936544800,11.485544677734374,-1.817535400390625,-0.38922119140625,0.137939453125
1700516053946555000,11.495554931640624,-0.628814697265625,-0.3884429931640625,-0.0299835205078125
1700516053956563700,11.505563720703124,-1.0210418701171875,0.09661865234375,-0.1231689453125
1700516053966573800,11.51557373046875,-1.12200927734375,-0.2801666259765625,0.04315185546875
1700516053976582700,11.525582763671874,-1.1165008544921875,-0.56988525390625,-0.0015411376953125
1700516053986592800,11.5355927734375,-1.0614166259765625,0.0287628173828125,0.013336181640625
1700516053996601900,11.545601806640626,-0.607208251953125,-0.1740570068359375,0.0079345703125
1700516054006611700,11.55561181640625,-1.38494873046875,-0.4656982421875,0.1902008056640625
1700516054016620800,11.565620849609376,-0.9209442138671875,-0.2163238525390625,0.106048583984375
1700516054026631000,11.575630859375,-0.69500732421875,0.1122283935546875,-0.0442047119140625
1700516054036639700,11.5856396484375,-1.1840057373046875,-0.24041748046875,0.0963134765625
1700516054046649600,11.595649658203126,-0.93695068359375,-0.478790283203125,-0.069671630859375
1700516054056658700,11.60565869140625,-1.186279296875,0.2978973388671875,0.02813720703125
1700516054066668800,11.615668701171876,-0.4281158447265625,-0.2947235107421875,-0.01458740234375
1700516054076678700,11.6256787109375,-1.3397216796875,-0.414703369140625,0.0045166015625
1700516054086687700,11.635687744140625,-0.843109130859375,-0.330230712890625,-0.0222320556640625
1700516054096697900,11.64569775390625,-0.5514373779296875,0.2408599853515625,-0.15533447265625
1700516054106707000,11.65570703125,-1.493896484375,-0.3602752685546875,0.1635284423828125
1700516054116716800,11.665716796875,-1.1089019775390625,-0.4661865234375,-0.121490478515625
1700516054126726000,11.675725830078125,-0.446746826171875,0.1525726318359375,-0.0504150390625
1700516054136736000,11.685736083984375,-1.1246795654296875,-0.2144317626953125,0.161407470703125
1700516054146744800,11.695744873046875,-1.9122467041015625,-0.46197509765625,0.1088409423828125
1700516054156754700,11.705754638671875,-0.44940185546875,-0.192626953125,0.0117645263671875
1700516054166763800,11.715763671875,-0.757598876953125,-0.0006561279296875,-0.0528717041015625
1700516054176774000,11.72577392578125,-1.66131591796875,-0.301300048828125,0.2590484619140625
1700516054186782700,11.73578271484375,-0.8239288330078125,-0.3885650634765625,0.0234832763671875
1700516054196792800,11.745792724609375,-0.9048919677734375,0.1638946533203125,-0.0452728271484375
1700516054206802000,11.755802001953125,-0.9207916259765625,-0.262847900390625,0.1292724609375
1700516054216811800,11.765811767578125,-1.1480712890625,-0.45477294921875,0.0201416015625
1700516054226820600,11.775820556640625,-1.142852783203125,0.169525146484375,0.0384368896484375
1700516054236830700,11.785830810546875,-0.592681884765625,-0.265472412109375,-0.097320556640625
1700516054246839800,11.79583984375,-1.1695709228515625,-0.37823486328125,-0.0496826171875
1700516054256849700,11.805849609375,-0.84454345703125,-0.393463134765625,0.0105438232421875
1700516054266858800,11.815858642578124,-1.008209228515625,0.2913818359375,-0.1309814453125
1700516054276868900,11.825868896484375,-0.8454437255859375,-0.36920166015625,0.0809173583984375
1700516054286878000,11.8358779296875,-1.0482940673828125,-0.4878387451171875,-0.04144287109375
1700516054296887800,11.8458876953125,-0.6189422607421875,0.12298583984375,0.18463134765625
1700516054306896600,11.855896728515624,-0.8070526123046875,-0.083343505859375,0.125
1700516054316906800,11.86590673828125,-1.9396209716796875,-0.46893310546875,0.09271240234375
1700516054326915800,11.875915771484374,-0.744476318359375,-0.08642578125,-0.0326995849609375
1700516054336925700,11.88592578125,-1.1183319091796875,0.125030517578125,-0.1142730712890625
1700516054346934800,11.895934814453126,-1.5939788818359375,-0.322509765625,0.06903076171875
1700516054356945000,11.90594482421875,-0.92962646484375,-0.47222900390625,-0.0908355712890625
1700516054366953700,11.91595361328125,-1.193603515625,0.1098480224609375,-0.068878173828125
1700516054376963800,11.9259638671875,-0.7963714599609375,-0.2169952392578125,-0.063629150390625
1700516054386973000,11.935972900390626,-0.820526123046875,-0.494384765625,0.0875244140625
1700516054396982800,11.945982666015626,-0.94012451171875,-0.068634033203125,0.201202392578125
1700516054406991600,11.95599169921875,-0.5616302490234375,-0.12188720703125,-0.040313720703125
1700516054417001700,11.966001708984376,-1.32818603515625,-0.529815673828125,0.227447509765625
1700516054427010800,11.9760107421875,-0.681793212890625,-0.32073974609375,0.01312255859375
1700516054437020700,11.986020751953125,-0.6810150146484375,0.398040771484375,0.1300811767578125
1700516054447029800,11.99602978515625,-1.131072998046875,-0.25128173828125,0.1423492431640625
1700516054457040000,12.006039794921875,-1.3248291015625,-0.4831085205078125,-0.14373779296875
1700516054467049000,12.016049072265625,-1.0165557861328125,0.1247406005859375,-0.175445556640625
1700516054477058800,12.026058837890625,-0.6314239501953125,0.0519561767578125,-0.1590423583984375
1700516054487067600,12.036067626953125,-1.808868408203125,-0.3726043701171875,-0.00750732421875
1700516054497077800,12.046077880859375,-0.8188629150390625,-0.0712127685546875,0.0160064697265625
1700516054507087600,12.056087646484375,-0.4968109130859375,0.002777099609375,-0.1436004638671875
1700516054517096700,12.0660966796875,-1.3195037841796875,-0.3278961181640625,0.181427001953125
1700516054527105800,12.076105712890625,-1.1068572998046875,-0.3295745849609375,0.3478851318359375
1700516054537116000,12.086115966796875,-0.6539764404296875,0.0318756103515625,-0.035369873046875
1700516054547125800,12.096125732421875,-0.989471435546875,-0.305908203125,0.11669921875
1700516054557134800,12.106134765625,-1.571197509765625,-0.39471435546875,0.1302032470703125
1700516054567145000,12.11614501953125,-0.642333984375,-0.2206878662109375,0.0879974365234375
1700516054577153800,12.12615380859375,-0.6336822509765625,-0.0844879150390625,-0.1770477294921875
1700516054587163600,12.13616357421875,-1.7009735107421875,-0.4062957763671875,0.13238525390625
1700516054597172700,12.1461728515625,-0.6290435791015625,-0.3249053955078125,-0.0832061767578125
1700516054607182800,12.156182861328125,-0.5559234619140625,0.05670166015625,-0.129302978515625
1700516054617191700,12.166191650390624,-1.5072021484375,-0.1809234619140625,0.2209625244140625
1700516054627201800,12.176201904296875,-1.40948486328125,-0.4287872314453125,-0.0500335693359375
1700516054637211000,12.1862109375,-0.2500457763671875,0.1508026123046875,-0.0184783935546875
1700516054647220700,12.196220703125,-0.7459564208984375,-0.17718505859375,0.0302734375
1700516054657229800,12.206229736328124,-1.5997467041015625,-0.2267608642578125,0.2514190673828125
1700516054667240000,12.216239990234374,-0.3727874755859375,-0.2135467529296875,0.0940399169921875
1700516054677248800,12.226248779296874,-0.3076934814453125,0.128814697265625,-0.018035888671875
1700516054687258600,12.236258544921874,-1.8184661865234375,-0.2882232666015625,0.2147064208984375
1700516054697267700,12.246267822265626,-0.89324951171875,-0.2470550537109375,0.0486297607421875
1700516054707277800,12.25627783203125,-0.4921112060546875,0.120635986328125,-0.0184326171875
1700516054717287000,12.266286865234376,-1.3587646484375,-0.3084259033203125,0.1551971435546875
1700516054727296800,12.276296875,-1.6370849609375,-0.384002685546875,0.0424346923828125
1700516054737305900,12.286305908203126,-0.4500885009765625,0.0392913818359375,-0.0406951904296875
1700516054747316000,12.29631591796875,-0.898193359375,-0.344696044921875,-0.14984130859375
1700516054757324800,12.30632470703125,-1.8851470947265625,-0.2613067626953125,0.1023101806640625
1700516054767334700,12.316334716796876,-0.618499755859375,-0.2753753662109375,0.045867919921875
1700516054777344500,12.326344482421876,-0.8638763427734375,-0.0264892578125,0.015869140625
1700516054787354400,12.336354248046876,-1.3790283203125,-0.29046630859375,0.3084564208984375
1700516054797363500,12.346363525390625,-0.5227203369140625,-0.2773284912109375,0.0826568603515625
1700516054807373600,12.35637353515625,-0.3238983154296875,-0.0388031005859375,0.0435028076171875
1700516054817382700,12.366382568359375,-0.96807861328125,-0.2368927001953125,0.155914306640625
1700516054827392500,12.376392578125,-1.42694091796875,-0.3812103271484375,0.0807952880859375
1700516054837401600,12.386401611328125,-0.7816009521484375,0.1133270263671875,0.0500946044921875
1700516054847411700,12.39641162109375,-0.942840576171875,-0.08221435546875,-0.0908966064453125
1700516054857420500,12.406420654296875,-1.816497802734375,-0.1752471923828125,0.1678009033203125
1700516054867430400,12.416430419921875,-0.8237762451171875,-0.3012237548828125,-0.11871337890625
1700516054877439500,12.426439453125,-0.60198974609375,0.13623046875,0.009796142578125
1700516054887449600,12.43644970703125,-1.627716064453125,-0.3624267578125,0.3075408935546875
1700516054897458400,12.44645849609375,-1.0153961181640625,-0.3268585205078125,-0.0739593505859375
1700516054907468500,12.456468505859375,-0.812347412109375,0.0230712890625,0.0181427001953125
1700516054917477600,12.4664775390625,-1.1935882568359375,-0.288604736328125,0.3012237548828125
1700516054927487500,12.476487548828125,-1.1984710693359375,-0.4545440673828125,0.1000213623046875
1700516054937496600,12.48649658203125,-0.5172119140625,0.040069580078125,0.1208953857421875
1700516054947506700,12.496506591796875,-0.5811309814453125,-0.2348480224609375,-0.099151611328125
1700516054957515500,12.506515625,-1.36114501953125,-0.33416748046875,0.121368408203125
1700516054967525400,12.516525390625,-0.9040069580078125,-0.16485595703125,0.0588836669921875
1700516054977534500,12.526534423828124,-0.79461669921875,0.2259521484375,-0.114410400390625
1700516054987544600,12.536544677734375,-1.0246124267578125,-0.259765625,0.092559814453125
1700516054997553700,12.5465537109375,-0.93853759765625,-0.3172454833984375,0.0766754150390625
1700516055007563500,12.5565634765625,-0.613433837890625,0.2968292236328125,0.1176910400390625
1700516055017572600,12.566572509765624,-1.1157684326171875,-0.2808380126953125,0.208984375
1700516055027582700,12.576582763671874,-1.6395416259765625,-0.4141998291015625,0.08404541015625
1700516055037591600,12.586591552734374,-0.6902008056640625,0.1447296142578125,0.126861572265625
1700516055047601400,12.596601318359374,-0.9428558349609375,-0.1991729736328125,-0.0390777587890625
1700516055057610500,12.606610595703126,-1.53643798828125,-0.3081207275390625,0.147796630859375
1700516055067620600,12.61662060546875,-0.7963104248046875,-0.368377685546875,-0.0049896240234375
1700516055077629400,12.62662939453125,-0.78680419921875,0.097625732421875,0.0091400146484375
1700516055087639600,12.6366396484375,-1.061737060546875,-0.259124755859375,0.227508544921875
1700516055097648600,12.646648681640626,-0.9979400634765625,-0.3218841552734375,0.027374267578125
1700516055107658800,12.65665869140625,-0.46826171875,0.155487060546875,0.0355072021484375
1700516055117667300,12.666667236328125,-0.782928466796875,-0.1441192626953125,0.1307373046875
1700516055127677400,12.676677490234376,-1.3941802978515625,-0.4658050537109375,0.083892822265625
1700516055137686500,12.6866865234375,-0.636077880859375,0.09027099609375,0.1397247314453125
1700516055147696400,12.6966962890625,-0.5980224609375,0.0113677978515625,-0.0184173583984375
1700516055157705500,12.70670556640625,-1.3899078369140625,-0.314605712890625,0.1171417236328125
1700516055167715600,12.716715576171875,-0.8054962158203125,-0.2814483642578125,0.0135955810546875
1700516055177724700,12.726724609375,-0.7088165283203125,0.2167205810546875,-0.0252532958984375
1700516055187734500,12.736734619140625,-1.2351531982421875,-0.260406494140625,0.0528564453125
1700516055197743600,12.74674365234375,-1.159576416015625,-0.2889862060546875,-0.0431976318359375
1700516055207753700,12.756753662109375,-0.51324462890625,0.1232757568359375,0.0010833740234375
1700516055217762600,12.766762451171875,-0.816192626953125,-0.1853485107421875,0.1317138671875
1700516055227772400,12.7767724609375,-1.4990081787109375,-0.401397705078125,0.2162628173828125
1700516055237781500,12.786781494140625,-0.699951171875,0.071746826171875,0.1482391357421875
1700516055247791600,12.79679150390625,-0.7511749267578125,-0.0765838623046875,-0.0199432373046875
1700516055257800700,12.80680078125,-1.643463134765625,-0.2642822265625,0.1381378173828125
1700516055267810600,12.816810546875,-0.8917236328125,-0.185272216796875,0.0784759521484375
1700516055277819600,12.826819580078125,-0.9431610107421875,0.097015380859375,-0.1197662353515625
1700516055287829800,12.836829833984375,-1.2127532958984375,-0.3122406005859375,0.109222412109375
1700516055297838300,12.84683837890625,-0.8958892822265625,-0.2140045166015625,-0.0651702880859375
1700516055307848400,12.856848388671875,-0.9895172119140625,0.03070068359375,-0.109954833984375
1700516055317857500,12.866857421875,-1.02191162109375,-0.16632080078125,0.2530364990234375
