time,seconds_elapsed,z,y,x
1700516042515638800,0.064638671875,-0.17660978183746337,0.21025530019924044,-0.39183264131620527
1700516042525647600,0.074647705078125,1.1561691002309322,1.2591769086323679,0.16492500659953802
1700516042535657700,0.08465771484375,1.8315157547026872,-2.1460297401472923,0.5695250672912224
1700516042545666800,0.094666748046875,-4.151700577011704,1.3267588911265134,-0.7213217122483998
1700516042555675600,0.104675537109375,0.4408189366728067,-0.10598682421222329,-0.0013121237781830131
1700516042565685800,0.114685791015625,1.1200883175462484,1.135284352308139,0.20462805316830052
1700516042575694800,0.12469482421875,0.25256314070522784,-1.2148815475709736,0.14055362213738262
1700516042585703700,0.13470361328125,0.8358008358001708,0.22126791179664432,-0.16185144437309354
1700516042595713500,0.144713623046875,-1.9641788427859543,0.35906383272372183,0.05971384293492883
1700516042605722600,0.15472265625,0.2237473805874586,0.32717765218466516,-0.36036680508106944
1700516042615732700,0.164732666015625,1.7764438558220863,1.4019430191874502,0.03105537400441244
1700516042625741800,0.174741943359375,0.9461860411018133,-2.2185928720548747,0.5416752661287785
1700516042635750700,0.184750732421875,-4.159686315068602,1.4660123173855244,-0.6594340689383447
1700516042645760800,0.1947607421875,0.9052665862143039,-0.2526971423484385,-0.006859053848218172
1700516042655769900,0.204769775390625,1.2503233016997575,1.189128316828981,0.23714580960916354
1700516042665778700,0.21477880859375,-0.0578396100282669,-1.1912879060156643,0.06831367603586987
1700516042675788500,0.22478857421875,0.762830292135477,0.312820187138766,-0.16616508805481717
1700516042685797600,0.234797607421875,-1.6926602417200802,0.2839483859848231,0.1043995367544703
1700516042695806700,0.244806640625,0.25032208378016946,0.46167526221871374,-0.3654829425184056
1700516042705816800,0.25481689453125,1.4392267479211092,1.1152980145297944,0.06481648156987503
1700516042715826000,0.264825927734375,1.0640881979048251,-2.1782398188784717,0.6405949284337461
1700516042725835800,0.274835693359375,-3.7101363749295473,1.5057213735699653,-0.82146982036978
1700516042735844600,0.2848447265625,0.4797831658393144,-0.5417822336345911,0.05414177842363715
1700516042745853700,0.294853759765625,1.3241869948118925,1.1685321765892207,0.13744776507653295
1700516042755863600,0.304863525390625,-0.012289572730660437,-1.2727185272507369,0.036197285203821955
1700516042765872000,0.3148720703125,1.0879928051054477,0.17826120230630038,-0.2935896726964041
1700516042775881200,0.324881103515625,-2.1763585351765156,0.2817772524908185,0.06108893068041652
1700516042785891300,0.334891357421875,0.3117477356016636,0.41075390714630483,-0.43867169551104307
1700516042795900400,0.344900390625,1.883437665119767,1.0413011965572834,0.032601361337397244
1700516042805910300,0.35491015625,0.8749661404967307,-2.3634537629321217,0.5941476865680888
1700516042815919400,0.36491943359375,-3.7668788373708724,1.6865166243985295,-0.9002071108676493
1700516042825928400,0.374928466796875,0.5432289253115654,-0.3988044530902058,0.22213400884037837
1700516042835938600,0.3849384765625,1.2467168016403913,1.1152014953527598,0.24647496163165195
1700516042845947400,0.394947509765625,0.2013128459393978,-1.1111350496314465,-0.04649866152564063
1700516042855956200,0.404956298828125,1.1316519140899182,0.4911036012768745,-0.0778987755808048
1700516042865966300,0.41496630859375,-2.5431717399179936,0.3779138599485159,0.16650898785535245
1700516042875975400,0.424975341796875,0.5789741924315691,0.7332134447678923,-0.4148399343509227
1700516042885984500,0.434984619140625,2.0826094073772428,0.9326900882560759,0.20036383811887354
1700516042895994400,0.444994384765625,0.3706020756304264,-2.0077005891263484,0.6716000152893364
1700516042906003200,0.455003173828125,-4.010516913342475,1.6508868003517387,-0.8393877543762326
1700516042916013300,0.465013427734375,1.1547054574191569,-0.19885624656751752,0.1958012794436887
1700516042926022400,0.4750224609375,0.9395125546872616,1.0808803427517413,0.4145776301529258
1700516042936031200,0.48503125,0.4424789788395166,-1.5109765176191925,-0.08670551116438582
1700516042946041300,0.495041259765625,0.5409457828104496,0.7735834490790963,-0.1432491813642904
1700516042956050400,0.505050537109375,-2.2900363522827623,-0.02627593944184482,0.20722859105551614
1700516042966059500,0.5150595703125,0.9765800103217362,0.7871798666246235,-0.5761208853596821
1700516042976069400,0.5250693359375,2.242011449304223,0.3373061744239181,0.27013174981735644
1700516042986078200,0.535078125,-0.791814394557476,-1.936746207589656,0.49862654412761326
1700516042996088300,0.54508837890625,-3.507141859513521,1.5889945539318024,-0.9103334411498158
1700516043006097400,0.555097412109375,1.6319202340751886,-0.33525011867694554,0.1579812701425515
1700516043016106200,0.565106201171875,0.3415969304203987,0.9768364693008362,0.37204306821897626
1700516043026116400,0.575116455078125,0.8820610671937466,-1.6663702006876469,-0.13309731478206813
1700516043036125400,0.58512548828125,-0.08047522020637989,0.9648338237527757,-0.26305819470193237
1700516043046134300,0.59513427734375,-2.1159446907460686,-0.20438662736155092,0.23374858665261417
1700516043056144100,0.60514404296875,1.3991992734372616,1.379242527079582,-0.7558733126044272
1700516043066153200,0.6151533203125,2.8175942457318306,-0.6905775413513183,0.6306172128420323
1700516043076163300,0.625163330078125,-1.9879653765648602,-1.0376888512790203,0.12026053823111578
1700516043086172400,0.63517236328125,-2.8684529108315706,1.157473168566823,-0.6898536109909414
1700516043096181500,0.645181396484375,2.281270862025022,0.16023688531592487,0.11512049019522964
1700516043106191400,0.65519140625,0.21794950796365736,0.6713433371145278,0.2763434091401286
1700516043116200400,0.665200439453125,0.9908815073966979,-1.8345172746062277,-0.03323825273513794
1700516043126209300,0.675209228515625,-1.4157324750870466,1.7036653275981544,-0.33518578473646193
1700516043136219100,0.68521923828125,-0.029157120901346204,-0.5640490105003119,0.33395459897369145
1700516043146228200,0.695228271484375,0.5656903479665517,1.8452078877076505,-0.761630122565478
1700516043156238300,0.70523828125,1.2520838816314934,-1.1310738219410181,0.8694549027945846
1700516043166247400,0.715247314453125,-1.870223963281512,-0.18895283832103013,-0.33286720559578387
1700516043176256500,0.725256591796875,0.5034066180109977,0.41405126819126303,-0.4085421128483489
1700516043186266400,0.735266357421875,-1.4526596454679965,1.198290624384582,0.34419980639517306
1700516043196275200,0.745275146484375,0.519633530190587,-0.04839059448577463,-0.2555610804121941
1700516043206284300,0.7552841796875,1.1242015980839728,-0.9169846426673233,0.3831355401195585
1700516043216294400,0.76529443359375,0.4108171816408634,0.5883767384838312,-0.32843981760758906
1700516043226303200,0.77530322265625,-1.583992361730337,0.021304215443879365,-0.05764724752763286
1700516043236313300,0.785313232421875,-0.06396013873517513,1.9842429950408635,-0.36416232490651307
1700516043246322400,0.795322509765625,1.8920161083728073,-1.746781415747106,0.6734064801894127
1700516043256331500,0.80533154296875,-1.4995014761418104,0.037068405482545495,-0.34850824417881665
1700516043266341400,0.81534130859375,0.8906219747900962,0.004810980478301644,-0.35531251736618574
1700516043276350200,0.82535009765625,-2.1695944478690623,1.3117888471402228,0.3423632386177778
1700516043286359300,0.835359375,0.9100766168445348,-0.425272188777104,-0.30959990991801023
1700516043296369400,0.845369384765625,1.535069633129239,-0.7392555744763464,0.3048943077766336
1700516043306378200,0.855378173828125,-0.7307184130817651,0.296474470885098,-0.29814545457093045
1700516043316388400,0.865388427734375,0.10255495006740092,-0.027196780613809823,-0.14699781157439573
1700516043326397400,0.8753974609375,-0.6046843877494334,1.9203180737495422,-0.32191169448047874
1700516043336406300,0.88540625,1.9479010772019623,-1.8384154510885475,0.7591045496106147
1700516043346416000,0.895416015625,-2.4648937374949456,0.46453043245412406,-0.7071900187823921
1700516043356425200,0.90542529296875,0.27234745310544967,-0.23464374539405106,0.20106363868499175
1700516043366434300,0.915434326171875,0.7679653169363737,1.3182929683372377,-0.15452422502385452
1700516043376444400,0.9254443359375,-0.9488806870132684,-0.7676342583511024,0.279512942554336
1700516043386453500,0.93545361328125,1.9982558844327925,0.11410539486855267,-0.20640974895330144
1700516043396463400,0.94546337890625,-1.7167554030567407,0.27888708400726314,0.1605352289416827
1700516043406472400,0.955472412109375,-0.1600906087130308,0.15473017765842378,-0.2854169789663516
1700516043416481300,0.965481201171875,1.3377747906595467,1.6282044284224508,-0.1589328900452703
1700516043426491100,0.9754912109375,1.5903724181562662,-2.078883080330491,0.697164372395724
1700516043436500200,0.985500244140625,-3.96416315844655,1.2250409764051438,-0.5844054602326825
1700516043446509300,0.99550927734375,0.4481593625634908,-0.2178957319498062,-0.009159786804951726
1700516043456519400,1.00551953125,1.4949404518365859,1.1768636593438684,0.095975663008634
1700516043466528500,1.015528564453125,-0.5691729293853044,-1.128468680943921,0.25833120271265503
1700516043476538400,1.025538330078125,1.488867853924632,0.18925401322469115,-0.30044412343474103
1700516043486547200,1.035547119140625,-1.9634470213800668,0.3853315157938748,0.13933973456928506
1700516043496556300,1.045556396484375,0.20093699836432932,0.1762354686323553,-0.3312090631252155
1700516043506566400,1.05556640625,1.6159078414291141,1.3663576188042759,-0.19371276446552946
1700516043516575200,1.0655751953125,1.1721066740751265,-2.1687636961333454,0.7200049305614084
1700516043526585300,1.07558544921875,-3.789996678107977,1.2673475017368794,-0.6674964524280279
1700516043536594400,1.085594482421875,0.7730436431139707,-0.4358643099401146,-0.05485496819429099
1700516043546603500,1.095603515625,1.2215034499287605,1.2309843949794768,0.20535810274221003
1700516043556613400,1.10561328125,-0.4606739762216806,-1.1195199430737643,0.04523178339498117
1700516043566622200,1.115622314453125,1.4621727392226456,0.3163532566357404,-0.27545152006801216
1700516043576631300,1.12563134765625,-2.3376965136021375,0.2707349033422768,0.19557375429812818
1700516043586641400,1.135641357421875,0.45688452081084246,0.4031652055829763,-0.4733228107187897
1700516043596650200,1.145650146484375,2.1208540900975463,1.0743377161752432,-0.007210899493191391
1700516043606660400,1.155660400390625,0.16046002654731273,-2.015228208152205,0.6817522837303579
1700516043616669400,1.16566943359375,-3.8078397933125494,1.3030541904121637,-0.7469572348948568
1700516043626678300,1.17567822265625,1.6420067438036203,-0.3739808313485235,0.04631904890872538
1700516043636688100,1.185688232421875,0.4167027325481176,1.3784049072116613,0.33795429960172624
1700516043646697200,1.195697265625,-0.1748223138988018,-1.4622007962733505,0.035460422296635805
1700516043656707300,1.205707275390625,1.3572177422761917,0.5990480623628944,-0.321756503918767
1700516043666716400,1.21571630859375,-2.260315167757869,0.12742116884179414,0.41371966161672025
1700516043676725500,1.2257255859375,0.8149082698971033,0.800437772930786,-0.6832277631103992
1700516043686735400,1.2357353515625,2.094231456109881,0.6071781773265451,0.17264060421185567
1700516043696744400,1.245744384765625,-0.9254214854925871,-1.5024565265551209,0.6545542610075324
1700516043706754600,1.255754638671875,-2.853156557500362,0.9934085416562854,-0.9395856199234723
1700516043716763100,1.26576318359375,2.4400597404897213,-0.11449468644708394,0.1762319615010172
1700516043726772200,1.275772216796875,-0.9753349786967038,1.3429561388202012,0.408481505234912
1700516043736782300,1.2857822265625,0.994133787190914,-1.8080667823150753,-0.18615171809410674
1700516043746791400,1.29579150390625,-0.21419278577864168,1.0945356508776545,-0.22365210351943968
1700516043756801300,1.30580126953125,-0.6210609375327825,-0.47644854152388866,0.4087554998707026
1700516043766810600,1.315810546875,0.7433692203402519,1.3417073078028856,-0.8197546139497309
1700516043776819500,1.3258193359375,0.3803571614474058,0.08605711199194192,0.5784791754562407
1700516043786829600,1.33582958984375,0.06842647049427032,-1.0784041618965565,0.009636409607063978
1700516043796838400,1.34583837890625,-2.050693343156576,0.5601804985038936,-0.4533593423593789
1700516043806848500,1.3558486328125,1.1983809330165385,0.34239451053887604,-0.02519930491996929
1700516043816857600,1.365857666015625,-0.9607418051987886,0.790839485110715,0.5983330459613353
1700516043826866700,1.37586669921875,1.4425526774734259,-1.2142263715978712,-0.593525645679608
1700516043836876500,1.38587646484375,-0.36480771013796326,0.7732251371607184,0.44915787208154795
1700516043846885400,1.395885498046875,0.4242974254608154,-0.6541498449251055,-0.2850776457430795
1700516043856895500,1.4058955078125,-1.1950608486831187,1.7841928625136614,-0.3122484516654163
1700516043866904600,1.415904541015625,1.60438983759284,-0.1952560301184654,0.4349198686968535
1700516043876913700,1.42591357421875,-0.5694307035386562,-1.249167994184792,-0.12044712857808917
1700516043886923500,1.435923583984375,-0.7144833175957203,0.5124087665688246,-0.33871589509136973
1700516043896932600,1.4459326171875,-0.4250900371432304,0.6435538513045758,0.07174067307617515
1700516043906942700,1.455942626953125,0.10247077891528605,0.5517985276710242,0.38423115333653984
1700516043916951600,1.46595166015625,0.8448638476997613,-1.1737971844453363,-0.48796048094555733
1700516043926960400,1.47596044921875,0.18047639413774014,0.7685881250098348,0.43846137722861017
1700516043936970500,1.485970458984375,0.42437750495970245,-0.578600902139768,-0.35896154139302666
1700516043946979600,1.4959794921875,-1.4761194315105677,1.997038179206103,-0.23284529940364881
1700516043956989400,1.505989501953125,1.4890104772657156,-0.4542071913603693,0.3809552734710276
1700516043966998500,1.51599853515625,-0.41222061869800086,-1.0121757129032165,-0.03446501805111766
1700516043977007600,1.526007568359375,0.18823416865766046,0.34408728593140836,-0.43541784481424833
1700516043987017700,1.536017822265625,-1.7732862685739994,0.8952280072808265,0.23748094158135352
1700516043997026600,1.546026611328125,0.5832552307516337,0.46617016248516735,0.09396372039802373
1700516044007036400,1.556036376953125,0.725666390389204,-1.0608352605234832,-0.23922826017271726
1700516044017045500,1.56604541015625,0.6035024844884872,0.5914697360631078,0.25320163953816516
1700516044027054600,1.5760546875,-0.012235212194919586,-0.49805510091520844,-0.28027985353991386
1700516044037064400,1.586064453125,-1.4722481430351733,2.044134423032403,-0.229843359375
1700516044047073500,1.596073486328125,1.6480524537086485,-0.6204191324979067,0.4114824406165629
1700516044057083600,1.606083740234375,-0.39478491525053977,-0.9540817627876996,-0.11918868948221206
1700516044067092700,1.6160927734375,0.259836346578598,0.32164690606445073,-0.36579456575084474
1700516044077101600,1.6261015625,-1.989396286150813,0.9048192077729851,0.2587440578298643
1700516044087111400,1.636111328125,0.7445283272475004,0.36745917449481785,0.018646540541946886
1700516044097120500,1.64612060546875,0.6544564266562461,-1.0867198625601828,-0.1848160490435548
1700516044107130600,1.656130615234375,0.7813631431698799,0.6212975958328694,0.2216479240901768
1700516044117139500,1.666139404296875,-0.22873218326270578,-0.5822321713142097,-0.2761341685699299
1700516044127149600,1.676149658203125,-1.376870537251234,2.1727694246433673,-0.2832294240605086
1700516044137158700,1.68615869140625,1.4701421106666326,-0.6816895206924527,0.5052393133308738
1700516044147167500,1.69616748046875,-0.1079459954559803,-0.9449147790569812,-0.1861938767354004
1700516044157177300,1.70617724609375,0.29301088642776013,0.3211290196701884,-0.3726216352919116
1700516044167186400,1.7161865234375,-2.142235316300392,0.9156650845013559,0.29353284620894116
1700516044177196500,1.726196533203125,0.6494359681457281,0.3367174147505313,0.0057835153048858045
1700516044187205600,1.73620556640625,0.8668453778833151,-0.8792308122038841,-0.20999937094310298
1700516044197214700,1.746214599609375,0.5776496658295392,0.44725225765593346,0.34947347248177973
1700516044207224600,1.756224609375,0.1728349394738674,-0.4392155931293964,-0.4206619915679097
1700516044217233700,1.766233642578125,-1.784976706367731,2.0968799247920513,-0.13454904796034098
1700516044227243800,1.776243896484375,1.7455238169014453,-0.6539143556687981,0.42817346317656335
1700516044237252400,1.78625244140625,-0.4698983161628246,-1.054528342399001,-0.2198511220675893
1700516044247261400,1.796261474609375,0.5583925921738148,0.501508529304713,-0.3687336514100432
1700516044257271600,1.806271484375,-2.2614619997054337,0.8839930581696331,0.35290436024591326
1700516044267280600,1.81628076171875,0.7665256395220756,0.30637327602170406,-0.1514608005989343
1700516044277290500,1.82629052734375,0.7551268781512975,-0.9718095079842954,-0.04720839896388351
1700516044287299600,1.836299560546875,0.8394201953411102,0.5639137667480856,0.17421375354640184
1700516044297309700,1.846309814453125,-0.24210078340172766,-0.46345345087237655,-0.28169750178549435
1700516044307318500,1.856318603515625,-1.6243202804654835,2.1555201836787163,-0.24838934388561174
1700516044317327600,1.86632763671875,1.8389754230588673,-0.8179496834196149,0.5413880832178518
1700516044327337500,1.87633740234375,-0.45049920368790625,-0.8975419833116233,-0.24313089363444595
1700516044337346600,1.8863466796875,0.6598322744756937,0.3430085507839918,-0.35153460626266897
1700516044347356700,1.896356689453125,-2.353704814594984,1.0144113630007952,0.394494919328019
1700516044357365500,1.906365478515625,0.6899731457173824,0.17283654690906405,-0.21038429687377064
1700516044367374600,1.91637451171875,0.9677315179556608,-0.8714150238864123,0.041124841266497965
1700516044377384700,1.926384765625,0.7165992868363856,0.37110556817315515,0.14639038373315705
1700516044387393500,1.9363935546875,-0.5097609554737806,-0.31493396442234517,-0.33600890115499493
1700516044397403400,1.9464033203125,-1.5703338387340307,2.1921971786908805,-0.1593537275395356
1700516044407412500,1.95641259765625,1.9582067826390266,-1.1082453926045448,0.5314126326484605
1700516044417422600,1.966422607421875,-0.6050812781125307,-0.7514937092807144,-0.33830424555055794
1700516044427431700,1.976431640625,0.45305297982394693,0.46873256031908095,-0.3050677829137072
1700516044437440500,1.9864404296875,-2.109710180270672,1.1585057264849543,0.44977278910949825
1700516044447450600,1.99645068359375,0.7036509579360485,-0.09165215552002191,-0.44646965591087934
1700516044457459500,2.00645947265625,0.9791144972354173,-0.8342743568852543,0.34696159925870595
1700516044467469600,2.016469482421875,1.298542265945673,0.4529612829525023,-0.22910823176717385
1700516044477478400,2.026478515625,-1.4941636222451924,-0.22296726306043563,-0.06730641695577651
1700516044487488500,2.036488525390625,-1.2013871290951967,2.1904484353274105,-0.36441001605726775
1700516044497497600,2.04649755859375,2.079554695981741,-1.329137895217538,0.6694429833859205
1700516044507506700,2.056506591796875,-0.7010241165637969,-0.4149826307572424,-0.4521594650503248
1700516044517516500,2.0665166015625,0.4151519959747791,0.2555067198764533,-0.2151946928301826
1700516044527525600,2.076525634765625,-2.0871815375983713,1.3036863508358596,0.38407592624220993
1700516044537535500,2.086535400390625,0.73619246057868,-0.2556150756217539,-0.4358599260259419
1700516044547544600,2.096544677734375,1.219156594541669,-0.6755202574729919,0.35402613081745804
1700516044557554400,2.106554443359375,1.1233739150881767,0.25264899235777555,-0.15543635316640136
1700516044567563500,2.1165634765625,-1.63801621286273,0.0208953423820436,-0.22652170413900166
1700516044577572600,2.126572509765625,-1.1116957522541284,2.079367941237986,-0.17793777903821317
1700516044587582500,2.13658251953125,2.218236021441221,-1.5957967812925575,0.5962554359696806
1700516044597591600,2.146591552734375,-0.742882313606143,-0.2541583009421825,-0.49474941043332216
1700516044607601700,2.1566015625,-0.255875041732192,0.292395677138865,-0.12263261939100921
1700516044617610500,2.166610595703125,-1.5554922434329985,1.3915347301587462,0.3625931028284132
1700516044627620400,2.176620361328125,0.6932850467443465,-0.627690657870844,-0.5097654855184257
1700516044637629400,2.18662939453125,1.1846949374914169,-0.5241747538167983,0.49399786141365765
1700516044647638500,2.196638427734375,1.4066577727496623,0.29771497246548534,-0.3868254076134413
1700516044657648600,2.206648681640625,-2.183403777512908,0.09907594884522258,-0.014518610424362121
1700516044667657700,2.21665771484375,-0.6916513080626726,1.8422749029956758,-0.3254487825654447
1700516044677667600,2.22666748046875,2.2093641481995583,-1.5596074236668644,0.6690409053910523
1700516044687676400,2.236676513671875,-0.6416022057801485,-0.018468480561301112,-0.48925475853979583
1700516044697686500,2.2466865234375,-0.7380775436729192,0.1690983102288097,-0.09510737400781363
1700516044707695400,2.2566953125,-1.2326187181830406,1.5091785282865167,0.2602324332240969
1700516044717705500,2.26670556640625,0.5929430965512991,-0.6500293309289962,-0.39698169464245436
1700516044727714600,2.276714599609375,1.3658148902297018,-0.3301611980400979,0.40219592215940353
1700516044737723600,2.2867236328125,1.3271002519100903,0.139091221434623,-0.26811390718892214
1700516044747733500,2.2967333984375,-2.2141116349875927,0.1940543992437422,-0.17569712397195397
1700516044757742600,2.30674267578125,-0.6583189473032951,1.870224986194819,-0.18721914639621973
1700516044767756800,2.3167568359375,2.183293887397647,-1.6349691002517939,0.575554227920249
1700516044777765600,2.326765625,-0.7349146957278251,-0.004916559744626283,-0.4791395707061514
1700516044787775700,2.336775634765625,-0.6316600729584694,0.18081614748612046,-0.1273620407993905
1700516044797784800,2.346784912109375,-1.193318388929963,1.3932989633522928,0.32895065320655703
1700516044807794700,2.356794677734375,0.44912791533470153,-0.5948441809322684,-0.4490494798036292
1700516044817803800,2.3668037109375,1.5793483353167772,-0.36296047483608124,0.40769050098769366
1700516044827812900,2.376812744140625,0.5140951852858067,-0.030710560888424512,-0.20714372578365728
1700516044837823000,2.386822998046875,-1.2319418418347834,0.002477496029436588,-0.29319428017064925
1700516044847831800,2.396831787109375,-0.9583306524038314,2.1703680625900623,-0.04682564672399312
1700516044857841700,2.406841552734375,2.0203437976002694,-1.8124141638696192,0.5429306364847347
1700516044867850800,2.416850830078125,-1.4736954192340372,-0.0426379492431879,-0.4953680537883192
1700516044877860900,2.42686083984375,0.9260176978200674,-0.02035845902636647,-0.11966089183753356
1700516044887870000,2.436869873046875,-1.831579467588663,1.1682263255104421,0.3183861872354522
1700516044897879800,2.4468798828125,0.660428486803174,-0.37309659585990007,-0.1090332609697245
1700516044907889000,2.456888916015625,1.292087390717864,-0.29525786163695156,-0.08569929326390847
1700516044917897700,2.466897705078125,-0.30543197658360005,0.2787568817563355,0.17769184145312755
1700516044927907600,2.476907470703125,-0.6211953775674104,-0.3391408425051719,-0.29748295380789785
1700516044937916700,2.486916748046875,0.8938076190888881,2.030170487348735,-0.3380156378675252
1700516044947926800,2.4969267578125,1.1868161674290896,-1.4826011947453022,0.8302499236747622
1700516044957935900,2.506935791015625,-2.6233593753546476,0.6931166313748807,-0.341472281127423
1700516044967945700,2.51694580078125,-0.39794425606429573,-0.13039375491179525,-0.5041685422942042
1700516044977954800,2.526954833984375,1.527192031621933,0.8798317737717181,0.386662764397636
1700516044987965000,2.53696484375,-0.6501385634571314,-0.16006065196618438,0.3417621674520895
1700516044997973800,2.546973876953125,1.8392665149599312,-0.39340851233080026,-0.6185337571427225
1700516045007983600,2.556983642578125,-1.5235300019830464,1.0105933390825985,0.15137418176140635
1700516045017992700,2.56699267578125,-0.6384434494882821,-0.4023074197098613,-0.04946485438747331
1700516045028001800,2.577001708984375,1.2780915985912085,1.8544085545122622,-0.5756723013419658
1700516045038012000,2.587011962890625,1.983868462640047,-1.7732538276091216,0.9396806777957827
1700516045048020700,2.597020751953125,-2.8976977100163697,0.16841083942130208,-0.4451690216410905
1700516045058030800,2.60703076171875,-1.1861702707409858,0.1949022482447326,-0.4877005879003554
1700516045068040000,2.6170400390625,1.840272477132082,0.4851042147316038,0.2947005565477535
1700516045078049800,2.6270498046875,-0.6495820986181498,-0.20503449681103228,0.35711540206968784
1700516045088058600,2.63705859375,1.7068179464101791,-0.9006237288445234,-0.512073068341054
1700516045098068700,2.64706884765625,-1.4507254625350237,0.8566358262971043,0.0751512669709511
1700516045108077800,2.657077880859375,-0.6916548151940107,-0.6357347750514746,0.10290122448811306
1700516045118087700,2.667087646484375,1.5139572869956492,1.8309741951718925,-0.6389082174558192
1700516045128096800,2.6770966796875,1.9963409907221792,-1.7687436567083,1.0257723496444522
1700516045138107000,2.68710693359375,-3.143372844773531,0.37094204817451537,-0.46906164614297446
1700516045148116000,2.697115966796875,-0.9239134190171956,0.30591639909967777,-0.4629984005812555
1700516045158125800,2.707125732421875,1.9029203642249106,0.6560681727018207,0.2061226025749929
1700516045168134700,2.717134765625,-0.5360299537181854,0.0461693382397294,0.45279783601909873
1700516045178143700,2.727143798828125,1.6484978593885897,-0.7511489874962717,-0.5751568991657346
1700516045188153900,2.73715380859375,-1.6318606128424404,1.2899774128265677,-0.01380724728461355
1700516045198162700,2.74716259765625,-0.5458066668450832,-0.3263547184292227,0.08892431972501799
1700516045208172800,2.7571728515625,1.3387988730102778,2.0304086800187826,-0.7442246681258082
1700516045218182000,2.767181884765625,2.006908561965823,-1.7365338702380657,0.8873717408224939
1700516045228191700,2.777191650390625,-3.361438672593236,0.7302665045958012,-0.5903962616126984
1700516045238200800,2.787200927734375,-0.8204407695829867,0.14657543971017004,-0.40480172074362636
1700516045248211000,2.7972109375,1.809947481495142,0.7391084210906177,0.03558905364498496
1700516045258219800,2.8072197265625,-0.5267547603726387,-0.3092670247018337,0.5004410462036728
1700516045268229600,2.817229736328125,1.5291922655284405,-0.7223215369407087,-0.6640582946728915
1700516045278238700,2.82723876953125,-1.6905191380381583,0.8891492718890309,0.06054521572515368
1700516045288248800,2.837248779296875,-0.3846270938515663,-0.5355981381721794,0.016160970803909002
1700516045298258000,2.8472578125,1.444404442819953,1.8436467758707702,-0.58651657063514
1700516045308267800,2.857267822265625,1.9123907878816127,-2.0816597054369748,0.9488551872458308
1700516045318276900,2.86727685546875,-3.464312187090516,0.6648400927003473,-0.534800192727521
1700516045328287000,2.877286865234375,-0.5183499201208353,-0.08715148309990763,-0.21720564906010403
1700516045338295800,2.8872958984375,1.7157056017428636,0.7386901226133108,0.15115999102145433
1700516045348305700,2.8973056640625,-0.3859744168072939,-0.4280563396029174,0.5622194569855928
1700516045358314800,2.907314697265625,1.6579846496582031,-0.637656683024764,-0.45353374907821414
1700516045368324900,2.917324951171875,-2.008212630301714,0.9680024438515304,0.16804142158702015
1700516045378333700,2.927333740234375,-0.14196283134818077,-0.4099426638286561,0.03543925164444372
1700516045388342800,2.9373427734375,1.6201999856650828,1.8812720115184782,-0.3905160788249224
1700516045398353000,2.947352783203125,1.7855711651295423,-2.137996948078275,1.040383716386184
1700516045408362000,2.957362060546875,-3.507287405464053,1.1399648382745682,-0.5796767877429724
1700516045418371800,2.967371826171875,-0.5105009601861238,-0.0051095980986952776,-0.11863927543852477
1700516045428380700,2.977380615234375,1.5917244172871112,1.0205861061129717,0.27707576026897873
1700516045438390800,2.987390869140625,-0.06738777509629726,-0.6720803461521864,0.4308412210810929
1700516045448400000,2.99739990234375,1.3139946866214274,-0.3333019072186202,-0.44700588167943056
1700516045458409700,3.00740966796875,-2.143790729048848,0.9194206376425922,0.11350859801918267
1700516045468418800,3.017418701171875,0.15805822610259054,-0.2787712025426328,-0.1548551922775805
1700516045478429000,3.027428955078125,1.4472195002406836,1.7005886966317891,-0.39312344831172374
1700516045488438000,3.03743798828125,1.5357342345178127,-2.105602452690899,0.8151634867671876
1700516045498448000,3.04744775390625,-3.61605991487205,1.288421707817167,-0.7128554241329431
1700516045508456700,3.057456787109375,-0.11902210074365138,-0.2773698113121092,-0.28336941705308855
1700516045518466800,3.067466796875,1.5408412022680043,1.0575909448400138,0.1511797369015403
1700516045528475600,3.0774755859375,-0.2220090124875307,-0.8240151209384202,0.3051371766217984
1700516045538485800,3.08748583984375,1.4541034145355223,-0.2776564462337643,-0.6263519566129893
1700516045548494800,3.097494873046875,-2.0963240444749593,0.6896276202153414,0.13808814533930272
1700516045558504700,3.107504638671875,0.16015081446766852,-0.1092144810218364,-0.27947430931068956
1700516045568513800,3.117513671875,1.565881535500288,1.4880170823141932,-0.28458264703406017
1700516045578524000,3.12752392578125,1.4038210880190134,-2.1950866165220737,0.7976054721143097
1700516045588532700,3.13753271484375,-3.542047168678045,1.3916349756628275,-0.6949969652287662
1700516045598542600,3.14754248046875,-0.037242812201380725,-0.39262824867330487,-0.21714756219731643
1700516045608551700,3.1575517578125,1.440576993486285,1.1441109981685875,0.26770611183932047
1700516045618561800,3.167561767578125,-0.15301730932593344,-0.9080645463697612,0.32458500534296036
1700516045628571000,3.17757080078125,1.5359791491895913,-0.17284787202067672,-0.5681712780620902
1700516045638580700,3.187580810546875,-2.3647832579702137,0.6809585760693997,0.26642423706892876
1700516045648590800,3.1975908203125,0.2322130111157894,0.01995616183578968,-0.2607649143992923
1700516045658600000,3.207599853515625,1.6951994048088788,1.4188003382250667,-0.23502600444359703
1700516045668609800,3.21760986328125,1.2614683805704117,-2.179964158453047,0.9244193957779556
1700516045678619000,3.227618896484375,-3.6762504719406364,1.504136734727025,-0.7055923743274063
1700516045688629000,3.23762890625,0.21575287470221519,-0.4261120006021112,-0.12799586345721037
1700516045698637800,3.247637939453125,1.3479448870182036,1.1622235048990697,0.3724850398328155
1700516045708647700,3.257647705078125,-0.04662555757462978,-1.0196730829212814,0.29857071251198647
1700516045718656800,3.26765673828125,1.60135032376647,-0.032033553120493885,-0.5208655196709558
1700516045728667000,3.2776669921875,-2.559840550646186,0.5564601628065109,0.3511307747021317
1700516045738675700,3.28767578125,0.3029278848081827,0.20060257877819238,-0.36560835899636146
1700516045748685800,3.297685791015625,1.887792937719822,1.2343500720202922,-0.17149022860033436
1700516045758695000,3.30769482421875,0.9999293217271565,-2.1772956698961554,0.8944229745082557
1700516045768704300,3.317704345703125,-3.889792100334167,1.5914340560384095,-0.8072821589328348
1700516045778713300,3.32771337890625,0.4944494045734405,-0.48077575707323844,-0.13509378582891077
1700516045788723200,3.33772314453125,1.1911802078574896,1.1957955926984547,0.4187850187148899
1700516045798732300,3.347732177734375,0.2537736855387688,-1.275212536023557,0.13052556459791959
1700516045808742400,3.357742431640625,1.269093468621373,0.15463796933032573,-0.5641997440826148
1700516045818751000,3.3677509765625,-2.631484814143181,0.44988384826853867,0.35496385005898773
1700516045828761000,3.377760986328125,0.6258703836411237,0.3913078137245029,-0.5217632356956601
1700516045838770200,3.387770263671875,2.1456407408297062,0.8606417009375988,-0.04496752470191568
1700516045848780000,3.397780029296875,0.5078671045511961,-2.040949070994556,0.7696298891477287
1700516045858789000,3.4077890625,-3.9428041440755126,1.6800602878659963,-0.8772226141866296
1700516045868799200,3.41779931640625,0.9775561618775128,-0.5000405756440013,-0.08230378734041005
1700516045878809000,3.42780908203125,0.9054401892155408,1.2752359168991445,0.47472792827636
1700516045888818200,3.437818115234375,0.7296504915893077,-1.5809277134627102,0.05034021244989708
1700516045898828300,3.447828369140625,0.5421259325057268,0.5607886935301125,-0.5265184673987329
1700516045908837000,3.457837158203125,-2.502051209500432,0.24809388633668422,0.43450851141698654
1700516045918847000,3.467846923828125,1.040004142484069,0.7298233639381826,-0.623810455436632
1700516045928856000,3.47785595703125,2.28382989885807,0.31365473826676604,0.24774764844859018
1700516045938866200,3.4878662109375,-0.3858680338233709,-1.611263376624137,0.5495872082971036
1700516045948875300,3.497875244140625,-3.6671897981286046,1.6193366468340158,-0.8356900689020752
1700516045958885000,3.507885009765625,1.4843313795387745,-0.38769086533635855,0.04147635811790824
1700516045968894200,3.517894287109375,0.6146908179789781,1.1631369664821773,0.558195827492699
1700516045978904300,3.527904296875,1.1358271539479494,-1.8188344061754642,-0.03317035686438903
1700516045988913200,3.5379130859375,-0.4391524647653103,1.0730128242470323,-0.4793555150117725
1700516045998923000,3.547923095703125,-1.9071061254769563,-0.18778956669531763,0.513191477911733
1700516046008933000,3.55793310546875,1.3179109832823275,1.182425312059,-0.7481687295764684
1700516046018942200,3.567942138671875,2.2686913664370776,-0.4244023471400141,0.5399317103970795
1700516046028952000,3.5779521484375,-1.3724591505497694,-0.9289568930771201,0.18941282051559535
1700516046038961200,3.587961181640625,-3.0600726302742958,1.2714467537492513,-0.701343338580802
1700516046048971300,3.59797119140625,1.8495090920329094,-0.16057525042481718,0.08503511200044303
1700516046058980400,3.60798046875,0.3855535610467195,0.8840675847105681,0.5632712310608476
1700516046068990200,3.617990234375,1.2952438089221716,-1.8193543383963404,-0.1703246188870631
1700516046078999300,3.627999267578125,-1.2179144855260848,1.42300889583081,-0.4114704579178244
1700516046089009400,3.638009521484375,-1.1323194380879402,-0.5850999818354845,0.4661598602868616
1700516046099018000,3.64801806640625,1.3674141421198844,1.577312153314054,-0.7532312736630439
1700516046109028000,3.658028076171875,2.054389859586954,-1.0657803887754678,0.7117337266266346
1700516046119038200,3.6680380859375,-1.9848340928018091,-0.17792539448067546,-0.1299798220823519
1700516046129047000,3.678047119140625,-2.364146713632345,0.7486528598316013,-0.5245457790862769
1700516046139057200,3.68805712890625,1.974576902681589,0.11737404127568006,0.01650870652934536
1700516046149066200,3.698066162109375,0.09267360752224922,0.5461429130621254,0.6155687698572874
1700516046159076000,3.708076171875,1.3778221388876437,-1.504136734727025,-0.3674503336012363
1700516046169085200,3.718085205078125,-1.4268103339403866,1.3768576777696608,-0.2690252864127978
1700516046179095300,3.72809521484375,-0.9268079714149237,-0.6843164351299404,0.3506142034821212
1700516046189104000,3.738104248046875,1.417960088008642,1.8425854302495717,-0.7379476336829364
1700516046199114000,3.748114013671875,2.003572111019492,-1.499923500946164,0.8402309272021055
1700516046209124000,3.7581240234375,-2.3985119245707986,0.21290362275093794,-0.3010084062539972
1700516046219133200,3.76813330078125,-1.9436802446365355,0.4471778041802346,-0.4730179094880819
1700516046229143000,3.77814306640625,2.004965026682615,0.3837122440289706,0.06284655147008597
1700516046239152000,3.788152099609375,-0.03692950846850872,0.24623342622704802,0.5932393760841339
1700516046249162200,3.798162353515625,1.421615687906742,-1.31190092921257,-0.4681781413067132
1700516046259171300,3.80817138671875,-1.6451082169502973,1.3598185724243521,-0.131084385790769
1700516046269181200,3.81818115234375,-0.5409685791641473,-0.7148074349835515,0.26006252001728863
1700516046279191300,3.82819140625,1.2693874831318854,1.8921512790597974,-0.6839053701110184
1700516046289200000,3.8382001953125,1.8681290368288754,-1.6570672425523398,0.8819426284458488
1700516046299210000,3.8482099609375,-2.5147289047658443,0.47133455951102077,-0.37865174576900895
1700516046309219000,3.858218994140625,-1.5670160924881695,0.23327260317131876,-0.37909722451418637
1700516046319229200,3.868229248046875,1.9119465512454508,0.5152727776978164,0.010627356873173266
1700516046329238300,3.87823828125,-0.23972353287637232,0.0700499069776386,0.6626064153641462
1700516046339248000,3.888248046875,1.595184202352166,-1.026627943560481,-0.5540710757128894
1700516046349258200,3.89825830078125,-1.5607576166152952,1.1499004682902245,-0.040224239164963364
1700516046359267300,3.908267333984375,-0.7162246083050966,-0.5914828147403896,0.1742573369598016
1700516046369277200,3.918277099609375,1.367957747477293,1.8813459535375237,-0.6388529070720076
1700516046379286300,3.928286376953125,1.9188333881497381,-1.7338035684913395,0.9031774319153278
1700516046389296000,3.938296142578125,-2.6633547011345624,0.49238991476036603,-0.38892807898111637
1700516046399305200,3.94830517578125,-1.5462994676738977,0.24834983385913073,-0.43534941922053694
1700516046409315000,3.958315185546875,1.9888807378441093,0.5162682915411889,0.10562515129297971
1700516046419325200,3.9683251953125,-0.30723990278840063,-0.01867284402698278,0.6188896579083055
1700516046429334300,3.978334228515625,1.6204250265926121,-0.972661229442805,-0.5750393372006714
1700516046439344000,3.98834423828125,-1.6237427728384732,1.1395168022461235,-0.009977551194932311
1700516046449353200,3.998353271484375,-0.6634902124613523,-0.5742057359207421,0.19464562486885115
1700516046459363300,4.00836328125,1.359824125382304,1.8899284884437917,-0.7096299592804163
1700516046469372200,4.0183720703125,1.9386814134359358,-1.808010229822248,1.0037214805517345
1700516046479382300,4.02838232421875,-2.8802234281241894,0.5817048595044761,-0.4429895952427759
1700516046489392400,4.038392333984375,-1.3548591964513064,0.22829437636733055,-0.457699490455538
1700516046499401200,4.048401123046875,1.9220318919301032,0.5781622184615582,0.14394178500464186
1700516046509411000,4.0584111328125,-0.24771745423972605,-0.12123955759741366,0.5968852583058178
1700516046519420200,4.068420166015625,1.679525450336933,-0.9566259673777967,-0.5883523346949369
1700516046529430300,4.07843017578125,-1.8561667963564394,1.168639363290742,-0.005202902405336499
1700516046539440000,4.088440185546875,-0.4276800536364317,-0.5649981279186904,0.16757184958020224
1700516046549449200,4.09844921875,1.4067729235619306,1.8733764359630642,-0.7003777084190398
1700516046559459300,4.108459228515625,1.8896786053359507,-1.8806600170999763,1.0055116519041358
1700516046569468200,4.11846826171875,-3.0590783585399386,0.770645130604878,-0.5091084098491817
1700516046579478300,4.128478271484375,-1.137497132986784,0.09659742990247905,-0.3882246799521148
1700516046589487000,4.138487060546875,1.8892168330430983,0.6908815657991916,0.11337063258690759
1700516046599497000,4.1484970703125,-0.24298224241137503,-0.25240181266367434,0.5987709259219467
1700516046609507000,4.158507080078125,1.6059107635498047,-0.8374524023994803,-0.59760966359023
1700516046619516200,4.16851611328125,-1.8605121320843696,1.0877275052327662,0.02041137652369216
1700516046629526000,4.178526123046875,-0.3739829502403736,-0.5223072063792497,0.10079985002838075
1700516046639535000,4.18853515625,1.3947159905433655,1.8714184337630866,-0.647734644120559
1700516046649545200,4.198545166015625,1.8615981737554073,-2.0158667983166874,0.9919788011141121
1700516046659555000,4.20855517578125,-3.1594384289115665,0.8957013969462364,-0.530499207597971
1700516046669564200,4.218564208984375,-0.980368296688795,-0.015589125732704996,-0.36293599798195064
1700516046679574300,4.22857421875,1.827301351878047,0.7715961477193981,0.13765338891753925
1700516046689583000,4.2385830078125,-0.3442629347592592,-0.3482723895963281,0.5687572612565011
1700516046699593000,4.248593017578125,1.8850000921308994,-0.7483871215675025,-0.6026890857463703
1700516046709603000,4.25860302734375,-2.1658324649870395,0.9831743670854717,0.1058573160810396
1700516046719612200,4.268612060546875,-0.3548626547068357,-0.343756519607082,0.005734616395551711
1700516046729622000,4.2786220703125,1.688703028526902,1.748510139235854,-0.5873957280898466
1700516046739631000,4.288631103515625,1.7569576495856045,-2.1286139104440807,1.0509123438589274
1700516046749641200,4.29864111328125,-3.473254202958941,1.0484718188390134,-0.6358846318509429
1700516046759651000,4.308651123046875,-0.6241366917163134,-0.07008651266098022,-0.3100345384756103
1700516046769660400,4.318660400390625,1.6774802082449196,0.8956791120491921,0.21487695038421079
1700516046779670500,4.32867041015625,-0.02167933236658573,-0.6617593700807541,0.46632670475374904
1700516046789679600,4.3386796875,1.606611020773649,-0.5540038556955754,-0.5681353299658746
1700516046799689500,4.348689453125,-2.2857862936228512,0.9847508226219565,0.10603493767026811
1700516046809699600,4.358699462890625,-0.01582651468515396,-0.2990665332049131,-0.07844137629121542
1700516046819708400,4.36870849609375,1.6081103194206952,1.6497829307630658,-0.5035687497701495
1700516046829718300,4.37871826171875,1.6034885048389433,-2.213982163389027,1.0390602857626974
1700516046839728400,4.388728271484375,-3.6314801868438717,1.2830153187289832,-0.6899271146185696
1700516046849737500,4.398737548828125,-0.26074177098572254,-0.24271394686400888,-0.21603309814939275
1700516046859747300,4.408747314453125,1.4498726450979709,0.9636726710189133,0.20569597466075792
1700516046869756400,4.41875634765625,-0.013564414972066879,-0.72948558335118,0.43177707715909924
1700516046879766500,4.4287666015625,1.648431808415055,-0.4011174062076956,-0.5377156417828053
1700516046889776400,4.4387763671875,-2.655798002144694,0.823053290168941,0.21857279096115378
1700516046899785500,4.448785400390625,0.18682488638162612,0.06580313625335693,-0.3055772302731871
1700516046909795600,4.458795654296875,2.003079943588376,1.4172091235108673,-0.2802957086961716
1700516046919804400,4.468804443359375,1.1467582978069781,-2.305094805204868,0.9431053184822201
1700516046929814300,4.478814208984375,-3.8630104763925073,1.5639707334429025,-0.8019963274843991
1700516046939824400,4.488824462890625,0.23691548971831797,-0.21694391111768782,-0.10151145063014701
1700516046949833500,4.49883349609375,1.3139350653886794,1.1755544033762066,0.3079041753834113
1700516046959843300,4.50884326171875,0.5304758267223835,-1.2857051423348487,0.23785611330298706
1700516046969853400,4.518853515625,0.7670785972297192,0.15943492128327488,-0.49606516920700666
1700516046979862500,4.528862548828125,-2.3371552463322876,0.6913203225426375,0.2157560347736813
1700516046989872400,4.538872314453125,0.6629752486765385,0.19520882997587322,-0.3941630204925313
1700516046999881500,4.548881591796875,1.9282716631025074,1.0617275331880898,-0.09434703889349474
1700516047009891600,4.5588916015625,0.598165215113759,-2.071872032524645,0.711568233866617
1700516047019901400,4.5689013671875,-3.6962487193524836,1.5348480993330478,-0.7858937723368405
1700516047029910300,4.57891015625,0.7865840926885604,-0.5815394398096948,0.013290986591856926
1700516047039920400,4.58892041015625,0.9951730671107768,1.2180709912620484,0.32737047134302555
1700516047049930200,4.59893017578125,0.48011517427265643,-1.447669874356687,0.10968292051749304
1700516047059939300,4.608939208984375,0.5508341396182775,0.17055829977877437,-0.4681298451855778
1700516047069949400,4.618949462890625,-2.09110075686872,0.08827442271523177,0.3343120706418529
1700516047079958500,4.62895849609375,0.8549754918694495,0.5132615840058773,-0.514646681688726
1700516047089968400,4.638968505859375,1.9244068043678997,0.5900890222944319,0.1781077470439486
1700516047099978500,4.648978515625,0.17056290288865567,-2.1463889288485047,0.5009383282013237
1700516047109987600,4.658987548828125,-3.3890807127565146,1.584839333948493,-0.6873308145150542
1700516047119997400,4.66899755859375,1.1417699880003929,-0.5261661468297243,0.14406009588837623
1700516047130007600,4.679007568359375,0.6662959175318479,1.2336913158506155,0.3964998659422621
1700516047140016400,4.689016357421875,0.6853875714927912,-1.4990246524102986,0.12806931228591129
1700516047150026200,4.699026123046875,0.23026713774502275,0.8623334534168243,-0.3078682638198137
1700516047160035300,4.709035400390625,-1.8573709114491939,0.07226575639620422,0.4003694373846054
1700516047170045400,4.71904541015625,0.8199234677106142,1.131285564995557,-0.5390937982682138
1700516047180055300,4.72905517578125,1.7785650857597588,0.40102424803152675,0.44463184602446854
1700516047190064400,4.739064453125,-0.23024141878187654,-1.4717100906357168,0.41866022329144176
1700516047200074500,4.749074462890625,-3.2292642448097464,1.6114613834142684,-0.6775607503246516
1700516047210084400,4.75908447265625,1.2732447430819271,-0.2549114573970437,0.10645371107161045
1700516047220093400,4.769093505859375,0.35814006894230843,1.2553832154378295,0.4672314350411296
1700516047230103600,4.779103515625,0.8427741819441318,-1.6507989759378134,-0.12168092642305418
1700516047240113400,4.789113525390625,-0.08855448176562786,0.9577688538026065,-0.38385742465332146
1700516047250122200,4.799122314453125,-1.6500076794296503,-0.34299824858568606,0.437911305597797
1700516047260132400,4.80913232421875,0.9678267950236796,1.134663955387473,-0.7731511951416731
1700516047270141400,4.819141357421875,2.0144109004199504,-0.24472419070787726,0.40599217263720927
1700516047280151300,4.8291513671875,-1.2648387337863445,-1.2086805740389972,0.22112256677551193
1700516047290161400,4.839161376953125,-2.684977919399738,0.9471935376439243,-0.7908153005175292
1700516047300170500,4.84917041015625,1.7901660917043685,-0.5040978882107884,-0.048095849322900175
1700516047310180400,4.859180419921875,0.15850012465119362,1.1194609794281423,0.5111575974639505
1700516047320190500,4.8691904296875,0.7180459785133599,-1.8484461389765143,-0.3826112970497459
1700516047330199600,4.879199462890625,-0.17906711186170576,0.916578326888755,-0.44938342446573076
1700516047340209400,4.88920947265625,-1.3621721498131751,-0.457643011027947,0.37895043645463883
1700516047350219500,4.899219482421875,1.0427671774566174,1.288902038680017,-0.871376445441693
1700516047360228600,4.909228515625,1.9472493352949618,-0.42423882714137434,0.5727654739845544
1700516047370238200,4.91923828125,-0.9214888222187757,-1.0941769005678594,0.03310640651639551
1700516047380248300,4.929248291015625,-2.7132483205944298,1.2840889393098651,-0.5992686463110148
1700516047390257400,4.93925732421875,1.5208353560715913,-0.1984847829066217,-0.0025955511848442256
1700516047400267300,4.949267333984375,0.3667980071723461,1.1458167791731655,0.6005593802412972
1700516047410276400,4.9592763671875,0.8364081540435552,-1.5218832576893269,-0.22295153576834126
1700516047420286500,4.969286376953125,-0.2131079131513834,1.264261226159334,-0.23718144717812537
1700516047430296300,4.97929638671875,-1.5513035595715046,-0.4318830582842231,0.5144558352917432
1700516047440306400,4.989306396484375,0.9381506186842918,1.5597311961770057,-0.6522924535553902
1700516047450315500,4.9993154296875,1.9303169051945208,-0.33429091825596985,0.623185601536557
1700516047460325400,5.009325439453125,-0.9569453355252742,-0.9531595333762466,0.18581600160002706
1700516047470334500,5.01933447265625,-2.9111317766070366,1.152962559274584,-0.474934483699128
1700516047480344600,5.029344482421875,1.7199492306619881,-0.16896876556500792,0.036552382251806556
1700516047490354400,5.0393544921875,0.2519552379399538,0.8125685018379241,0.7738347204264253
1700516047500363300,5.04936328125,0.6599176146715879,-1.5159341400265693,-0.2531202813976444
1700516047510373400,5.059373291015625,0.060574587950110434,0.9697650696098804,-0.22806248557390643
1700516047520383200,5.06938330078125,-1.6846926238417625,-0.5969140460088849,0.41905590807814147
1700516047530392300,5.079392333984375,0.8711129721999168,1.2494434501253067,-0.6262998610995709
1700516047540402400,5.08940234375,2.4244290406376123,-0.4689929648209363,0.41778840889297425
1700516047550412500,5.09941259765625,-1.6634376543670892,-1.2808081640735267,0.23196670820452273
1700516047560421400,5.10942138671875,-1.8468384115189314,0.8251588841460644,-0.7885041009657084
1700516047570431500,5.119431396484375,1.0529355202496051,0.14205394369773566,-0.12448548071607947
1700516047580441600,5.129441650390625,-0.1894756931513548,0.7182040916845202,0.5759881623581051
1700516047590450400,5.139450439453125,0.751269033679366,-1.2894099882021546,-0.5601346135355532
1700516047600460500,5.14946044921875,0.4971539873570203,0.6576515694357454,0.20965137948933987
1700516047610470700,5.159470703125,-0.2414677461951971,-0.47131980033330617,-0.24595201546978204
1700516047620479200,5.169479248046875,-0.8919751429647207,1.6262268447391688,-0.5643889099791646
1700516047630489300,5.1794892578125,0.8404208968162536,0.5951083117611706,0.4405988276487216
1700516047640499500,5.18949951171875,0.181959326171875,-1.6742003097914158,0.2216796344026923
1700516047650508300,5.19950830078125,-0.2857745054334402,0.33377690431922674,-0.6754999453373253
1700516047660518400,5.209518310546875,-1.0283505295693873,0.8334737810920924,0.31186208269633353
1700516047670528500,5.219528564453125,-0.27865093716382977,0.6744898915119468,0.34048144345916803
1700516047680537300,5.229537353515625,0.6580956599414348,-0.8731856868207454,-0.31825013976562766
1700516047690547500,5.23954736328125,1.4822890600562095,0.45023646109849214,0.6115333768613637
1700516047700557600,5.2495576171875,-1.325025199201703,-0.6089169838178903,-0.17104657648606225
1700516047710566400,5.25956640625,-0.8808388319224119,1.4896552049100398,-0.5043023247417062
1700516047720576500,5.269576416015625,2.5758225481539965,0.37118177521452306,0.43060098258443175
1700516047730586600,5.279586669921875,-0.6812292827695607,-1.5825307647451758,0.5904766333725303
1700516047740595500,5.289595458984375,-2.659436650907993,1.038731930591166,-0.8897501603916287
1700516047750605300,5.299605224609375,0.9774643919408321,0.11563289669677615,0.07938782682847231
1700516047760615400,5.309615478515625,0.05063070156276226,0.649642523568496,0.6136692929115146
1700516047770624500,5.31962451171875,1.2249836932599545,-1.584865345172584,-0.15175273275021461
1700516047780634400,5.32963427734375,1.2011591655582188,0.5930890808932483,-0.07267044647326693
1700516047790644500,5.33964453125,-2.760253232875466,-0.013850100045651197,0.12546619884911925
1700516047800653600,5.349653564453125,0.30554946548342704,0.973404595156014,-0.7121701452825218
1700516047810663400,5.359663330078125,2.6782863128066063,0.4579257004268467,0.31047318562120196
1700516047820673500,5.369673583984375,0.13657295500338076,-2.3259891246736046,0.6929132177572697
1700516047830682600,5.3796826171875,-3.844671102103591,1.5612383858695624,-1.0799142011333256
1700516047840692500,5.3896923828125,1.067723339536786,0.2807275973074138,0.2573849348384887
1700516047850702600,5.39970263671875,0.23607144010961054,0.7399978442110121,0.2598130570345558
1700516047860711700,5.409711669921875,1.32199094607234,-1.7040215936899183,-0.04470883723311126
1700516047870721500,5.419721435546875,0.867352742883563,0.8055619840767234,-0.28376157644214106
1700516047880731600,5.429731689453125,-2.7208406754195686,0.18175993114225567,0.08907461491590365
1700516047890741200,5.4397412109375,0.27727555715739727,1.003779567414522,-0.6654817516047508
1700516047900750300,5.449750244140625,3.0641052467912435,0.1958209705248475,0.4032470386475324
1700516047910760400,5.459760498046875,-0.10027999087274074,-1.9603733130231498,0.5607151168372482
1700516047920770300,5.469770263671875,-4.0220208886533975,1.5462129584342241,-0.8806335186086595
1700516047930779400,5.479779296875,1.124557571914792,0.08174867420829832,0.1351608962483704
1700516047940789500,5.48978955078125,0.7071539976209402,0.6262615018505603,0.3288972425188869
1700516047950799400,5.49979931640625,1.542182680004835,-2.0653362010151146,0.14588351192325352
1700516047960808400,5.509808349609375,0.24964754551947116,0.7701484331291168,-0.3280864375926554
1700516047970818600,5.519818603515625,-2.556533325794339,-0.15917817004323004,0.11238750330107286
1700516047980828400,5.529828369140625,0.45024844379723067,1.060016272290796,-0.6153564422808587
1700516047990837500,5.53983740234375,3.3964550409168,-0.08152516765072941,0.23671169250821694
1700516048000847600,5.54984765625,-1.109195167610049,-1.7359953794471918,0.4213706512939185
1700516048010857500,5.559857421875,-4.387917563071847,1.6427959944851696,-0.4427348532967269
1700516048020866300,5.5698662109375,3.0188527311354876,0.2727236660066992,-0.16654162974962963
1700516048030876400,5.57987646484375,-0.5824053359240293,0.3589948591407388,0.08549131306903436
1700516048040886500,5.589886474609375,1.0826894380003214,-1.18240931077227,0.38633291138876225
1700516048050895400,5.599895263671875,0.989855671480298,0.9263368467718363,-0.3213634860131889
1700516048060905500,5.609905517578125,-2.926341620698571,0.0247251298032701,0.3638992169909179
1700516048070915600,5.61991552734375,1.357797003468871,1.9727675151720643,-0.8033698808599263
1700516048080925400,5.629925537109375,2.206905064609647,-0.584345656336844,-0.02622192596597597
1700516048090934500,5.6399345703125,-2.499055534815788,-1.6861340548217296,0.9937791285343468
1700516048100944600,5.649944580078125,-0.8974754939466715,1.3644073615193366,-0.4079875111728906
1700516048110954500,5.65995458984375,2.0102239701241253,0.3148135529130697,-0.6047499272663146
1700516048120963600,5.669963623046875,-3.3169179783433673,0.5989947978056966,0.4163830721396953
1700516048130973700,5.6799736328125,4.255154521745443,-1.50447736485824,-0.3227814630523324
1700516048140983600,5.689983642578125,-1.6869640759050846,0.4659585655611008,0.26652694852473213
1700516048150992400,5.699992431640625,0.6471802981734276,-0.8320047314528375,0.04213305019466206
1700516048161002500,5.71000244140625,-1.5867074659079312,1.96725488923043,-1.0892297995544968
1700516048171012400,5.720012451171875,1.4115554816633462,-0.6292801920846104,0.6153703246757388
1700516048181021400,5.730021484375,0.10490765067338943,-1.554258609984815,0.7342399382714182
1700516048191031600,5.740031494140625,-0.06968962229788303,0.27236900735013186,-0.6115975646713748
1700516048201041400,5.75004150390625,-1.0748358018904924,0.9139804193500429,0.3084595807764679
1700516048211050500,5.760050537109375,-1.3252946637928484,0.18684212977737188,-0.25740650734947995
1700516048221060600,5.770060546875,1.3688058887392283,-0.7826061289682984,0.5553864326277748
1700516048231070500,5.780070556640625,1.7755787634253501,-0.5264777700621635,0.21170723430691285
1700516048241080600,5.79008056640625,-0.9897159707486629,-0.1797896539825946,-0.041958753073681146
1700516048251089700,5.800089599609375,-1.0542717372894286,2.014400379025936,-0.6851867882236838
1700516048261099500,5.810099609375,0.36291444373726844,-1.624753995707631,0.48303186543695625
1700516048271109600,5.820109619140625,1.7248709049731492,-0.24464462266564369,0.13355254773627967
1700516048281118500,5.830118408203125,-1.1838970651119947,0.012904635889083147,-0.6911614787191153
1700516048291128300,5.84012841796875,-0.9065835140317678,1.1254200339630245,0.25777194312838836
1700516048301138400,5.850138427734375,-0.781883367651701,0.32035584334060546,-0.6330748351272195
1700516048311147500,5.8601474609375,1.3912842625290154,-0.4955436295509338,0.22315253823315723
1700516048321157400,5.870157470703125,2.1575147184967993,-0.7051471147779375,-0.2578182299555279
1700516048331167500,5.88016748046875,-1.753202680966258,0.5707224969148635,-0.4805031506769359
1700516048341176600,5.890176513671875,-1.0757686988264321,2.0978948009230196,-0.5305708115294575
1700516048351186400,5.9001865234375,0.8793062155276536,-1.7617951527446507,0.594333893322572
1700516048361196500,5.910196533203125,1.5800848328977823,-0.17622436271645128,-0.6474858569912612
1700516048371205600,5.92020556640625,-0.7683698060840368,0.3580375584159046,0.25036763995494693
1700516048381215500,5.930215576171875,-1.5541209550797939,0.7789704028144478,-0.12557024374548345
1700516048391225600,5.9402255859375,-0.9130027334243058,0.2737358387239277,-0.25008411030583083
1700516048401235500,5.9502353515625,1.8504782293260096,-0.5479021047543734,0.4857851096678525
1700516048411244300,5.960244384765625,2.936252189338207,-0.8127917161345481,-0.47072848337665196
1700516048421254400,5.97025439453125,-2.871851905620098,0.8248731990724801,0.23663652664646506
1700516048431264500,5.980264404296875,1.5626421151876448,1.3097000581674276,-1.0723878972817211
1700516048441273300,5.9902734375,-3.0287095237612722,-1.5791484288305042,1.766037612619996
1700516048451283500,6.000283447265625,-4.224889147341251,1.2407995404206216,1.9348650700181722
1700516048461293600,6.01029345703125,7.256060092779993,0.3624870851706713,-1.8796151842221616
1700516048471302400,6.020302490234375,5.3005321739614,-2.478715342098474,0.6937649392157793
1700516048481312500,6.0303125,-12.389896560674906,4.016845824103057,-4.5806011123538015
1700516048491322600,6.040322509765625,-2.174965034991503,-0.6708318073958158,4.843287879927456
1700516048501331500,6.05033154296875,9.162372437530756,-0.9923452963389455,-1.0350765498887746
1700516048511341600,6.060341552734375,0.01119885488450527,0.765958799419552,-0.14555263600107282
1700516048521351700,6.0703515625,-1.666403518435359,-2.3916500759772954,1.4112582522824406
1700516048531361500,6.080361572265625,1.8242402107417584,-0.8916489066850394,-1.558177975385636
1700516048541370400,6.090370361328125,-3.6411096004545684,0.33631066058054565,-0.5054975258756429
1700516048551380500,6.10038037109375,-0.7943956432223319,2.9677251859664917,0.8866567244209349
1700516048561390300,6.110390380859375,3.1465029594928025,-2.6675360784724353,-0.10001118386872113
1700516048571399400,6.1203994140625,0.36798926278352734,-3.4017496401935814,-0.4033528736421838
1700516048581409500,6.130409423828125,0.7256786653488874,4.275152184635401,-0.6214432148486375
1700516048591419400,6.14041943359375,-3.028851562580466,-1.5354323289617895,0.7487259250678122
1700516048601428500,6.150428466796875,1.297896953779459,-2.2309829825505614,-0.6999068029716611
1700516048611438600,6.1604384765625,-0.43031624735891816,-0.20810725531987845,-0.41318979252371935
1700516048621448400,6.170448486328125,-0.6085498310059309,2.2477988005340097,0.583319491626881
1700516048631458600,6.18045849609375,2.110735431665182,-0.16715236379280685,-0.17231811252553014
1700516048641467600,6.190467529296875,-0.8649871827960014,-5.122526553851365,0.7782249182093888
1700516048651477500,6.2004775390625,-0.25572949578166004,3.288939838093519,-0.9926970323860644
1700516048661487600,6.210487548828125,-0.9036918842434882,-1.0155062455654145,1.337557933038473
1700516048671496400,6.220496337890625,2.1370576214015484,-2.3622765358462927,-0.8285616052616387
1700516048681506300,6.23050634765625,-2.97390182877481,-2.731418768057227,0.4423414700649678
1700516048691516400,6.240516357421875,1.1463187373459338,3.821566705369949,-0.9781662565998732
1700516048701525500,6.250525390625,0.6720131261348724,-3.7574753414705393,1.5216645003721117
1700516048711535400,6.260535400390625,0.15535773497223854,-1.2701416625000537,-1.043542691873759
1700516048721545500,6.27054541015625,-1.3319161277592182,-0.9260779766399413,0.8888381601132452
1700516048731554600,6.280554443359375,1.6979811444818973,-2.8848914199352262,-0.16102204434424638
1700516048741564400,6.290564453125,-1.9705068767637013,-2.2101104365222155,-0.6734433781336993
1700516048751574500,6.300574462890625,-1.010355438673496,-1.2999550553530455,-0.02672324481792748
1700516048761583600,6.31058349609375,2.241953581637144,-3.17876243032366,0.9318789910688996
1700516048771593500,6.320593505859375,0.5966700081199408,0.4478422594383359,-1.3232993983224033
1700516048781599700,6.330599853515625,-1.3410001824468374,-4.998746444925666,1.4306056345701217
1700516048791609900,6.34060986328125,3.4259003311097618,-0.6304783158279955,-0.7300222475111484
1700516048801618700,6.35061865234375,-2.695235694041848,-1.5008607817962765,-0.7650101203925908
1700516048811628500,6.360628662109375,1.2701403473258017,-4.454849995616078,0.9318654740002006
1700516048821638700,6.370638671875,-2.2611054413527247,0.2206804672975093,-0.15514268571576104
1700516048831647700,6.380647705078125,1.7774743679136036,-2.685274856519699,-0.6095359194338321
1700516048841657600,6.39065771484375,1.813503712671995,-6.424243358179926,0.8217872888211161
1700516048851667700,6.400667724609375,-2.45348971542716,0.6690497462846339,0.06766925891879945
1700516048861676800,6.4106767578125,2.8997955590784548,-1.2308167833276091,-0.13648197051798924
1700516048871686700,6.420686767578125,-0.10617489413022994,-6.962575743621588,0.5044327096557244
1700516048881696800,6.43069677734375,-0.04103285213410854,0.37813108289577063,-0.9372649218909442
1700516048891705900,6.440705810546875,-0.07259761869907379,-7.00529786401689,0.6382710885960609
1700516048901715700,6.4507158203125,-4.441840291917324,-4.07682799911797,-1.248782648129016
1700516048911725800,6.460725830078125,5.6505877206474535,2.64310510931015,-0.027548187867365775
1700516048921735700,6.470735595703125,-0.777612266203761,-6.574448532694578,0.9514347554102539
1700516048931744500,6.48074462890625,-0.6053332070469856,-0.1933138100095093,-0.04076315008094534
1700516048941754600,6.490754638671875,5.111323022791743,-2.711080913427472,0.396392058186233
1700516048951764500,6.500764404296875,-6.730380268162489,-6.5550517583072185,-0.562269433607161
1700516048961773600,6.510773681640625,3.1421348274111747,1.300828623317182,0.42204701618552204
1700516048971783700,6.52078369140625,0.6523813739478588,-6.7156269356667995,0.7196090631116181
1700516048981793500,6.53079345703125,-4.580381916645169,-2.5863202690318223,-0.5073923631789162
1700516048991802600,6.540802734375,3.49194370585978,-3.045655105604231,0.39309374729320407
1700516049001812700,6.550812744140625,-3.5667280209481715,-6.704146925753355,-0.3502490599641576
1700516049011822600,6.560822509765625,1.951773534721136,-0.6436167604729532,0.06997212903369218
1700516049021831700,6.570831787109375,3.429761098191142,-2.633200093628466,0.15387644690591842
1700516049031841800,6.580841796875,0.8918430410176515,-5.920854860347509,0.04751671599438414
1700516049041851600,6.5908515625,0.25054011044502256,0.4903445265378803,-0.5959799800291657
1700516049051860500,6.600860595703125,1.5738666890352964,-5.970749064329266,0.8635895909577608
1700516049061870600,6.61087060546875,-2.717073431840539,-4.35031293182075,-0.8792007823918014
1700516049071880700,6.620880615234375,-0.10887129360735416,0.7528701122004539,0.32722313529420644
1700516049081889500,6.6308896484375,3.035309944939613,-4.460233442220091,0.31697621083967387
1700516049091899600,6.640899658203125,0.982587726303935,-1.6538973803445696,0.22876398490676655
1700516049101909800,6.65090966796875,2.067879455757141,1.4029478123158217,0.051604149704799054
1700516049111918600,6.660918701171875,-1.02437344263196,-6.4733870360553265,0.22048580324193462
1700516049121928700,6.6709287109375,-1.3743120849400758,-1.2805949597142636,-0.9580372224152087
1700516049131938800,6.680938720703125,0.594056610751152,0.10819960489086806,0.05514346627946943
1700516049141948700,6.69094873046875,1.231720892560482,-5.234525624090433,0.2594856882437132
1700516049151957800,6.700957763671875,-0.4872387425422668,1.5259265417307615,-0.3607437851672992
1700516049161967900,6.7109677734375,0.9828846634238958,-5.846260514873266,0.6842810715556145
1700516049171977700,6.720977783203125,-2.697067001122236,-4.371211635203659,-0.2635806659397669
1700516049181986600,6.730986572265625,-0.47718613508343694,0.1614259489700198,0.0004934826053678989
1700516049191996700,6.74099658203125,1.3821376639991998,-4.883775373138487,0.10846811963394283
1700516049202006500,6.751006591796875,-0.5649322230756283,-5.330387213999033,0.15606275970274583
1700516049212015600,6.761015625,2.270678156340122,1.909175479096919,-1.403924256132543
1700516049222025700,6.771025634765625,0.8539426416903734,-5.54507275173068,1.7306988804742693
1700516049232035600,6.78103564453125,0.049261751297116275,-1.769530423171818,-1.4740309347987175
1700516049242044700,6.791044677734375,2.004057264187932,0.4934378163781017,-0.03752382109984755
1700516049252054800,6.8010546875,-1.4072083923697472,-7.595709396263956,1.9836926676817237
1700516049262064600,6.811064697265625,-2.0911305674850937,0.6976178152516483,-1.5340600176952779
1700516049272073700,6.82107373046875,0.731076725000143,-4.3187925889194005,1.3499682095393537
1700516049282083800,6.831083740234375,-1.3500059112012386,-5.343023992732167,-0.39919593662582337
1700516049292093700,6.84109375,2.5843302642583845,2.24041336645782,-1.3847338179722428
1700516049302102500,6.8511025390625,1.0575316158682107,-6.541418954274058,2.05805788057521
1700516049312112600,6.861112548828125,-2.9014462488949295,-1.772180937680602,-1.697759610685706
1700516049322122500,6.87112255859375,1.8655764297366142,-4.497961992111802,0.7770010024376213
1700516049332131600,6.881131591796875,-0.03099953389763832,-4.909987965020537,0.21280008931122718
1700516049342141700,6.8911416015625,0.18365034799873828,1.1502747814953327,-1.5100823452584444
1700516049352151600,6.901151611328125,2.125128114154935,-7.533283627489209,2.363332913031429
1700516049362160600,6.91116064453125,-3.264948721653223,-3.1669916207700965,-1.6153338409334421
1700516049372170800,6.921170654296875,2.1953595882445573,-3.6890813119411465,1.121289363899082
1700516049382180600,6.9311806640625,-0.37926995073258873,-4.058107516556978,0.8596943370848894
1700516049392189700,6.941189697265625,4.8948938562631605,1.366478614835441,-2.0383865270301698
1700516049402199800,6.95119970703125,1.1128063438445328,-4.010749260793626,2.2391095903828737
1700516049412209700,6.961209716796875,-4.529603915566206,-4.962203889948129,0.14724650737214834
1700516049422218500,6.971218505859375,0.34734862581491466,-8.82726136199832,0.1702708976721391
1700516049432228600,6.981228515625,-4.672639344581961,-2.7485104803726075,-1.2370926487267018
1700516049442238500,6.991238525390625,5.564614487546682,-1.871649027648568,-0.7088415853817015
1700516049452248600,7.00124853515625,0.5850099654644727,-6.396808823287486,2.455878656390309
1700516049462257700,7.011257568359375,2.1081687960475683,-4.2582858055084944,-0.8270646447021514
1700516049472267500,7.021267578125,5.487181119254231,-2.159199895104766,1.7108127151347696
1700516049482277600,7.031277587890625,-2.134047918191552,-0.9055012717530131,-0.3227957838386297
1700516049492286700,7.04128662109375,3.9442438214898106,-6.344186071124673,0.25884181911591436
1700516049502296600,7.051296630859375,-8.447827160614729,-5.398094722568988,-1.1682320245988667
1700516049512306700,7.061306640625,1.3087562014460563,-4.158169188503921,-1.1994127602823077
1700516049522315800,7.071315673828125,-1.311045189166069,-2.762300813055038,2.8697496726438403
1700516049532325600,7.08132568359375,3.0828701530158518,-3.656196402688324,-1.1051764334879814
1700516049542335700,7.091335693359375,1.5127923348695038,-4.193600567369163,0.3648673313707113
1700516049552344600,7.101344482421875,-4.274548958045244,-2.8439737186133858,-1.6976684252709149
1700516049562354700,7.111354736328125,-0.5000877027213573,-5.204017088580131,0.33155984932426363
1700516049572364500,7.121364501953125,0.5110194311022758,-0.7366158005572855,-1.10867143599689
1700516049582373600,7.13137353515625,3.6831454921513793,-4.971298466029763,0.2354368502668105
1700516049592383700,7.1413837890625,0.42182898952066894,-0.33490342413112517,0.15011999871553852
1700516049602393600,7.1513935546875,-0.08687748846411704,-6.745808138918877,0.294858413990587
1700516049612402700,7.161402587890625,-0.8523428052783012,-0.8400229835398495,-1.5428198088645935
1700516049622412800,7.171412841796875,0.7854097882121801,-3.5852871754676103,-0.22021741636302322
1700516049632422700,7.181422607421875,3.5454485015541315,-3.2348177872836588,1.0525197059903293
1700516049642431700,7.191431640625,0.00685059654712677,-3.971673387946188,-0.017806363390758632
1700516049652441900,7.20144189453125,1.0467372501313685,-4.8961698675483465,0.7109738481700419
1700516049662451700,7.21145166015625,0.7397475227117538,0.18981106258556246,-1.9845348175942896
1700516049672460500,7.22146044921875,2.5097353342622517,-4.968109314599633,1.1701254371300338
1700516049682470700,7.231470703125,-4.537201531088352,-2.518632341945171,0.4164933641137555
1700516049692480500,7.24148046875,5.2341790026098485,-5.872703116118908,-0.5247091529544443
1700516049702489600,7.251489501953125,-4.359354900932312,0.8152692852292209,0.22165296559147535
1700516049712499700,7.261499755859375,6.451845650854707,-3.5520503840371966,-1.2723517397649586
1700516049722509600,7.271509521484375,-3.9806811625272034,-3.3549019643008706,0.49483924414124336
1700516049732518700,7.2815185546875,1.0949994689971208,-4.270897449800372,-1.3167097907990217
1700516049742528800,7.29152880859375,-0.12541443212926387,-0.9262304637879133,0.7249876874100416
1700516049752538600,7.30153857421875,0.08803776441514491,-4.340302994459867,-0.6759085261382162
1700516049762547700,7.311547607421875,-0.6786322520136833,-2.3188844072349366,0.2536299844854511
1700516049772558000,7.32155810546875,-4.439206436282396,-3.6633944974988695,-0.884817891621217
1700516049782568000,7.33156787109375,0.2944447186231613,-2.5447102015316485,1.6820961776077747
1700516049792577000,7.341576904296875,0.9930015682905912,-2.4983546930700538,-1.5667054191038012
1700516049802587100,7.351587158203125,0.6939800432711839,-3.6564626524090764,0.6158190913565457
1700516049812597000,7.361596923828125,0.09502163195312023,-1.7734432127013802,-0.27150577811691906
1700516049822606000,7.371606201171875,-0.17261808185279368,-2.6712252883791923,1.0882700146116315
1700516049832616200,7.3816162109375,0.11270984885692596,-1.4261327269397674,-0.8803020946972072
1700516049842626000,7.3916259765625,1.2293331206411122,-4.248724488697945,1.6279505997918544
1700516049852635100,7.40163525390625,1.4356132335990666,-1.4218148637406527,-0.8923413459286094
1700516049862645200,7.411645263671875,0.35400866822600363,-2.856416728340089,2.0124317093014716
1700516049872655000,7.421655029296875,4.885524554893374,1.2141165545478463,-1.883601915770769
1700516049882664200,7.431664306640625,-2.5232015495568514,-7.104689966139197,1.9746758330114185
1700516049892674300,7.44167431640625,5.412054858860373,-1.806921265541762,-1.4985747166857122
1700516049902684000,7.451683837890625,-1.7750357425898313,-2.9193372948944565,1.6162287439465521
1700516049912693000,7.46169287109375,3.128256524184346,0.8005646872460842,-0.2664736657012254
1700516049922703000,7.471703125,-1.3553870197176932,-5.963662905460596,1.1940608778603374
1700516049932713000,7.481712890625,-1.6899837159872053,-4.386553288981318,-1.5974474711090325
1700516049942722000,7.49172216796875,-0.002513444125652313,0.39636933489777143,2.1339909273073077
1700516049952732200,7.501732177734375,2.141244551697373,-1.676915706229955,-1.045180595273897
1700516049962742000,7.511741943359375,-0.29655893429815766,-5.727103389573097,1.1270333874437957
1700516049972751000,7.521751220703125,-1.8265350436806678,-2.507206108045578,-1.6436742386244236
1700516049982761200,7.53176123046875,1.3067355092734099,-0.605433160290122,1.7520853673741221
1700516049992771000,7.54177099609375,2.44414613302052,-3.586621054419875,-1.0856595398522912
1700516050002780200,7.5517802734375,-0.3212374484807253,-1.2067580084785818,0.042700493085384365
1700516050012790300,7.561790283203125,-0.2936737342506647,-4.177570931327343,1.4133992098338901
1700516050022800100,7.571800048828125,0.18943945279419422,1.2183822491683065,-0.3152705029003322
1700516050032809000,7.58180908203125,-0.2602104405879974,-4.908619014754891,0.3685836850127205
1700516050042819000,7.591819091796875,-1.9113374794363975,-2.875915501797199,-0.15913944546803832
1700516050052829000,7.601828857421875,-1.680012357071042,-1.0454947027243673,0.3482486433945596
1700516050062838000,7.611838134765625,0.25861411130726336,-3.2589275616675613,-0.4332120053330436
1700516050072848100,7.62184814453125,0.5295166263014078,-3.5549162948623296,0.05096333105061203
1700516050082858000,7.63185791015625,0.02750467751920223,-4.696492221595347,0.08661295577641576
1700516050092867000,7.6418671875,-0.7806675621211528,1.2723869572088122,0.700271398500353
1700516050102877200,7.651877197265625,1.0476549494981766,-4.191164572393894,0.9449512386098503
1700516050112886300,7.66188623046875,-1.319834644821286,-1.6275649614751337,0.4647210961880162
1700516050122896100,7.671896240234375,0.13916998575925826,-3.8618478623539207,0.5498017643632367
1700516050132906200,7.68190625,2.0897382363438606,2.6806568413302303,-0.9278510507270693
1700516050142915000,7.6919150390625,1.6880717448860405,-5.883925351879,0.9144075587209314
1700516050152925000,7.701925048828125,-1.2147019532203673,-2.666855987253785,-1.3774287556558846
1700516050162935000,7.71193505859375,0.7719359741330146,-0.38368484456539154,-0.5711614363214
1700516050172944100,7.721944091796875,3.1376720027834177,-2.1632385029710828,-0.5814364908918738
1700516050182954000,7.7319541015625,1.8904086731761693,-3.807553962108493,0.06438669358417391
1700516050192964000,7.741964111328125,1.5716121881067753,-4.25928183080852,-0.589286400674656
1700516050202973200,7.75197314453125,-1.2499948003977537,0.2937950225427747,0.3537012097120285
1700516050212983000,7.761983154296875,-1.4265624966591597,-4.026815137192607,0.9653248221401125
1700516050222993200,7.7719931640625,-1.9864210697323084,-3.081059304201603,0.31672029984984545
1700516050233002200,7.782002197265625,0.3295972805470228,-2.0250975679986176,0.231578293408826
1700516050243012000,7.79201220703125,-0.19385025497376918,-0.6753076376356184,0.6251384891699999
1700516050253022200,7.802022216796875,0.1237181496053934,-3.073617756024003,0.7795197072602807
1700516050263031000,7.812031005859375,0.28094986175596715,-4.132351148897409,-0.5236968341067433
1700516050273041000,7.822041015625,0.5279132827579974,1.0377559251658617,-0.18504604014083742
1700516050283051000,7.832051025390625,2.449173021271825,-4.2890661436975,0.058173846951313314
1700516050293060000,7.84206005859375,-0.9074030137211084,-0.9072713501654565,-1.0104821337930858
1700516050303070000,7.852070068359375,1.5593454117298124,-3.496514374776184,0.8124366921517997
1700516050313079000,7.8620791015625,0.029239538487792014,-0.09678498836383223,-0.11517508819298818
1700516050323089200,7.872089111328125,0.468716997423768,-2.6258395017325875,1.3065209897398948
1700516050333099000,7.88209912109375,-2.235181311023235,-3.6971073820084333,-1.0421670926716178
1700516050343108000,7.892108154296875,-0.3287053001433611,0.5021244692459702,-0.21416403460819272
1700516050353118200,7.9021181640625,1.1958055295705794,-5.628903712105751,1.158725360585004
1700516050363128000,7.912128173828125,0.21999825718700886,-0.36617110744565723,-0.8877435698095708
1700516050373137000,7.922136962890625,0.3990484179139137,-3.5132726173534987,1.0067218314114958
1700516050383147000,7.93214697265625,-1.2081366033554077,0.7089771213948727,-0.7240273179452866
1700516050393157000,7.9421572265625,-0.5661573809564113,-3.469033954915404,0.673617638722062
1700516050403166000,7.952166015625,-1.5870049875497818,-3.9899183619499206,-0.5494377898890525
1700516050413176000,7.962176025390625,-0.6174965230494738,1.0213478112004697,-1.0661052368156612
1700516050423186200,7.972186279296875,1.4688877266913651,-5.099903218632936,0.5827263115067035
1700516050433195000,7.982195068359375,-0.2833995929956436,-1.2591396453619002,-1.1517143858443946
1700516050443205000,7.992205078125,1.6441700593173503,-5.372545855292677,0.8672748553417623
1700516050453214200,8.002214111328126,0.6640706426978111,1.8881950887799261,-1.3070923598870634
1700516050463224000,8.01222412109375,0.42623862265646456,-3.599416238585114,2.1017919544920325
1700516050473234200,8.022234130859376,-0.3876075709670782,-3.3157220465570685,0.21617166636986657
1700516050483243000,8.032242919921876,-0.2687462137430906,-0.28485622154474255,1.0257082714322954
1700516050493253000,8.042253173828126,4.474322173327208,-0.7189687924467026,0.06681770185707137
1700516050503263000,8.052262939453126,-1.3311509886056183,-2.5282857209533454,1.847527708957344
1700516050513272000,8.06227197265625,4.054063209602236,-3.5798443998917935,0.30912947939466684
1700516050523282200,8.0722822265625,1.2194050163447856,1.8018496613658963,-0.3730602093722671
1700516050533292000,8.0822919921875,1.8913678735971449,-2.4813117883324622,0.39958018670305606
1700516050543301000,8.092301025390626,-3.3625983640223738,-4.162667961227894,-0.4973856772210449
1700516050553311200,8.102311279296876,-3.572142447212338,-0.41667949780300256,-0.7219561376944184
1700516050563320000,8.112320068359375,0.37637832094430923,-2.4971762969404456,-1.640810665886849
1700516050573330200,8.122330078125,-0.431122303044796,-1.621639370818436,-0.7854251319117843
1700516050583340300,8.13234033203125,-1.4871785856634379,-4.210028262817859,-0.18589520431607962
1700516050593348900,8.142348876953125,0.38505145674347874,-0.5143748790100217,-0.8729999549902975
1700516050603359000,8.15235888671875,2.0696096405506132,-1.7766423010036347,-0.39273883290830996
1700516050613369000,8.162369140625,1.454805425325036,-2.939958350379765,0.6545334374152123
1700516050623378000,8.1723779296875,2.2173048780709506,0.1248218730635941,0.9677999070167541
1700516050633388000,8.182387939453125,1.443419523435831,-3.0910002679795023,0.9310584684662521
1700516050643397000,8.192397216796875,1.130695051756501,-0.07117781502902508,0.2571392529817298
1700516050653407000,8.202406982421875,0.889684401679039,-4.476227714687585,1.9122534252375363
1700516050663417000,8.2124169921875,0.18018764032423495,1.452953659978509,-1.0952183724448084
1700516050673426200,8.22242626953125,-2.7630969318687915,-1.6132833381444214,1.4947382072627544
1700516050683436000,8.23243603515625,-1.8615508274823427,-4.942486213043332,-0.5008676375852897
1700516050693446100,8.242446044921875,-2.15768130723536,-0.9028339522399008,-0.46558027030061927
1700516050703455000,8.252455078125,1.7523516170948743,-1.3775224252887068,-0.801932176207006
1700516050713465000,8.262465087890625,-1.821523352998495,-3.227833335223794,0.3292800312913954
1700516050723474000,8.272473876953125,0.07371464003026484,-4.253675681364536,-0.7717001195505261
1700516050733484000,8.282484130859375,1.413407831531763,0.7205025778852403,-0.09471947066877037
1700516050743494100,8.292494140625,0.560335542935133,-2.753919938200712,1.3954948659613728
1700516050753503000,8.3025029296875,-1.41395435949862,-2.0620527954302728,-0.16944434718750417
1700516050763513000,8.31251318359375,1.0271867464870215,-0.6766032304041087,0.7289958270728588
1700516050773522700,8.322522705078125,1.53189684831202,-3.3516382863298055,0.17520879246573895
1700516050783531800,8.33253173828125,0.13086509875059127,-0.07274798695519566,0.06700034668128937
1700516050793541600,8.342541748046875,1.5015508098870516,-3.3501258359402417,1.6470022140033542
1700516050803550700,8.35255078125,2.0831430758625267,3.0732176507905122,-0.6857996594250202
1700516050813560800,8.362560791015625,1.080282376858592,-2.657618203309178,1.7020938404977322
1700516050823570700,8.37257080078125,1.5523036765247582,-4.2621167619735,-0.4235657136527821
1700516050833579800,8.382579833984375,1.4899568182051182,0.21616700846105813,-0.029010040580853817
1700516050843590000,8.39258984375,7.501154797300696,2.0035791252821684,-1.4158644309036432
1700516050853599700,8.402599853515625,-1.0994541103184223,-4.739420970478654,0.710791550405696
1700516050863608600,8.412608642578125,1.8742372905761002,-5.391017916050553,-1.1200415557950734
1700516050873618700,8.42261865234375,1.7436936788648365,2.075001562722027,-1.377239370563626
1700516050883627800,8.432627685546874,-0.6138526135891675,-2.5287469087243077,0.3882055368602276
1700516050893637600,8.4426376953125,-3.374759926459193,-4.201324439619481,1.8157193428948522
1700516050903647700,8.452647705078125,-0.9892951149880885,-1.3113589312903582,0.5944937235267832
1700516050913656800,8.46265673828125,-0.3043213849931955,-0.5968317014876753,-0.1185091462528333
1700516050923666700,8.472666748046874,-0.5991086334437131,-1.937170424351096,1.9773656566172837
1700516050933676800,8.4826767578125,-3.2990807083576916,-4.926442840737104,1.0839426529318095
1700516050943686000,8.492685791015624,-4.444312234988808,1.4043597249403594,-0.8346825723599642
1700516050953695700,8.50269580078125,0.6472381658405065,-2.686471665088832,-1.1474356125466525
1700516050963704600,8.51270458984375,0.30686814686655994,-3.8917762598887085,-1.0645593225479126
1700516050973714700,8.522714599609374,-0.018615268620848655,-0.6954604910872876,-0.11860084312427788
1700516050983724500,8.532724609375,3.0446774927437303,-2.2320183169476686,-1.0595382795155048
1700516050993733600,8.542733642578124,-1.002189083352685,-1.3864355073235928,0.16158431786950678
1700516051003743700,8.55274365234375,-0.4041676606237888,-3.231140852336585,1.7704354091875254
1700516051013752600,8.562752685546876,-1.1933061139702796,2.9285446837007996,0.3591269245551899
1700516051023762700,8.5727626953125,-1.4074825331360101,-4.805075930432975,2.72908184954226
1700516051033772800,8.582772705078124,-2.6327631635159254,-2.736780587351322,-0.1498121931416914
1700516051043781600,8.59278173828125,-0.700781539979577,0.23454101567193864,0.9487154865141958
1700516051053791700,8.602791748046876,2.90711494218111,-2.428053076353669,0.1338680799588561
1700516051063800600,8.612800537109376,0.7943184863328934,-2.7682214352756738,0.1033641840910539
1700516051073810700,8.622810791015626,1.4848019196599722,-5.028716051253676,-0.41511615747641767
1700516051083820500,8.632820556640626,2.7826047654151913,2.7978955657884477,-0.6656926909416914
1700516051093829600,8.64282958984375,3.098888390880823,-2.14550279366374,0.13252932390207425
1700516051103839700,8.65283984375,-0.16742518938481807,-5.4166340033441776,0.39183717136085033
1700516051113848600,8.6628486328125,4.404720229312777,-1.6640706915736196,-0.523655515715666
1700516051123858700,8.672858642578126,1.8539193096905946,1.563175199151039,-0.5040609172012657
1700516051133868800,8.682868896484376,-2.622369195273518,-1.6905425189137457,0.7162869329515844
1700516051143877600,8.692877685546875,1.2137164493143557,-3.903127382725477,0.7654002156887203
1700516051153887700,8.7028876953125,-5.584568895816803,3.859164906880259,0.6348803501792252
1700516051163897900,8.71289794921875,-0.34332010095119475,-1.906116529917717,0.23670566462622955
1700516051173906700,8.72290673828125,-0.2782493706256151,-6.997799617215991,0.0459087510747835
1700516051183916500,8.73291650390625,-1.384218561926484,-0.9050574735082686,-0.503699573075585
1700516051193925600,8.742925537109375,2.7446237020671367,0.477351116386801,-1.8129662447944281
1700516051203935700,8.752935791015625,-0.08916063096523284,-3.8651454425945877,0.6009745003808289
1700516051213945600,8.762945556640625,0.8672364230275154,-2.8446862507969137,0.4445675120839849
1700516051223954700,8.77295458984375,-1.1561907275408505,-0.10768705225884914,-0.7040569083884358
1700516051233964800,8.78296484375,-0.3048538844347,-2.1726433140456676,1.0708967088758945
1700516051243973600,8.7929736328125,-1.6264935328513384,-2.642069921043515,0.9463048451758921
1700516051253983700,8.802983642578125,0.27740181388556956,1.8965848775930703,1.214166019712761
1700516051263993900,8.812993896484375,2.622037771362066,-3.5663808149456977,0.6190890529379248
1700516051274002700,8.823002685546875,-0.46171033353209495,-3.4503818614155053,0.27462445812672376
1700516051284012500,8.833012451171875,1.5979355468869207,-2.308124820550531,1.0649554822586476
1700516051294021600,8.843021728515625,0.4500637348800897,1.9771721798717974,0.4323035487186163
1700516051304031500,8.853031494140625,-3.9034512078523633,-4.02215562094897,2.4866151554375886
1700516051314041600,8.86304150390625,-3.9460546703040595,-3.212568253813684,-1.6166475538805125
1700516051324050700,8.87305078125,-1.5726415311545132,1.0800419922314584,0.9009889819603413
1700516051334060500,8.883060546875,3.3134149386584757,-2.0789039769880473,-1.026714891191572
1700516051344069600,8.893069580078125,0.2279039157450199,-4.141882362830638,0.16363149619027972
1700516051354079700,8.903079833984375,-0.8465332422167062,-2.8477345324516294,0.2618726564454846
1700516051364089600,8.913089599609375,-0.9409884724587202,0.6761182233661412,-2.089604673092067
1700516051374098700,8.9230986328125,0.21971593311429022,-2.171189900366962,0.00003499824814498424
1700516051384108800,8.93310888671875,0.8218535589903593,-2.6274375845789906,-1.1310831012260167
1700516051394117600,8.94311767578125,3.8141228191047905,0.665838821414113,0.354978499638848
1700516051404127500,8.95312744140625,2.122820421734452,-3.123392717540264,0.6414822326622903
1700516051414137600,8.9631376953125,-0.8183727311372756,-0.5159093951009214,0.9368827907055616
1700516051424146700,8.973146728515625,-2.1195482681959867,-2.8075848928928373,0.38541663679406046
1700516051434156500,8.983156494140625,0.9872849442094563,1.086947972227633,-1.8598232730373738
1700516051444165600,8.99316552734375,2.2025445313125847,-1.0374018510311842,1.3465512407027185
1700516051454175700,9.00317578125,2.9980127722024914,-4.0380443872153755,0.27744782671807333
1700516051464185600,9.013185546875,0.08893091386258602,0.018205080384761093,-1.0442371038787066
1700516051474194700,9.023194580078124,0.18815642724633216,-3.161123897780478,-0.40422275181189177
1700516051484204800,9.033204833984374,-0.4117436488360166,-2.54675836623311,0.09944178648293017
1700516051494213600,9.043213623046874,-0.6756389154165983,-1.8368539008602498,1.0310146342121065
1700516051504223500,9.053223388671874,0.7351829912751913,0.5401274521648883,0.23436708387713878
1700516051514232600,9.063232666015624,-1.920568249118328,-2.1187389976397157,2.2015274632245303
1700516051524242700,9.07324267578125,-3.203274063506722,-5.302992426595091,-0.234928261423856
1700516051534252500,9.08325244140625,0.6604781711637974,2.783355291521549,-0.8712424437984824
1700516051544261600,9.09326171875,2.15244048397243,-2.6131819724723697,0.4048563370076939
1700516051554271700,9.103271728515624,0.39671500653028485,-3.35564956779778,-0.025105105564184486
1700516051564280800,9.11328076171875,-0.04087093957066536,0.3105786918222904,0.5837048011500388
1700516051574290700,9.123290771484376,0.8953396509617566,-1.760441838439554,-0.35284177987109866
1700516051584300800,9.13330078125,-1.4727899948269128,-1.534434696226567,-1.4219506189495323
1700516051594309600,9.1433095703125,-0.9986012879937887,-3.424998998355865,-0.5290612472167239
1700516051604319500,9.153319580078126,3.5172067419320343,3.4278552645698186,-2.497619656793773
1700516051614328600,9.16332861328125,2.1636323245942592,-3.9957355237960814,0.648016018345207
1700516051624338700,9.173338623046876,-0.24013971246182916,-3.160401428724825,1.370029585315287
1700516051634348500,9.1833486328125,-1.341302964785695,0.5911753562264144,0.6009256197378039
1700516051644357600,9.193357666015626,0.9772802675455808,-0.983099621348828,-0.9771292417023331
1700516051654367700,9.20336767578125,0.0648112026065588,-2.6326266776546836,1.0532943436246365
1700516051664376800,9.213376953125,2.375577039185166,-3.2662831851273775,-0.44672421519383787
1700516051674386700,9.22338671875,2.8017846821814776,1.4672192089572549,0.054346708144899454
1700516051684396800,9.233396728515626,-1.39832541321218,-3.370583517557382,1.8171452840447424
1700516051694405600,9.243405517578125,0.7441232535779476,-3.7492993415385483,-0.9078628132525831
1700516051704415500,9.25341552734375,-3.1985943812578914,0.20009441006034612,1.1974551964737474
1700516051714424600,9.263424560546875,5.871195049643516,0.7128864037930965,-0.4421374353928491
1700516051724434700,9.2734345703125,-3.919133345630765,-3.3941008790060874,2.492908410362899
1700516051734443800,9.28344384765625,-1.5390677628546952,-4.857672671371698,-0.3092418902605772
1700516051744453600,9.29345361328125,1.2205150234133004,2.8866344642102715,-1.8350792924031614
1700516051754463700,9.303463623046875,1.0229337652176618,-1.7251576129600406,1.1092178178332746
1700516051764472800,9.313472900390625,-2.3303426437079904,-4.485196034041047,0.09841452579442411
1700516051774483200,9.323483154296875,-2.1032260789483783,0.8076036459721624,-0.9191830294944345
1700516051784492300,9.3334921875,1.6976731014460325,-2.046500859902799,-0.5192371512841433
1700516051794502100,9.343502197265625,-0.8637912510097027,-2.2883017835751174,0.1092908341936767
1700516051804511200,9.35351123046875,0.5306143584102392,-1.8015943714305758,-0.04601239411234855
1700516051814521300,9.363521240234375,2.823816481247544,0.38598216172233224,-1.0697102755703032
1700516051824531200,9.37353125,1.0791706162244081,-2.659242589640617,1.7534866124741733
1700516051834540000,9.3835400390625,-0.5965343990415334,-3.5542508166909217,0.18721510954191908
1700516051844550100,9.393550048828125,2.49631062002182,2.5896611038923263,0.6573330050058662
1700516051854559200,9.403559326171875,0.12834171775281428,-1.6392536457031965,1.283809537846595
1700516051864569000,9.413569091796875,-3.7877889389306305,-3.2322897301107645,-0.03479972989819944
1700516051874579200,9.4235791015625,-1.5189923585534095,-1.7667431305408476,0.4387955410864204
1700516051884588300,9.43358837890625,0.7969967656314373,1.0925979608133434,-1.6041630430996416
1700516051894598100,9.44359814453125,-0.5099152692526578,-1.7675072467811404,-0.2217347986560315
1700516051904607200,9.453607177734375,-1.4015771084845066,-5.708973858642578,-0.0014454495679587125
1700516051914617300,9.463617431640625,-0.6584270838528871,2.07763088831231,-0.7029626834109425
1700516051924626200,9.473626220703125,1.9351590845286846,-2.3886314588084816,-0.4017272817343473
1700516051934636000,9.483635986328125,0.5212853890508413,-2.640040461042523,-0.35208182834926993
1700516051944646100,9.493646240234375,0.4962023857206106,-0.5723195568479598,1.552270358777046
1700516051954655200,9.5036552734375,1.1590203980088234,-1.4097874490775166,0.08092953984513879
1700516051964665000,9.5136650390625,-0.08721417307257652,-1.4475687520697713,0.7452044729433953
1700516051974674200,9.523674072265624,-2.980835427430272,-2.341265019738674,0.9044630147464573
1700516051984684300,9.533684326171874,1.0317126994788646,2.3672554933026433,0.7542255453974008
1700516051994693400,9.543693359375,-0.10939444069862365,-2.6767522351071236,0.8232656177453697
1700516052004703200,9.553703125,-2.4264748672515153,-2.3505678317435086,-1.0405546890389175
1700516052014713300,9.56371337890625,0.8177543069779872,0.44743499381169677,0.10554850586019456
1700516052024722200,9.57372216796875,1.831159780871868,-1.0619069083429873,-1.1977072715386747
1700516052034732000,9.58373193359375,0.1545522638082504,-1.9295245857730507,0.5023251429172233
1700516052044741000,9.5937412109375,-2.672581963685155,-3.9967090450033544,-1.014397480605915
1700516052054751200,9.603751220703124,-2.2757219957262276,3.1160935004428025,-1.9095681316763162
1700516052064761000,9.613760986328124,-0.700035690048337,-2.2726377659752965,1.2028291445970534
1700516052074770200,9.623770263671876,-2.014490395396948,-4.128803685548902,-0.13195979865211993
1700516052084780300,9.6337802734375,0.44891748745441434,2.2378497995801268,-0.17384039018936454
1700516052094789400,9.643789306640626,2.5167928515583275,-2.7054680419817565,-0.11034206027965993
1700516052104799200,9.65379931640625,1.225549510449171,-2.8460239291414617,0.5154760817175731
1700516052114808300,9.663808349609376,4.167818768119812,-1.8552618103407321,0.050593840151093895
1700516052124818400,9.673818359375,1.9676292755007743,1.6911350779794156,1.024013450213149
1700516052134828300,9.683828369140626,-3.529995496356487,-2.606959444695711,0.676506272835657
1700516052144837000,9.693837158203126,-0.14959318009614944,-2.9010251008734107,-1.7195193148121237
1700516052154847200,9.70384716796875,1.340605630171299,0.9467277467630804,0.4174599806562066
1700516052164856300,9.713856201171875,1.8636358170628546,1.0434547213293612,0.07431085235774516
1700516052174866200,9.7238662109375,-7.279476624202728,-2.614005271553993,1.2206453717947006
1700516052184875300,9.733875244140625,2.0228449667662383,-4.970406485626101,-1.1616621446892619
1700516052194885400,9.743885498046875,3.2974440470665694,3.1312340786904094,-1.8925423242039978
1700516052204894200,9.753894287109375,0.13204407940208912,-1.6700107491470872,0.5755094389304518
1700516052214904300,9.763904296875,-3.612065292277932,-4.2905327091187235,-0.1716277921738103
1700516052224914400,9.77391455078125,4.73409363797605,2.4754011029839513,-0.7764999210476875
1700516052234923000,9.783923095703125,1.5414952822625636,-1.8786399094492197,-0.0470928828254342
1700516052244933000,9.79393310546875,-2.5416274330854414,-2.108021496531367,0.760521430671215
1700516052254942200,9.803942138671875,-0.28440321708023547,-0.7896748983107507,0.3742274630533531
1700516052264952000,9.8139521484375,-0.5635100813180208,0.171918116889894,-0.6246602771990001
1700516052274961200,9.823961181640625,-2.611525145176053,-0.5895799037285149,0.4383155755497515
1700516052284971300,9.83397119140625,-1.7778513845324515,-4.1601837431967255,-0.7802797318473458
1700516052294981000,9.843981201171875,1.5003437721848487,2.5873718239113686,-0.6474224363662302
1700516052304990200,9.853990234375,1.885114658421278,-2.729098800677061,-0.7234203650280833
1700516052315000300,9.864000244140625,2.861419358932972,-4.791067571085692,-0.19837505718814208
1700516052325009200,9.874009033203125,-2.255495200255513,-1.7145143461316823,0.6463334720857441
1700516052335019000,9.88401904296875,7.831061289927363,2.53889742359966,-2.2646118420384824
1700516052345028000,9.894028076171875,-7.105925060892105,-4.578059611177444,0.9175091779980808
1700516052355038200,9.9040380859375,1.607066363325715,-3.081569591811299,-0.1431665263158269
1700516052365048000,9.914048095703125,9.255395004621148,1.997322695235908,-1.057562887789309
1700516052375057200,9.92405712890625,-1.8410253413259983,-0.40741117258965964,0.33522812604084606
1700516052385067300,9.9340673828125,-1.860108227458596,-1.4130992039740085,1.2573973317392169
1700516052395076400,9.944076416015625,8.717844124945998,-2.210780883129686,-1.1627663065388798
1700516052405086200,9.954086181640625,2.8797411975651976,-0.12806377759426832,-1.5812823721192777
1700516052415095300,9.96409521484375,0.6091513040304184,-1.094478952254355,1.0428045868575573
1700516052425105400,9.97410546875,1.3923603673279286,-2.620660053268075,-0.49131720749493685
1700516052435114200,9.9841142578125,1.4964964491069317,4.419446966062486,0.12484507127609103
1700516052445124000,9.9941240234375,0.12157353879213333,-1.9918897104017435,-1.9373858206674455
1700516052455134200,10.00413427734375,-7.062006424188613,-4.37730936755687,-0.4696341122686863
1700516052465143300,10.014143310546874,3.113689069649577,1.3914739398822187,-0.2205039964857511
1700516052475153200,10.024153076171874,-1.32508657400012,0.21795126152932642,-0.43968971344716845
1700516052485162200,10.034162353515624,-4.669811427679658,-2.246140219672024,1.5209810481525956
1700516052495172400,10.04417236328125,1.3491887495994568,-4.155137565723061,0.6980737423256039
1700516052505181400,10.054181396484376,1.321933078405261,1.2758375360541045,-0.836010240767151
1700516052515191300,10.06419140625,-1.087826216366887,-2.420884207637608,0.9472987515840678
1700516052525200100,10.0742001953125,-1.4257751456737517,-4.290015699507296,1.9331481830976902
1700516052535210200,10.084210205078126,-0.9221902484863996,1.7598522019833325,0.08912621723897754
1700516052545220000,10.09422021484375,1.720938241699338,-2.5637317128658292,-1.9728823737233876
1700516052555229200,10.104229248046876,1.384651108124852,-3.089069592177868,-0.43638438829146325
1700516052565239300,10.1142392578125,0.427425786614418,-3.9116470815286037,1.3350136553831398
1700516052575248100,10.124248046875,-0.3495218782007694,1.8585111675255,-0.3652790539767593
1700516052585258200,10.13425830078125,-2.7235154475867747,-1.053751293611899,0.5160859937768429
1700516052595267300,10.144267333984375,-2.704542451569438,-2.8810288992881774,-2.165649217374623
1700516052605277200,10.154277099609375,3.428241341277957,1.1139145973473787,-0.02859426285419613
1700516052615287300,10.164287353515626,4.801285013717413,0.5961302021548152,-0.7076008646056056
1700516052625296100,10.174296142578125,-7.388352593985199,-4.947143683460355,1.986523214932531
1700516052635306200,10.18430615234375,6.776552236750722,-0.5691594853818416,-1.140600067438185
1700516052645315000,10.194315185546875,4.072161176350712,1.9959259801805018,-0.8312266597524285
1700516052655325200,10.2043251953125,-8.83425458188653,-0.758885938423872,1.8133157888844609
1700516052665334300,10.214334228515625,1.2239146027237175,-2.271883440476656,-0.5588946234118193
1700516052675344100,10.22434423828125,4.98836942781806,0.8650866976477205,-0.6593515052214265
1700516052685353200,10.234353271484375,0.25748247692883014,-1.1189400242939591,0.5636161720409989
1700516052695363300,10.24436328125,-6.071008596935868,-3.0675404819369314,1.3428960791960358
1700516052705373200,10.254373291015625,2.9292221445709465,-1.4158496717259288,0.5941535683196038
1700516052715382000,10.264382080078125,-2.8232261141389605,1.2803627583935857,-1.1081113178960977
1700516052725392100,10.27439208984375,-5.236291464719176,-2.855734591294825,-0.6932393079064786
1700516052735401200,10.284401123046875,-2.251563706025481,-1.6371772778205573,-0.5194184261351823
1700516052745411000,10.2944111328125,-0.26935060937702654,0.33708938986808057,0.035365181761234994
1700516052755420200,10.304420166015625,1.1423790598094463,-1.8697084149748087,-0.46412791606783865
1700516052765430300,10.31443017578125,-0.5308382302939891,-3.86792922809422,-0.28354389683715997
1700516052775442400,10.3244423828125,-2.0547019942760465,0.6547730913899839,0.5900224233316257
1700516052785452300,10.334452392578125,1.834914164969325,-0.34181071930155155,-0.9849356046043336
1700516052795461400,10.34446142578125,-0.24594810647964477,-4.199940584045648,1.2391764692634344
1700516052805471200,10.35447119140625,4.528965617662668,-2.448223465462029,0.0803530916640535
1700516052815481000,10.364481201171875,3.776044140601158,2.23591357082054,0.07423555863182991
1700516052825490200,10.374490234375,0.09166706082820891,-1.1515681823067367,0.4463174975564703
1700516052835500300,10.384500244140625,-1.877898735693097,-2.5109593230992555,-0.8174792163636535
1700516052845509400,10.39450927734375,5.102779066330194,-0.1274986179921776,-0.6805265413276851
1700516052855519200,10.404519287109375,3.173043175894022,1.7261213434256613,-1.296015085555613
1700516052865528300,10.4145283203125,-5.3232116232812405,-1.5979542515873908,1.1193193790003657
1700516052875538400,10.424538330078125,0.6010545068144798,-2.6792957821100947,-0.5887625229310244
1700516052885547500,10.434547607421875,3.91250252931416,4.440433639989793,-0.9941977923378348
1700516052895557400,10.444557373046875,-0.6789554926186799,-2.3285015458859504,1.253882747747004
1700516052905566200,10.454566162109375,-6.556566254523396,-3.4354204391270873,0.30678660606294866
1700516052915576300,10.464576416015625,2.962297315698862,0.7771656184148042,-0.7042861870996654
1700516052925586200,10.474586181640625,2.5668553978443143,-0.47556759397089476,-2.847485526126623
1700516052935595300,10.48459521484375,-4.808865678104758,-3.345557797372341,0.7088917811989783
1700516052945605400,10.49460546875,0.287861833101511,-3.0899133495256303,-0.038020445510372515
1700516052955614200,10.5046142578125,-1.7060212430745363,1.4835538192950188,-1.7952173837445675
1700516052965624300,10.514624267578125,-2.1264789442420002,-2.6024609642326832,0.4113329856758937
1700516052975633400,10.52463330078125,-0.09474807570874691,-3.0813401669695972,-0.112692532395944
1700516052985643300,10.534643310546874,1.5249620806127786,2.0827292343646286,-0.18836006005965172
1700516052995652000,10.544652099609374,1.2188590728998183,-3.2073259692460296,0.4528862084222957
1700516053005662200,10.554662109375,-1.1056991421878337,-1.5760262051567435,1.2195315653339027
1700516053015672300,10.56467236328125,-2.3548118990540505,-2.440671004255861,0.7750644814170896
1700516053025681200,10.57468115234375,4.942175247398018,4.217666210350394,-1.37063500386253
1700516053035691300,10.584691162109374,-1.9046049563109873,-3.8162767822682855,1.531416809710115
1700516053045700400,10.594700439453124,-1.8637515523970125,-2.4649866764754056,-0.6513059998013079
1700516053055710200,10.604710205078124,6.109677642548084,3.063304159541428,-0.14646350376829503
1700516053065719300,10.61471923828125,0.282775908139348,-1.8938452234961092,-0.645730756952241
1700516053075729400,10.6247294921875,-3.5067268489718435,-2.0533423963606356,-0.8145621598731726
1700516053085738200,10.63473828125,2.7684844701260327,-0.8722904915466904,-0.17949618746135382
1700516053095748000,10.644748046875,0.7643681692272424,1.9582406849086285,-2.63721195961833
1700516053105757200,10.654757080078125,-4.299698012349009,-2.7885727339088917,0.13567198757566512
1700516053115767300,10.664767333984376,-0.06335749666690826,-2.560707396608591,-0.6707602034643292
1700516053125776400,10.6747763671875,2.0037977364689112,2.6716458518788215,0.3722119219798595
1700516053135786200,10.6847861328125,-3.2112299909472464,-2.572775143282115,0.8254315636076033
1700516053145796400,10.69479638671875,-1.760698005157709,-3.8245740704923867,0.6528569555703551
1700516053155805400,10.704805419921875,-2.274798451140523,0.38197453351616856,0.4564018518604338
1700516053165815300,10.714815185546875,2.054065449938178,1.6455942469015716,-0.5623325619712471
1700516053175824400,10.724824462890625,0.9326099356919526,-4.241937605036795,0.6301839359913021
1700516053185834500,10.73483447265625,-0.12786299432516096,-1.5488411149807273,0.8211959718644618
1700516053195843300,10.74484326171875,0.3445943586707115,1.690616753193736,-1.2564745178058743
1700516053205853200,10.754853271484375,0.2902373300611973,-1.433669406054914,0.04423194043636322
1700516053215862300,10.7648623046875,-0.9184270965605974,-2.767007967832684,-0.6076812680104747
1700516053225872400,10.774872314453125,-0.2586959443718195,0.7220194121889769,1.9033695692971349
1700516053235881200,10.784881103515625,6.029402913349866,1.299883889812976,-1.2581389438867567
1700516053245891300,10.794891357421875,-6.640403060117364,-3.466984621170163,1.1468776133377103
1700516053255900400,10.804900390625,2.6885171994417902,-1.084372276520729,-0.5470952453508973
1700516053265910300,10.81491015625,1.4022189135193823,3.003121493518352,-1.5375249173268675
1700516053275920400,10.82492041015625,-2.8268337832421064,-2.768459920206666,0.8217707760777324
1700516053285929200,10.83492919921875,-1.7166005047559738,-2.9922049627065657,-1.2010448915287852
1700516053295939300,10.844939208984375,2.0027374137610194,1.1733128349944948,0.7378960496261715
1700516053305948200,10.8549482421875,1.3948480924904345,-1.2764384245567022,0.03961867448724806
1700516053315958300,10.864958251953125,-5.1874365406572815,-3.533993041560054,0.02608326641395688
1700516053325967400,10.87496728515625,1.2570844663977623,-0.5835227956466377,-0.46677430239077655
1700516053335977200,10.884977294921875,3.057735127237439,1.6269368927046655,-0.6205204009152948
1700516053345986300,10.894986328125,-0.20247487545609472,-1.9986207722224294,0.9465260136459023
1700516053355996400,10.904996337890625,2.175805577468872,-4.203438363033533,0.6404466060042381
1700516053366005200,10.915005126953124,-0.938685456213355,2.796796080113947,-0.29932116555310784
1700516053376015000,10.92501513671875,4.493404474937916,0.7055632212981581,-0.15904562970474362
1700516053386024200,10.935024169921874,-7.219941316172481,-3.059519672566652,0.32501046421341595
1700516053396034300,10.945034423828124,4.96688415671885,0.42539457304775713,0.20704035674072802
1700516053406043400,10.95504345703125,1.9949884070694446,1.261077627687156,-0.9014791766300797
1700516053416053200,10.96505322265625,-1.282861297211051,-1.2452473136097193,-0.071680321191065
1700516053426063400,10.9750634765625,3.2914936142295597,-3.4996064955726265,-0.702954865430668
1700516053436072400,10.985072509765626,-1.2935451883107423,2.632920399904251,-1.131130593629554
1700516053446082300,10.995082275390626,-0.09609832127392291,-0.8971716886945068,-0.004385156281664968
1700516053456091400,11.00509130859375,-4.669299386504292,-2.922904047465324,-0.02774162808023393
1700516053466101500,11.0151015625,2.758726461699605,-0.040540976963937284,1.3448932443626225
1700516053476110300,11.0251103515625,0.4385147513836622,0.09611556466966867,0.2046404559921473
1700516053486120200,11.0351201171875,-4.0276188547909255,-2.9580326439917086,1.630264137431234
1700516053496129300,11.04512939453125,-2.845202968147397,-3.8996757809668776,-0.5792495022416114
1700516053506139400,11.055139404296876,-0.9869102656781673,4.813098201107978,-0.26811379759106785
1700516053516148200,11.065148193359375,1.6550141094148159,-3.654511226080358,-0.33704346836712207
1700516053526158300,11.075158447265625,2.4151895031273365,-2.2639275130361316,-0.5267920967083424
1700516053536167400,11.08516748046875,0.7767553571134805,0.8719993996456264,-0.1297324779914692
1700516053546177300,11.09517724609375,0.6189584122955799,-1.2346964012399315,-1.5477558039620518
1700516053556186000,11.10518603515625,-1.2815776871412992,-0.7392214530110359,-0.07624781176969408
1700516053566196200,11.1151962890625,1.305008247089386,-3.0014468383044,0.2611936429390684
1700516053576205300,11.125205322265625,4.409645410755276,5.1016626295208924,-1.0839836425293237
1700516053586215200,11.135215087890625,0.8464362115830183,-1.6384936211161314,0.2613666248857975
1700516053596225300,11.145225341796875,-4.100408196669817,-4.501938202266395,0.1388042942520231
1700516053606234400,11.155234375,3.16224822563529,1.6309031659871338,0.09449636597000062
1700516053616244200,11.165244140625,2.2306167795866725,1.688426111281663,-1.174426714520529
1700516053626253300,11.17525341796875,-5.82182223918736,-2.522638362716138,2.9058254868924616
1700516053636263400,11.185263427734375,0.5337473957389592,-3.1492198172360655,0.19420918794665484
1700516053646272300,11.195272216796875,2.623692552831769,3.783081199631095,-1.7322089927762745
1700516053656282000,11.2052822265625,-3.690844814482331,-2.9283628973931073,0.668486267182976
1700516053666291200,11.215291259765625,0.11786182479262351,-3.993333723351359,-0.7200519845735281
1700516053676301300,11.22530126953125,-1.0449673178493977,0.6978202059559524,-0.46179355483613904
1700516053686310400,11.235310302734375,2.918613072273135,0.7215532559819519,-2.0436820030897853
1700516053696320300,11.2453203125,-1.3924088826447725,-3.4332179606467483,0.3371266896711662
1700516053706329300,11.255329345703124,-2.229005252736807,-0.2969184152603149,0.9004838819824159
1700516053716339500,11.26533935546875,1.2072013683319092,0.9499342877194284,-1.3028496077507734
1700516053726348300,11.275348388671874,1.6643687977373598,-0.3437681369796395,1.4093693697959184
1700516053736358400,11.2853583984375,0.7461299172252416,-3.6219638782188293,1.308008890210092
1700516053746367200,11.2953671875,-0.3800216458827257,2.816259782257676,-0.3624741891564801
1700516053756377300,11.30537744140625,6.712316788205504,0.0032863281942903996,-0.937736557990685
1700516053766386200,11.31538623046875,-7.106673833432793,-4.3481890715345735,0.36280502854604274
1700516053776392700,11.325392822265625,4.4573476576507085,0.2093707724496722,-0.02940086652934551
1700516053786401800,11.33540185546875,2.74569863782227,1.5220409324690698,-1.3658961387723683
1700516053796411600,11.34541162109375,-4.672451713055372,-1.9818429481618105,1.0513491278409957
1700516053806421800,11.355421875,0.5779302363365888,-3.3437492866456506,-1.3855433807894586
1700516053816430800,11.365430908203125,3.0525469109445806,3.3107559485822913,-0.7031110058404505
1700516053826440700,11.375440673828125,0.3731774790763855,-1.9830947017885743,0.19126798339560627
1700516053836449800,11.38544970703125,-6.078312782469392,-3.469024602565169,-0.5893679414782673
1700516053846460000,11.3954599609375,7.507571678605675,0.6707825614266097,-0.16980404734537005
1700516053856469000,11.405468994140625,3.2317332652717825,1.070672983122617,-0.9264357771016657
1700516053866478600,11.415478515625,-5.593828307071328,-1.545192237084359,1.491850815258175
1700516053876487700,11.42548779296875,3.316162191540003,-2.9787343634977934,0.2753739613197744
1700516053886497800,11.435497802734375,3.9701059924989934,3.708945119318366,-0.5804245373703539
1700516053896507000,11.4455068359375,-2.9914643734723327,-0.8201135834552347,1.421951495732367
1700516053906516700,11.455516845703125,-3.8813603720754384,-2.741724181233346,-0.7525393458761275
1700516053916525800,11.46552587890625,6.258647137787937,0.07144494153261184,0.03306643983218819
1700516053926536000,11.475535888671875,2.6169290500462052,1.2521221678152679,-1.5217989404067396
1700516053936544800,11.485544677734374,-8.094503552043438,-2.638280465632677,1.007321477805078
1700516053946555000,11.495554931640624,3.5594805340379474,-2.610931855458021,-0.6658785689026117
1700516053956563700,11.505563720703124,-0.293164031162858,2.1880307066611944,-1.6031832382820546
1700516053966573800,11.51557373046875,-1.283230130523443,-1.5042938249848783,0.03853285201191902
1700516053976582700,11.525582763671874,-1.2334510773539542,-4.313643535593152,-0.4027103379549458
1700516053986592800,11.5355927734375,-0.6984773546904325,1.5938345413088797,-0.2648686051247641
1700516053996601900,11.545601806640626,3.7572196131438016,-0.403319665492326,-0.3095558515805751
1700516054006611700,11.55561181640625,-3.868617210358381,-3.269033068357408,1.4888000493854283
1700516054016620800,11.565620849609376,0.6806827548027038,-0.8157993735179304,0.6636207069732248
1700516054026631000,11.575630859375,2.8958237328380343,2.4067644968703386,-0.8217131276063621
1700516054036639700,11.5856396484375,-1.8936533541858196,-1.0892844523511827,0.580934751914814
1700516054046649600,11.595649658203126,0.526951744249463,-3.415948845937848,-1.0660411586035043
1700516054056658700,11.60565869140625,-1.9176853871583937,4.198270312745869,-0.10394779266528785
1700516054066668800,11.615668701171876,5.519623253175616,-1.6342308491051196,-0.5344298981104045
1700516054076678700,11.6256787109375,-3.415434466674924,-2.8420646701216694,-0.3278264714822173
1700516054086687700,11.635687744140625,1.454402689743042,-2.0158394719183446,-0.6040257777102291
1700516054096697900,11.64569775390625,4.312552233225107,3.5915415596872564,-1.9408567116484046
1700516054106707000,11.65570703125,-4.923860423028469,-2.33716503707394,1.2294732597641647
1700516054116716800,11.665716796875,-1.1470768622368575,-3.382091876782477,-1.552214829197526
1700516054126726000,11.675725830078125,5.340728575271368,2.7190695740938184,-0.896007613351196
1700516054136736000,11.685736083984375,-1.3065274194806813,-0.8799651178278028,1.2062237554714084
1700516054146744800,11.695744873046875,-9.02539616242349,-3.3288980467334386,0.7423794055853039
1700516054156754700,11.705754638671875,5.312717701795697,-0.6397150768592953,-0.2510134635778144
1700516054166763800,11.715763671875,2.2835680330514907,1.2881897987574338,-0.9064424250606447
1700516054176774000,11.72577392578125,-6.577516688093542,-1.6634936223380266,2.1757477098017928
1700516054186782700,11.73578271484375,1.6275339818149803,-2.4764082341998814,-0.1629827499579638
1700516054196792800,11.745792724609375,0.8283850065857171,2.9721061775296924,-0.8588191616855562
1700516054206802000,11.755802001953125,0.6774088476985692,-1.2452388380423187,0.8632967454910278
1700516054216811800,11.765811767578125,-1.5517384438574313,-3.1292513804405924,-0.2199499610658735
1700516054226820600,11.775820556640625,-1.5019307491153477,3.0006884211525318,-0.047776590773276985
1700516054236830700,11.785830810546875,3.897679054191708,-1.2935060253441333,-1.369551592539996
1700516054246839800,11.79583984375,-1.7511749745309353,-2.4538380904734134,-0.8708358357589692
1700516054256849700,11.805849609375,1.438428875541687,-2.6212369763731953,-0.28379915023986246
1700516054266858800,11.815858642578124,-0.1667044738948345,4.0956987038046115,-1.6718452710978686
1700516054276868900,11.825868896484375,1.4301982228130101,-2.384152121437341,0.41885424802619964
1700516054286878000,11.8358779296875,-0.5592261203885078,-3.5436648330077527,-0.7716977083977311
1700516054296887800,11.8458876953125,3.650359074836969,2.446796793659776,1.4226969072721898
1700516054306896600,11.855896728515624,1.8082137895703314,0.4052341938767582,0.84514134946689
1700516054316906800,11.86590673828125,-9.291408567288517,-3.417198261477053,0.5836211414545774
1700516054326915800,11.875915771484374,2.4261609789967538,0.345013899257034,-0.6868021144658327
1700516054336925700,11.88592578125,-1.2479957355350255,2.475426237425208,-1.506469561588764
1700516054346934800,11.895934814453126,-5.916541088801622,-1.8793933581650255,0.3012392741341144
1700516054356945000,11.90594482421875,0.5853250227630138,-3.264795576918125,-1.3128075226634741
1700516054366953700,11.91595361328125,-2.016432761636376,2.5217341073527932,-1.134390106882155
1700516054376963800,11.9259638671875,1.8775024298518894,-0.6737726831533014,-1.0855337215155363
1700516054386973000,11.935972900390626,1.6459353154242038,-3.4245343034535645,0.41344975863415745
1700516054396982800,11.945982666015626,0.4837848026961088,0.6872013429164886,1.5646381113104522
1700516054406991600,11.95599169921875,4.204704437446594,0.10265095778778195,-0.7886398561745882
1700516054417001700,11.966001708984376,-3.30406317294538,-3.9544197630673645,1.8673514765851198
1700516054427010800,11.9760107421875,3.034731852790713,-1.9137521393626926,-0.2697537102852017
1700516054437020700,11.986020751953125,3.037678427636623,5.156763169974089,0.8330268410421907
1700516054447029800,11.99602978515625,-1.3778127865374088,-1.190528465950489,0.9694598761182278
1700516054457040000,12.006039794921875,-3.2779654396146536,-3.463942769256234,-1.8372540060937403
1700516054467049000,12.016049072265625,-0.2558241883277893,2.492825408254564,-2.1817729614406822
1700516054477058800,12.026058837890625,3.518359419098496,1.797173193987459,-2.0268597553655505
1700516054487067600,12.036067626953125,-8.024995716053247,-2.3723395185686647,-0.4823196985796094
1700516054497077800,12.046077880859375,1.6791642158091067,0.6133265438884496,-0.262713582515344
1700516054507087600,12.056087646484375,4.828841713684797,1.3925024061471223,-1.8544637918308375
1700516054517096700,12.0660966796875,-3.2330349955201148,-1.8802166572466492,1.374488902811706
1700516054527105800,12.076105712890625,-1.1449334204673767,-1.910368342143297,3.0285312445849177
1700516054537116000,12.086115966796875,3.2936744653999805,1.6435777925126254,-0.7629865056104957
1700516054547125800,12.096125732421875,0.006451368096470832,-1.6932471016973256,0.7181183130972087
1700516054557134800,12.106134765625,-5.69500144739151,-2.585087804627418,0.8629122762180864
1700516054567145000,12.11614501953125,3.40811157644093,-0.8522446056008338,0.39571309947874395
1700516054577153800,12.12615380859375,3.4890526605933903,0.4935181150726974,-2.2534353451162574
1700516054587163600,12.13616357421875,-6.9695461671561,-2.7053356477737425,0.8239999233692884
1700516054597172700,12.1461728515625,3.5409254711717364,-1.906632955007255,-1.3200021103426813
1700516054607182800,12.156182861328125,4.251198477596044,1.864902329867333,-1.824942659922689
1700516054617191700,12.166191650390624,-5.072110371822118,-0.4902656891480088,1.6502685223229228
1700516054627201800,12.176201904296875,-4.109188884496689,-2.9406308428138495,-0.966930649901554
1700516054637211000,12.1862109375,7.252125091418623,2.7902853830456733,-0.7088191543541849
1700516054647220700,12.196220703125,2.3837714515566826,-0.39351036527007816,-0.24274339215420185
1700516054657229800,12.206229736328124,-5.98100040923059,-0.9121639445126056,1.9952347830459474
1700516054667240000,12.216239990234374,6.052033847352862,-0.7935048318624496,0.4357258878501132
1700516054677248800,12.226248779296874,6.687126232847571,2.5713705371811986,-0.7065264403071254
1700516054687258600,12.236258544921874,-8.119582463720441,-1.5616874448113143,1.637630136154592
1700516054697267700,12.246267822265626,0.9542413372635841,-1.163430761796981,0.005611483206227421
1700516054707277800,12.25627783203125,4.878487495863437,2.490471246343851,-0.7142844340227544
1700516054717287000,12.266286865234376,-3.6181641936749216,-1.7271438183411956,1.0065668600454927
1700516054727296800,12.276296875,-6.343700333434343,-2.483980423019826,-0.06474551695920526
1700516054737305900,12.286305908203126,5.2867713596343995,1.7200307714655994,-0.9344932652205228
1700516054747316000,12.29631591796875,0.8886620728939771,-2.023948690224439,-2.017354844917357
1700516054757324800,12.30632470703125,-8.78221985874474,-1.2372595297262072,0.5219856462746858
1700516054767334700,12.316334716796876,3.63452320780158,-1.347766461711377,-0.051943391596525904
1700516054777344500,12.326344482421876,1.2219038474231958,1.1314992077462374,-0.36222452524434773
1700516054787354400,12.336354248046876,-3.826794669151306,-1.4681002295754848,2.5392142344638704
1700516054797363500,12.346363525390625,4.5682133399456735,-1.3284171797275544,0.3061866674084216
1700516054807373600,12.35637353515625,6.517442450881004,0.9969459220021962,-0.12401486752964555
1700516054817382700,12.366382568359375,0.21157588127851484,-1.0211910132035613,0.9953692472700029
1700516054827392500,12.376392578125,-4.275394176697731,-2.519419985191524,0.2996806830478832
1700516054837401600,12.386401611328125,2.052795283871889,2.3190201624438167,-0.03655767948143184
1700516054847411700,12.39641162109375,0.4671159919679165,0.42264995051473375,-1.451292594898492
1700516054857420500,12.406420654296875,-8.099372619384527,-0.48171135742291804,1.1247632505547254
1700516054867430400,12.416430419921875,1.6301017864763736,-1.677412111444771,-1.6971540460079908
1700516054877439500,12.426439453125,3.7967911605536937,2.66089737111032,-0.46894401111267503
1700516054887449600,12.43644970703125,-6.258663504400849,-2.2333491271600128,2.5036466619983315
1700516054897458400,12.44645849609375,-0.2563625329881906,-1.8627509970523415,-1.2283256971642373
1700516054907468500,12.456468505859375,1.7271949640065432,1.6145605184733867,-0.3484586328834295
1700516054917477600,12.4664775390625,-2.0118536171525716,-1.4345615325890482,2.4407787024140357
1700516054927487500,12.476487548828125,-2.0619646787554022,-3.0443641890108584,0.4735504819948226
1700516054937496600,12.48649658203125,4.614046285837889,1.8277146088540552,0.6469815607309342
1700516054947506700,12.496506591796875,3.990029421108961,-0.8915770835578442,-1.521694018727541
1700516054957515500,12.506515625,-3.6480110504060983,-1.9276722359046339,0.685782269898802
1700516054967525400,12.516525390625,0.8370920446544885,-0.28312267575040456,0.07150960426665842
1700516054977534500,12.526534423828124,1.9063181899696588,3.566768060697615,-1.6490037630841134
1700516054987544600,12.536544677734375,-0.3482452823936939,-1.2001695699989794,0.3883483793970197
1700516054997553700,12.5465537109375,0.49881929022073745,-1.7803848485328255,0.24538294687755405
1700516055007563500,12.5565634765625,3.6888276294410227,4.225185792200267,0.6397798126585781
1700516055017572600,12.566572509765624,-1.2314508434474467,-1.474624078386277,1.559978448936343
1700516055027582700,12.576582763671874,-6.363751772338151,-2.803486225402355,0.363604654491134
1700516055037591600,12.586591552734374,2.9411154114603995,2.6993308544009924,0.7399180569730699
1700516055047601400,12.596601318359374,0.46015901243686674,-0.6507895747117698,-0.8926814646031707
1700516055057610500,12.606610595703126,-5.357049010953307,-1.735726499377936,0.9722392046384513
