time,seconds_elapsed,z,y,x
1700516042470596900,0.019596923828125,-0.00033396040089428425,-0.00905661191791296,0.006097307428717613
1700516042480605700,0.029605712890625,0.026618294417858124,0.0057156761176884174,0.19263362884521484
1700516042490614500,0.039614501953125,-0.028669727966189384,0.04006406292319298,0.17055575549602509
1700516042500624600,0.049624755859375,0.019812587648630142,-0.04652941972017288,-0.04059296473860741
1700516042510633700,0.0596337890625,-0.03317313268780708,0.0497417226433754,-0.23045344650745392
1700516042520643600,0.0696435546875,0.007897604256868362,-0.10640233755111694,-0.14674443006515503
1700516042530652700,0.079652587890625,0.04568732529878616,-0.004236556589603424,0.009909622371196747
1700516042540661800,0.089661865234375,-0.020663999021053314,-0.023093601688742638,-0.09649218618869781
1700516042550672000,0.099671875,-0.02707049995660782,0.0999407097697258,0.03409644961357117
1700516042560680700,0.1096806640625,0.009052351117134094,-0.019331352785229683,0.11615882813930511
1700516042570689800,0.119689697265625,0.0345182940363884,0.04083957523107529,0.17131155729293823
1700516042580699600,0.12969970703125,-0.027333088219165802,0.04127420112490654,0.0339859314262867
1700516042590708700,0.139708740234375,0.024142354726791382,-0.0903855562210083,-0.1619979590177536
1700516042600717800,0.1497177734375,-0.03755376860499382,0.005313538946211338,-0.15742318332195282
1700516042610727700,0.159727783203125,0.002763562137261033,0.01047421246767044,0.005322593729943037
1700516042620736500,0.169736572265625,0.06269720196723938,-0.021830463781952858,0.11283174157142639
1700516042630746600,0.17974658203125,-0.03975912928581238,-0.0018679412314668298,-0.10799144953489304
1700516042640755700,0.189755615234375,-0.01967383548617363,0.06012485548853874,0.00711596617475152
1700516042650764800,0.199764892578125,0.012987437658011913,-0.0006918892613612115,0.06734947860240936
1700516042660774700,0.209774658203125,0.02359001524746418,0.03178296238183975,0.11904889345169067
1700516042670783700,0.21978369140625,-0.031194670125842094,0.03381761908531189,0.007735151331871748
1700516042680792800,0.229792724609375,0.03909999877214432,-0.07543110847473145,-0.12885358929634094
1700516042690802700,0.239802734375,-0.05251460522413254,0.054719436913728714,-0.15271736681461334
1700516042700811500,0.2498115234375,0.015361378900706768,-0.028663868084549904,-0.0375087596476078
1700516042710821600,0.259821533203125,0.0612788051366806,-0.05519987270236015,0.09741257131099701
1700516042720830700,0.269830810546875,-0.035837892442941666,0.03521684184670448,-0.08648721873760223
1700516042730839800,0.27983984375,-0.01417440827935934,0.07375464588403702,0.015209312550723553
1700516042740849700,0.289849609375,0.002703907433897257,-0.016324644908308983,0.052916478365659714
1700516042750858800,0.299858642578125,0.03970400243997574,-0.0026138925459235907,0.13225418329238892
1700516042760867600,0.30986767578125,-0.03154940530657768,0.07832889258861542,0.039257656782865524
1700516042770877400,0.31987744140625,0.03428446874022484,-0.08835356682538986,-0.12247638404369354
1700516042780886500,0.329886474609375,-0.05588030815124512,0.051959604024887085,-0.1546148806810379
1700516042790895000,0.33989501953125,0.01629854552447796,-0.019541211426258087,-0.023188143968582153
1700516042800905200,0.3499052734375,0.0675838366150856,-0.05639030411839485,0.10718531161546707
1700516042810914300,0.359914306640625,-0.04188992455601692,0.06064204126596451,-0.10847800970077515
1700516042820924200,0.369924072265625,-0.013803429901599884,0.06318349391222,-0.002448244020342827
1700516042830933200,0.379933349609375,0.0014751249691471457,-0.027829766273498535,0.0542062483727932
1700516042840942300,0.3899423828125,0.02954191341996193,0.03556598350405693,0.1348840445280075
1700516042850952400,0.399952392578125,-0.024204405024647713,0.06157121807336807,0.03653910383582115
1700516042860961500,0.40996142578125,0.027846811339259148,-0.10202756524085999,-0.13623373210430145
1700516042870970400,0.419970458984375,-0.04970630258321762,0.074605792760849,-0.14783845841884613
1700516042880980200,0.429980224609375,0.02346724271774292,-0.015593074262142181,0.01002307329326868
1700516042890989300,0.4399892578125,0.05772028863430023,-0.06548260152339935,0.09769220650196075
1700516042900999400,0.44999951171875,-0.04651184007525444,0.05225308611989021,-0.1120157539844513
1700516042911008300,0.46000830078125,-0.012575979344546795,0.057141583412885666,0.025014540180563927
1700516042921017300,0.470017333984375,0.010008691810071468,-0.027002323418855667,0.0911024808883667
1700516042931027500,0.48002734375,0.022059496492147446,0.06877586990594864,0.17513826489448547
1700516042941036300,0.490036376953125,-0.014540593139827251,0.013392770662903786,0.008861402049660683
1700516042951045400,0.50004541015625,0.01642690971493721,-0.10503427684307098,-0.13544172048568726
1700516042961055200,0.51005517578125,-0.046960849314928055,0.05931738391518593,-0.11760971695184708
1700516042971064300,0.520064208984375,0.03196219354867935,0.01847115345299244,0.04254905879497528
1700516042981073400,0.530073486328125,0.05311914533376694,-0.10958828032016754,0.03385969623923302
1700516042991083300,0.540083251953125,-0.042578354477882385,0.04735606536269188,-0.16140487790107727
1700516043001092400,0.55009228515625,-0.004087952431291342,0.020592626184225082,-0.00672235107049346
1700516043011102500,0.5601025390625,0.013583719730377197,-0.04757923632860184,0.07116153091192245
1700516043021111300,0.570111328125,0.018140921369194984,0.09519735723733902,0.18520580232143402
1700516043031120400,0.580120361328125,-0.007005178835242987,-0.03398246690630913,0.00452710734680295
1700516043041130200,0.590130126953125,0.008157528936862946,-0.06160983443260193,-0.12943042814731598
1700516043051139300,0.600139404296875,-0.04638640582561493,0.042155977338552475,-0.11829015612602234
1700516043061148400,0.6101484375,0.05670349299907684,0.02467232383787632,0.06531082838773727
1700516043071158500,0.620158447265625,0.028534172102808952,-0.11177979409694672,-0.03723365440964699
1700516043081167000,0.6301669921875,-0.04134264588356018,0.03575826436281204,-0.13107545673847198
1700516043091177200,0.64017724609375,-0.00535348616540432,-0.0007193197961896658,0.0428614467382431
1700516043101186300,0.650186279296875,0.026742132380604744,-0.02809208817780018,0.13170823454856873
1700516043111195400,0.6601953125,0.01744716800749302,0.12237677723169327,0.15191416442394257
1700516043121205200,0.670205322265625,-0.01637418009340763,-0.13564011454582214,-0.08353856950998306
1700516043131214300,0.68021435546875,0.014731807634234428,0.11398489028215408,0.03478061780333519
1700516043141223400,0.690223388671875,-0.039499737322330475,0.018088456243276596,0.12790895998477936
1700516043151233500,0.700233642578125,0.044978126883506775,-0.0007352987886406481,0.06016666814684868
1700516043161242400,0.710242431640625,0.002407231368124485,-0.14564189314842224,-0.3041905164718628
1700516043171252200,0.720252197265625,-0.012517389841377735,0.2021019607782364,0.20558644831180573
1700516043181261300,0.73026123046875,0.00025300029665231705,-0.03755403310060501,0.12423886358737946
1700516043191270400,0.7402705078125,0.004994492046535015,0.08294681459665298,0.20657874643802643
1700516043201280300,0.7502802734375,-0.012552010826766491,-0.07354851812124252,-0.052134040743112564
1700516043211289300,0.760289306640625,0.03203436732292175,0.043544281274080276,-0.20161834359169006
1700516043221298400,0.77029833984375,-0.00341603672131896,-0.09632626920938492,-0.011738681234419346
1700516043231308300,0.780308349609375,-0.004882373381406069,0.06810874491930008,0.1614149957895279
1700516043241317400,0.7903173828125,0.012336826883256435,-0.049967825412750244,0.008106661960482597
1700516043251327200,0.8003271484375,0.002436792477965355,-0.15140549838542938,-0.41278356313705444
1700516043261336300,0.81033642578125,-0.007731156423687935,0.1972654014825821,0.12427880614995956
1700516043271345400,0.820345458984375,0.003486610483378172,-0.0834411010146141,0.05918928608298302
1700516043281355300,0.830355224609375,-0.0004601942200679332,0.04554324969649315,0.19096596539020538
1700516043291364400,0.8403642578125,-0.03469912335276604,-0.038187865167856216,-0.012531504034996033
1700516043301373200,0.850373291015625,0.03515186160802841,-0.14435212314128876,-0.3340546786785126
1700516043311383300,0.86038330078125,-0.018543057143688202,0.2138606160879135,-0.07135380804538727
1700516043321392400,0.870392333984375,0.009081912226974964,-0.11710238456726074,0.13207174837589264
1700516043331402200,0.88040234375,0.018863435834646225,0.061110492795705795,0.11655084788799286
1700516043341411300,0.890411376953125,-0.011019627563655376,-0.0713716521859169,-0.22629038989543915
1700516043351420400,0.90042041015625,-0.0031252196058630943,0.01738378405570984,-0.12557843327522278
1700516043361430500,0.910430419921875,-0.0043715788051486015,-0.0320090651512146,0.021377461031079292
1700516043371439400,0.920439453125,0.04440687969326973,0.05457349494099617,0.16232793033123016
1700516043381449200,0.93044921875,-0.04199405387043953,0.07957471907138824,0.09712415188550949
1700516043391458300,0.940458251953125,0.03597690910100937,-0.1438828706741333,-0.13841193914413452
1700516043401467400,0.95046728515625,-0.03804139047861099,0.021836057305336,-0.18574562668800354
1700516043411477200,0.960477294921875,-0.0011062771081924438,-0.008884038776159286,-0.039208121597766876
1700516043421486300,0.970486328125,0.05528216436505318,0.011726164259016514,0.10060623288154602
1700516043431495400,0.980495361328125,-0.028802886605262756,-0.046848997473716736,-0.10919705778360367
1700516043441505500,0.990505615234375,-0.017963554710149765,0.06862806528806686,0.014757374301552773
1700516043451514400,1.000514404296875,0.001883387565612793,0.021806228905916214,0.0703125149011612
1700516043461524200,1.010524169921875,0.03181811794638634,-0.013262541964650154,0.10784737020730972
1700516043471533300,1.020533203125,-0.02870727889239788,0.09731776267290115,0.01194081548601389
1700516043481542400,1.03054248046875,0.028174113482236862,-0.14510925114154816,-0.12840217351913452
1700516043491552300,1.04055224609375,-0.041549574583768845,0.04794036224484444,-0.10743777453899384
1700516043501561300,1.050561279296875,0.0034647725988179445,0.019167834892868996,0.02347389981150627
1700516043511571500,1.060571533203125,0.06018690764904022,-0.027604462578892708,0.10992144048213959
1700516043521580500,1.07058056640625,-0.03538009524345398,-0.016687633469700813,-0.15581516921520233
1700516043531589400,1.08058935546875,-0.012480105273425579,0.06340134143829346,-0.041299767792224884
1700516043541599200,1.09059912109375,0.005744970869272947,-0.017128920182585716,0.03734870254993439
1700516043551608300,1.1006083984375,0.02972380630671978,0.016986707225441933,0.1318642944097519
1700516043561617400,1.110617431640625,-0.028311798349022865,0.08465763181447983,0.056952763348817825
1700516043571627300,1.120627197265625,0.02629338949918747,-0.13231302797794342,-0.10285873711109161
1700516043581636400,1.13063623046875,-0.05240195617079735,0.07168883085250854,-0.11458516865968704
1700516043591646500,1.140646484375,0.02105255424976349,0.041800711303949356,0.047094542533159256
1700516043601655300,1.1506552734375,0.05638338252902031,-0.09873616695404053,0.07054793834686279
1700516043611664400,1.160664306640625,-0.04415121674537659,0.025787921622395515,-0.19331486523151398
1700516043621674200,1.17067431640625,-0.010092847980558872,0.13214285671710968,0.011997806839644909
1700516043631683300,1.180683349609375,0.013814881443977356,-0.08766700327396393,0.09397044032812119
1700516043641693400,1.190693359375,0.019242936745285988,0.0712701827287674,0.12904347479343414
1700516043651702500,1.20070263671875,-0.025523735210299492,0.04753316566348076,0.0011638014111667871
1700516043661711400,1.21071142578125,0.031149130314588547,-0.12995053827762604,-0.1402689665555954
1700516043671721500,1.220721435546875,-0.05427788570523262,0.10860397666692734,-0.1266588717699051
1700516043681730300,1.230730224609375,0.04388223588466644,0.012983709573745728,0.1377783715724945
1700516043691739400,1.240739501953125,0.025253957137465477,-0.1722271591424942,0.05681800842285156
1700516043701749200,1.250749267578125,-0.034388333559036255,0.11371085047721863,-0.21482308208942413
1700516043711758300,1.26075830078125,-0.023738352581858635,0.19950512051582336,0.11349700391292572
1700516043721768400,1.2707685546875,0.028780249878764153,-0.20592014491558075,0.12088514119386673
1700516043731777500,1.280777587890625,0.0015595471486449242,0.16388720273971558,0.1328802853822708
1700516043741786400,1.290786376953125,-0.026012692600488663,-0.08623049408197403,-0.0988626629114151
1700516043751796200,1.300796142578125,0.02688674069941044,-0.050022952258586884,-0.15681970119476318
1700516043761805300,1.310805419921875,-0.0527723990380764,0.11157339811325073,0.03164874017238617
1700516043771815400,1.3208154296875,0.04234426096081734,-0.07138310372829437,0.13487686216831207
1700516043781824500,1.330824462890625,0.0024058998096734285,-0.04632009565830231,-0.06364209204912186
1700516043791833600,1.34083349609375,-0.0004213120846543461,0.07967405766248703,-0.200354665517807
1700516043801843700,1.35084375,-0.02257641591131687,-0.11945448815822601,0.18774832785129547
1700516043811852500,1.3608525390625,0.04141002520918846,0.15685805678367615,0.13031406700611115
1700516043821862400,1.3708623046875,-0.012913135811686516,0.030672159045934677,0.12368092685937881
1700516043831871500,1.38087158203125,-0.005503954831510782,-0.1987953931093216,-0.2058439701795578
1700516043841880600,1.390880615234375,0.009735983796417713,0.2791149914264679,-0.07162731140851974
1700516043851890700,1.400890625,-0.030225280672311783,-0.08026926964521408,0.08517508208751678
1700516043861899500,1.4108994140625,0.03747520223259926,-0.01882988028228283,0.1586543619632721
1700516043871909600,1.42090966796875,0.0006061354652047157,-0.07773634046316147,-0.1770261824131012
1700516043881918500,1.43091845703125,0.014133661985397339,0.30941537022590637,-0.11071000248193741
1700516043891927600,1.440927490234375,-0.016268718987703323,-0.37461063265800476,0.12246838957071304
1700516043901937400,1.4509375,0.04205184429883957,0.3099496066570282,0.17968374490737915
1700516043911946500,1.460946533203125,-0.025056084617972374,-0.0590425468981266,0.0683918371796608
1700516043921956600,1.47095654296875,-0.001743305241689086,-0.188437819480896,-0.2607756555080414
1700516043931965700,1.480965576171875,0.009295497089624405,0.1937207281589508,-0.05572691187262535
1700516043941974500,1.490974609375,-0.024535968899726868,0.046248987317085266,0.15462632477283478
1700516043951984600,1.500984619140625,0.028319522738456726,-0.06913166493177414,0.16329358518123627
1700516043961993500,1.510993408203125,0.001193096162751317,-0.07178231328725815,-0.23506684601306915
1700516043972003600,1.521003662109375,0.008585498668253422,0.44122880697250366,0.0055122110061347485
1700516043982012400,1.531012451171875,-0.022157765924930573,-0.44504937529563904,0.07526865601539612
1700516043992022500,1.5410224609375,0.031493742018938065,0.2572499215602875,0.15634965896606445
1700516044002031600,1.551031494140625,-0.03788719326257706,-0.07690516859292984,0.058404453098773956
1700516044012040700,1.561040771484375,0.022911973297595978,-0.18075886368751526,-0.2803429663181305
1700516044022050600,1.571050537109375,-0.0007723167072981596,0.15716005861759186,-0.07077483832836151
1700516044032059400,1.581059326171875,-0.01486283540725708,0.04152959957718849,0.18419992923736572
1700516044042069500,1.591069580078125,0.026862772181630135,-0.07207046449184418,0.15229099988937378
1700516044052078600,1.60107861328125,0.0034581145737320185,-0.05589548870921135,-0.2783360183238983
1700516044062087400,1.61108740234375,0.0006436860421672463,0.4521610736846924,0.04585537314414978
1700516044072097500,1.62109765625,-0.01623542793095112,-0.44565603137016296,0.08996743708848953
1700516044082106600,1.631106689453125,0.030226079747080803,0.26479172706604004,0.1553879976272583
1700516044092116500,1.641116455078125,-0.046373624354600906,-0.1001143530011177,0.03937190771102905
1700516044102125600,1.65112548828125,0.023316241800785065,-0.17225778102874756,-0.29411232471466064
1700516044112134400,1.661134521484375,0.006380667444318533,0.1056143119931221,-0.10221158713102341
1700516044122144500,1.67114453125,-0.019751068204641342,0.06461654603481293,0.20292195677757263
1700516044132153600,1.681153564453125,0.021570272743701935,-0.09505860507488251,0.14983609318733215
1700516044142163500,1.69116357421875,0.0029635655228048563,-0.046713974326848984,-0.2820228934288025
1700516044152172500,1.701172607421875,0.003742273896932602,0.45277467370033264,0.05592132359743118
1700516044162181600,1.711181640625,-0.012566125951707363,-0.42918333411216736,0.09111606329679489
1700516044172191700,1.721191650390625,0.028428444638848305,0.2702099084854126,0.15834836661815643
1700516044182200300,1.731200439453125,-0.048525724560022354,-0.10103899985551834,0.08274388313293457
1700516044192210400,1.74121044921875,0.02731417864561081,-0.20589058101177216,-0.3241264224052429
1700516044202219500,1.751219482421875,-0.009619071148335934,0.23440052568912506,-0.073698990046978
1700516044212229400,1.7612294921875,-0.013438843190670013,-0.012316587381064892,0.20457923412322998
1700516044222238500,1.771238525390625,0.030341926962137222,-0.06490549445152283,0.13117745518684387
1700516044232247600,1.78124755859375,0.007320763543248177,-0.04424655809998512,-0.3136623203754425
1700516044242257700,1.791257568359375,-0.007196393795311451,0.42867305874824524,0.087606281042099
1700516044252266800,1.801266845703125,-0.0036099147982895374,-0.396823525428772,0.09319013357162476
1700516044262276600,1.811276611328125,0.025251559913158417,0.2557087242603302,0.15877260267734528
1700516044272285400,1.821285400390625,-0.05096757784485817,-0.11946141719818115,0.052800629287958145
1700516044282294500,1.83129443359375,0.028599154204130173,-0.17920570075511932,-0.32390910387039185
1700516044292304600,1.8413046875,-0.004399808589369059,0.14398087561130524,-0.08961856365203857
1700516044302313500,1.8513134765625,-0.016108928248286247,-0.0017547567840665579,0.22086979448795319
1700516044312323600,1.861323486328125,0.02101047709584236,-0.05812269076704979,0.13522440195083618
1700516044322332700,1.871332763671875,0.008986038155853748,-0.057980477809906006,-0.3402068316936493
1700516044332342500,1.881342529296875,-0.006464290898293257,0.4063264727592468,0.11244504898786545
1700516044342351400,1.891351318359375,-0.0022514364682137966,-0.3008866012096405,0.1321047693490982
1700516044352360400,1.9013603515625,0.02527686022222042,0.2491174191236496,0.17979080975055695
1700516044362370600,1.91137060546875,-0.05210927501320839,-0.1327894777059555,0.05475379154086113
1700516044372379600,1.921379638671875,0.0395364910364151,-0.14796122908592224,-0.3495500087738037
1700516044382389500,1.931389404296875,-0.011649465188384056,0.07799147069454193,-0.08750827610492706
1700516044392398600,1.941398681640625,-0.007896538823843002,-0.030651919543743134,0.2330486923456192
1700516044402407700,1.95140771484375,0.017616810277104378,-0.06361279636621475,0.08905503898859024
1700516044412417500,1.96141748046875,0.005788912996649742,-0.06524531543254852,-0.4139721393585205
1700516044422426400,1.97142626953125,-0.018267687410116196,0.18168483674526215,0.13068504631519318
1700516044432436500,1.9814365234375,0.0033449302427470684,-0.11687468737363815,0.17799769341945648
1700516044442445600,1.991445556640625,0.03074832446873188,0.20712442696094513,0.19067327678203583
1700516044452455400,2.001455322265625,-0.056887250393629074,-0.16797834634780884,-0.017842380329966545
1700516044462464500,2.011464599609375,0.05772508308291435,0.03731141984462738,-0.28790077567100525
1700516044472473600,2.0214736328125,-0.012575712986290455,-0.007677893154323101,-0.08619160950183868
1700516044482483700,2.031483642578125,0.0012519520241767168,-0.0388864129781723,0.23012694716453552
1700516044492492500,2.041492431640625,-0.002924150787293911,-0.06144791468977928,0.07162678241729736
1700516044502502400,2.05150244140625,0.008704808540642262,-0.08400728553533554,-0.4413294792175293
1700516044512511500,2.061511474609375,-0.017295632511377335,0.1291974037885666,0.12258530408143997
1700516044522521600,2.071521484375,-0.00098190747667104,-0.07091359049081802,0.1957777589559555
1700516044532530400,2.081530517578125,0.025709357112646103,0.20855826139450073,0.21273569762706757
1700516044542539500,2.09153955078125,-0.05320729315280914,-0.18080759048461914,-0.019706593826413155
1700516044552549600,2.101549560546875,0.0592191144824028,0.0839202031493187,-0.30116942524909973
1700516044562558700,2.111558837890625,-0.02647901140153408,-0.023577231913805008,-0.0542624406516552
1700516044572568600,2.121568603515625,0.01858779974281788,-0.07089813798666,0.2374034970998764
1700516044582577400,2.131577392578125,0.0036932716611772776,-0.04748416319489479,0.02882978320121765
1700516044592587500,2.14158740234375,0.005941512528806925,-0.009237973019480705,-0.4458736181259155
1700516044602596600,2.1515966796875,-0.01224627997726202,-0.09964563697576523,0.10478926450014114
1700516044612605700,2.161605712890625,0.0012934972764924169,0.03634842112660408,0.1820792555809021
1700516044622615600,2.171615478515625,0.022175610065460205,0.13056732714176178,0.20431478321552277
1700516044632624600,2.181624755859375,-0.052559882402420044,-0.18565961718559265,-0.10531710088253021
1700516044642634800,2.191634765625,0.05092629790306091,0.16095399856567383,-0.22722835838794708
1700516044652643300,2.201643310546875,-0.02436099946498871,-0.005723665934056044,-0.0003563309437595308
1700516044662653400,2.2116533203125,0.023998809978365898,-0.0518253818154335,0.21514825522899628
1700516044672662500,2.22166259765625,-0.006995591334998608,-0.06770900636911392,-0.010476609691977501
1700516044682671600,2.231671630859375,0.019716979935765266,0.040045954287052155,-0.41773706674575806
1700516044692681500,2.241681396484375,-0.017008544877171516,-0.1745113581418991,0.09848742187023163
1700516044702690600,2.251690673828125,0.003981159534305334,0.07002435624599457,0.1985597014427185
1700516044712700700,2.26170068359375,0.01714569702744484,0.11685258150100708,0.20885388553142548
1700516044722709800,2.271709716796875,-0.040335703641176224,-0.19126476347446442,-0.10240306705236435
1700516044732719600,2.2817197265625,0.048886582255363464,0.18367022275924683,-0.22551114857196808
1700516044742728400,2.291728515625,-0.031914256513118744,-0.006252569612115622,0.014602112583816051
1700516044752738600,2.301738525390625,0.03399018943309784,-0.058151185512542725,0.21489685773849487
1700516044762747600,2.31174755859375,-0.002572879893705249,-0.0668725073337555,-0.012177038006484509
1700516044772760800,2.3217607421875,0.013339507393538952,0.027230555191636086,-0.4241834878921509
1700516044782771000,2.33177099609375,-0.014163755811750889,-0.15767085552215576,0.0999138131737709
1700516044792779800,2.34177978515625,0.009423595853149891,0.06863045692443848,0.19020216166973114
1700516044802789600,2.35178955078125,0.011841746047139168,0.10040996223688126,0.1845187097787857
1700516044812798700,2.361798828125,-0.04104996472597122,-0.15861201286315918,-0.0532405860722065
1700516044822808800,2.371808837890625,0.06071021780371666,0.00036378781078383327,-0.37149578332901
1700516044832818000,2.38181787109375,-0.022420886904001236,-0.017016533762216568,-0.09298666566610336
1700516044842827800,2.391827880859375,0.024768728762865067,-0.0694696232676506,0.2022167444229126
1700516044852836900,2.4018369140625,0.015630358830094337,-0.023570839315652847,0.0940849557518959
1700516044862846000,2.411845947265625,0.000015446334145963192,-0.03325862064957619,-0.3476264178752899
1700516044872855800,2.421855712890625,0.014337926171720028,0.30388665199279785,0.021326594054698944
1700516044882864600,2.43186474609375,-0.013674000278115273,-0.38002002239227295,0.008864331990480423
1700516044892874800,2.441874755859375,0.04464523121714592,0.21790249645709991,0.1555808037519455
1700516044902883800,2.4518837890625,-0.04976675659418106,-0.042807918041944504,0.07651448249816895
1700516044912893700,2.461893798828125,0.035895682871341705,-0.159895122051239,-0.19655832648277283
1700516044922902800,2.47190283203125,-0.01056502666324377,0.04663541167974472,-0.31242260336875916
1700516044932913000,2.481912841796875,0.01865491084754467,0.16135907173156738,-0.030789604410529137
1700516044942922000,2.491921875,0.07815258949995041,-0.17317791283130646,0.21745695173740387
1700516044952931800,2.501931884765625,-0.05168316885828972,0.0003456783015280962,-0.026563966646790504
1700516044962940700,2.511940673828125,0.005459746345877647,0.12744690477848053,-0.07572059333324432
1700516044972949800,2.52194970703125,-0.022997727617621422,-0.11869735270738602,-0.035118572413921356
1700516044982959900,2.5319599609375,0.03891996666789055,-0.09677820652723312,0.007676561828702688
1700516044992968700,2.54196875,-0.024156467989087105,0.1911822110414505,0.07073862105607986
1700516045002978800,2.551978759765625,0.0352029949426651,-0.17399123311042786,-0.012952550314366817
1700516045012988000,2.56198779296875,-0.025620941072702408,0.048890043050050735,-0.04312616586685181
1700516045022997800,2.571997802734375,-0.02058117464184761,0.04917819797992706,-0.04842132702469826
1700516045033006800,2.5820068359375,0.08534739166498184,-0.07496318966150284,0.1135643795132637
1700516045043017000,2.592016845703125,-0.02682948298752308,-0.048765409737825394,-0.08687178045511246
1700516045053025800,2.60202587890625,-0.017230918630957603,0.08406640589237213,-0.07995422184467316
1700516045063035600,2.61203564453125,-0.010742925107479095,-0.0667974054813385,0.04250485077500343
1700516045073044700,2.622044677734375,0.03556092455983162,-0.0872797742486,0.12232804298400879
1700516045083053800,2.6320537109375,-0.03152783215045929,0.20258933305740356,0.1416865587234497
1700516045093064000,2.64206396484375,0.02480281889438629,-0.18756669759750366,-0.060565076768398285
1700516045103072800,2.65207275390625,-0.02558179199695587,0.02327629365026951,-0.1386505514383316
1700516045113083000,2.662082763671875,-0.02604598179459572,0.0443916991353035,-0.11174596846103668
1700516045123091700,2.672091796875,0.07968177646398544,-0.059302207082509995,0.07137644290924072
1700516045133101800,2.682101806640625,-0.03647944703698158,-0.061648715287446976,-0.10023685544729233
1700516045143110700,2.692110595703125,-0.019230153411626816,0.10354609787464142,-0.0713530108332634
1700516045153120800,2.702120849609375,-0.015428224578499794,-0.047683898359537125,0.038962312042713165
1700516045163129900,2.7121298828125,0.036614470183849335,-0.07298659533262253,0.09841977804899216
1700516045173139700,2.7221396484375,-0.03316487744450569,0.18334293365478516,0.10263742506504059
1700516045183148800,2.732148681640625,0.022374015301465988,-0.15796352922916412,-0.09225962311029434
1700516045193159000,2.742158935546875,-0.01991591788828373,0.018278872594237328,-0.12518800795078278
1700516045203168000,2.75216796875,-0.024987908080220222,0.04144517704844475,-0.07508223503828049
1700516045213177600,2.762177490234375,0.07364705950021744,-0.012717393226921558,0.11148498207330704
1700516045223186700,2.772186767578125,-0.03013925999403,-0.06953060626983643,-0.06897453963756561
1700516045233196800,2.78219677734375,-0.017618408426642418,0.11378781497478485,-0.03377047926187515
1700516045243206000,2.792205810546875,-0.013969877734780312,-0.03562324121594429,0.06715400516986847
1700516045253214700,2.802214599609375,0.04362018033862114,-0.04916514828801155,0.12416215986013412
1700516045263224800,2.812224853515625,-0.03521551191806793,0.17040076851844788,0.1070079430937767
1700516045273234000,2.82223388671875,0.026510702446103096,-0.1360774040222168,-0.08294734358787537
1700516045283243800,2.832243896484375,-0.024631842970848083,0.032523855566978455,-0.11649012565612793
1700516045293252600,2.842252685546875,-0.01690121926367283,0.03627651557326317,-0.06582827866077423
1700516045303262700,2.8522626953125,0.07356370240449905,-0.02918718010187149,0.10639195144176483
1700516045313271800,2.862271728515625,-0.03314037621021271,-0.041680335998535156,-0.09771057963371277
1700516045323281700,2.87228173828125,-0.014517423696815968,0.11891014128923416,-0.055029164999723434
1700516045333290800,2.882290771484375,-0.014356834813952446,-0.05952591076493263,0.028671592473983765
1700516045343300900,2.89230078125,0.04686763882637024,-0.04633127897977829,0.11525841802358627
1700516045353310000,2.90231005859375,-0.03706267848610878,0.16059499979019165,0.1122136265039444
1700516045363319800,2.91231982421875,0.02780207060277462,-0.14474573731422424,-0.08298409730195999
1700516045373328600,2.92232861328125,-0.03520645573735237,0.05512849986553192,-0.13394342362880707
1700516045383338800,2.9323388671875,-0.01581518165767193,0.004766525700688362,-0.09301596134901047
1700516045393347800,2.942347900390625,0.08181337267160416,-0.07156260311603546,0.08895064145326614
1700516045403357700,2.952357666015625,-0.042336005717515945,-0.006404369603842497,-0.09378241747617722
1700516045413366800,2.96236669921875,-0.012899287045001984,0.10505664348602295,-0.02382037788629532
1700516045423377000,2.972376953125,-0.012497415766119957,-0.06513932347297668,0.0488455705344677
1700516045433385700,2.9823857421875,0.04391872137784958,-0.047203466296195984,0.14833994209766388
1700516045443395800,2.992395751953125,-0.03734603896737099,0.14198030531406403,0.09449508041143417
1700516045453405000,3.002405029296875,0.029289977625012398,-0.1427193284034729,-0.09270383417606354
1700516045463414800,3.012414794921875,-0.036619529128074646,0.035530298948287964,-0.13265764713287354
1700516045473423600,3.022423583984375,0.0020543625578284264,-0.0021467742044478655,-0.07248777896165848
1700516045483433700,3.032433837890625,0.07255782186985016,-0.06860942393541336,0.09740911424160004
1700516045493442800,3.04244287109375,-0.04132480174303055,-0.01413632556796074,-0.08637270331382751
1700516045503452700,3.05245263671875,-0.012557337060570717,0.1106327697634697,-0.00586587842553854
1700516045513461800,3.062461669921875,-0.01065078005194664,-0.05877409875392914,0.05176572501659393
1700516045523472000,3.072471923828125,0.04346465319395065,-0.056056875735521317,0.13565529882907867
1700516045533481000,3.08248095703125,-0.03856869786977768,0.14777374267578125,0.08178088068962097
1700516045543490800,3.09249072265625,0.036850426346063614,-0.12910285592079163,-0.09237733483314514
1700516045553499600,3.102499755859375,-0.04636962711811066,0.047621846199035645,-0.13107119500637054
1700516045563509800,3.112509765625,0.010010023601353168,0.017256751656532288,-0.0758574828505516
1700516045573518800,3.122518798828125,0.07218018919229507,-0.0896712988615036,0.09432650357484818
1700516045583528700,3.13252880859375,-0.042270224541425705,0.010056628845632076,-0.07621647417545319
1700516045593537800,3.142537841796875,-0.009168198332190514,0.12944720685482025,0.008902414701879025
1700516045603548000,3.1525478515625,-0.012560267001390457,-0.056163668632507324,0.061835937201976776
1700516045613556700,3.162556640625,0.04357224330306053,-0.04923359304666519,0.12968555092811584
1700516045623566800,3.17256689453125,-0.03532150387763977,0.15269286930561066,0.0628330260515213
1700516045633576000,3.182575927734375,0.038833681493997574,-0.14083701372146606,-0.12089792639017105
1700516045643585800,3.192585693359375,-0.04735659807920456,0.06094830483198166,-0.14808480441570282
1700516045653594600,3.2025947265625,0.013319533318281174,0.01267078798264265,-0.06941209733486176
1700516045663604700,3.212604736328125,0.07347634434700012,-0.0922686755657196,0.1053013876080513
1700516045673613800,3.22261376953125,-0.04562607407569885,0.020006997510790825,-0.07152744382619858
1700516045683623700,3.232623779296875,-0.013063870370388031,0.13739700615406036,0.015408516861498356
1700516045693632800,3.2426328125,-0.007071225438266993,-0.06704454869031906,0.061706505715847015
1700516045703643000,3.252642822265625,0.03687972202897072,-0.03997617959976196,0.13026292622089386
1700516045713652000,3.26265185546875,-0.03414119407534599,0.14197763800621033,0.048294562846422195
1700516045723661800,3.272661865234375,0.039135683327913284,-0.14351695775985718,-0.1287880688905716
1700516045733670700,3.282670654296875,-0.05663052201271057,0.07072796672582626,-0.15353043377399445
1700516045743680800,3.2926806640625,0.02196894772350788,0.007225155830383301,-0.05723213031888008
1700516045753689900,3.30268994140625,0.07542018592357635,-0.1161566972732544,0.1079094186425209
1700516045763699700,3.31269970703125,-0.051424309611320496,0.034872762858867645,-0.0698390007019043
1700516045773709000,3.322708984375,-0.012712066993117332,0.14592498540878296,0.02328241989016533
1700516045783718100,3.33271826171875,-0.0026783409994095564,-0.08236651122570038,0.06528259813785553
1700516045793728000,3.34272802734375,0.027849474921822548,-0.015540077351033688,0.14303438365459442
1700516045803737000,3.352737060546875,-0.028052672743797302,0.11412151157855988,0.030906783416867256
1700516045813747200,3.362747314453125,0.035052526742219925,-0.1278277337551117,-0.14020317792892456
1700516045823756300,3.37275634765625,-0.06148386746644974,0.082395538687706,-0.1605238914489746
1700516045833766100,3.38276611328125,0.031692683696746826,0.007846205495297909,-0.0336969755589962
1700516045843775200,3.392775146484375,0.06406287103891373,-0.13138705492019653,0.09970954805612564
1700516045853785300,3.402785400390625,-0.048773396760225296,0.0651550367474556,-0.0774654969573021
1700516045863794200,3.412794189453125,-0.01287718303501606,0.14882303774356842,0.029997846111655235
1700516045873804000,3.422803955078125,0.0060206083580851555,-0.102829709649086,0.06903233379125595
1700516045883813000,3.432813232421875,0.026226811110973358,0.032404810190200806,0.16150154173374176
1700516045893823200,3.4428232421875,-0.022911706939339638,0.06257789582014084,0.005495965480804443
1700516045903832300,3.452832275390625,0.025708027184009552,-0.09173285216093063,-0.14825551211833954
1700516045913842200,3.46284228515625,-0.06023537740111351,0.08183068037033081,-0.15651105344295502
1700516045923851300,3.472851318359375,0.05085146427154541,0.0012950951931998134,-0.004535097163170576
1700516045933861400,3.482861328125,0.046057771891355515,-0.1458541452884674,0.07570461183786392
1700516045943871200,3.492871337890625,-0.04621223732829094,0.10025043785572052,-0.07562045753002167
1700516045953880000,3.502880126953125,-0.01938248611986637,0.11657721549272537,0.036621659994125366
1700516045963890200,3.51289013671875,0.018990734592080116,-0.11906939744949341,0.08348210901021957
1700516045973899000,3.52289892578125,0.016022909432649612,0.08115024864673615,0.1659439653158188
1700516045983909000,3.5329091796875,-0.014691860415041447,-0.01022920198738575,-0.0449666753411293
1700516045993918200,3.542918212890625,0.01564420759677887,-0.05236014351248741,-0.14409485459327698
1700516046003928000,3.552927978515625,-0.056752759963274,0.07060359418392181,-0.14627385139465332
1700516046013937200,3.562937255859375,0.0662035197019577,-0.014697985723614693,0.0335712768137455
1700516046023947300,3.572947265625,0.01630254089832306,-0.1381104737520218,0.04025181382894516
1700516046033956400,3.582956298828125,-0.03470391780138016,0.11576468497514725,-0.06422505527734756
1700516046043966000,3.592966064453125,-0.02538338676095009,0.05632771924138069,0.04490409046411514
1700516046053975000,3.60297509765625,0.02466726303100586,-0.1248985230922699,0.09734359383583069
1700516046063985200,3.612985107421875,0.003035204717889428,0.10594826936721802,0.15185344219207764
1700516046073995000,3.6229951171875,-0.011681956239044666,-0.06390148401260376,-0.08310101181268692
1700516046084004000,3.633004150390625,0.010024936869740486,-0.02786252461373806,-0.13106215000152588
1700516046094014200,3.64301416015625,-0.0454937145113945,0.06139065697789192,-0.12855957448482513
1700516046104023300,3.653023193359375,0.07381856441497803,-0.02544650435447693,0.06457100063562393
1700516046114033200,3.663033203125,-0.008551943115890026,-0.10556504130363464,0.005559082608669996
1700516046124042200,3.673042236328125,-0.021516744047403336,0.11518225073814392,-0.04279433563351631
1700516046134052400,3.68305224609375,-0.029810093343257904,0.014138189144432545,0.04795394465327263
1700516046144061200,3.693061279296875,0.041314151138067245,-0.10933554172515869,0.09771563857793808
1700516046154071000,3.703071044921875,-0.015429290011525154,0.1315833330154419,0.12576058506965637
1700516046164081200,3.7130810546875,0.003477022983133793,-0.1024366244673729,-0.09731989353895187
1700516046174090200,3.72309033203125,-0.003442668356001377,-0.012233496643602848,-0.12409292161464691
1700516046184100000,3.73310009765625,-0.039743684232234955,0.060744039714336395,-0.11820600181818008
1700516046194109200,3.743109130859375,0.08124691992998123,-0.044626325368881226,0.08115503937005997
1700516046204119300,3.753119384765625,-0.020429374650120735,-0.07669530808925629,-0.008109059184789658
1700516046214128000,3.763128173828125,-0.017178986221551895,0.11424002051353455,-0.029886793345212936
1700516046224138200,3.77313818359375,-0.03182051330804825,-0.014333132654428482,0.04886794090270996
1700516046234148400,3.7831484375,0.044202350080013275,-0.10655014216899872,0.0999084860086441
1700516046244157200,3.7931572265625,-0.018215755000710487,0.13977095484733582,0.10775229334831238
1700516046254167000,3.8031669921875,0.013611149974167347,-0.11698254942893982,-0.10076096653938293
1700516046264176000,3.813176025390625,-0.00968325324356556,0.004619252867996693,-0.11405706405639648
1700516046274186200,3.823186279296875,-0.030906250700354576,0.04651796817779541,-0.10850197821855545
1700516046284195000,3.833195068359375,0.07893157005310059,-0.039681099355220795,0.08804649859666824
1700516046294205200,3.843205078125,-0.028852153569459915,-0.07000385224819183,-0.022706644609570503
1700516046304214300,3.85321435546875,-0.012718991376459599,0.11328022181987762,-0.02502971887588501
1700516046314224000,3.86322412109375,-0.0350719653069973,-0.028967469930648804,0.048356082290410995
1700516046324234200,3.873234130859375,0.048643168061971664,-0.09420666098594666,0.0926966443657875
1700516046334243000,3.8832431640625,-0.028897961601614952,0.16127757728099823,0.1023079976439476
1700516046344253200,3.893253173828125,0.023451529443264008,-0.137834832072258,-0.08892907202243805
1700516046354262000,3.903261962890625,-0.018443988636136055,0.013669739477336407,-0.12389398366212845
1700516046364272000,3.913272216796875,-0.02508378215134144,0.05452476069331169,-0.11088337749242783
1700516046374281200,3.92328125,0.0823872834444046,-0.05751043185591698,0.08977888524532318
1700516046384291000,3.933291015625,-0.03021569363772869,-0.056714411824941635,-0.024952221661806107
1700516046394301200,3.94330126953125,-0.011619637720286846,0.11614524573087692,-0.018671954050660133
1700516046404310300,3.953310302734375,-0.028921397402882576,-0.02995896339416504,0.05348213389515877
1700516046414320000,3.963320068359375,0.0486021563410759,-0.1037471666932106,0.09997639805078506
1700516046424329200,3.9733291015625,-0.032579246908426285,0.1770179122686386,0.10123714059591293
1700516046434339300,3.98333935546875,0.025983130559325218,-0.15187634527683258,-0.09419760853052139
1700516046444349200,3.99334912109375,-0.022947393357753754,0.01369424071162939,-0.12941764295101166
1700516046454358000,4.00335791015625,-0.028312863782048225,0.049797914922237396,-0.11425014585256577
1700516046464368000,4.0133681640625,0.0839066207408905,-0.0538744181394577,0.08982443064451218
1700516046474377200,4.023377197265625,-0.030702518299221992,-0.060448963195085526,-0.02701963298022747
1700516046484387000,4.033386962890625,-0.016044214367866516,0.12858566641807556,-0.015044729225337505
1700516046494396200,4.043396240234375,-0.02725558914244175,-0.03862595558166504,0.05694131180644035
1700516046504406300,4.05340625,0.04800640791654587,-0.10051781684160233,0.1082519069314003
1700516046514416000,4.063416015625,-0.03356808051466942,0.1782730668783188,0.09691722691059113
1700516046524425200,4.07342529296875,0.02363821677863598,-0.15534618496894836,-0.10901889204978943
1700516046534435300,4.083435302734375,-0.021224861964583397,0.026759974658489227,-0.13366538286209106
1700516046544444200,4.093444091796875,-0.021444305777549744,0.03965872898697853,-0.10935152322053909
1700516046554454000,4.1034541015625,0.08324695378541946,-0.0557817742228508,0.09881020337343216
1700516046564464000,4.113464111328125,-0.03473161533474922,-0.050931092351675034,-0.037642449140548706
1700516046574473200,4.12347314453125,-0.014335796236991882,0.12838114798069,-0.01146650593727827
1700516046584483000,4.133483154296875,-0.027958929538726807,-0.04916941002011299,0.05987798050045967
1700516046594492200,4.1434921875,0.04929564520716667,-0.08870696276426315,0.10838080197572708
1700516046604502300,4.153502197265625,-0.03519713506102562,0.1778528243303299,0.08802998811006546
1700516046614511400,4.163511474609375,0.028259068727493286,-0.15013784170150757,-0.10685773938894272
1700516046624521200,4.173521240234375,-0.026991937309503555,0.023684024810791016,-0.13415780663490295
1700516046634531300,4.18353125,-0.01840297505259514,0.044071588665246964,-0.10191864520311356
1700516046644540200,4.1935400390625,0.0811648964881897,-0.05999143049120903,0.09969569742679596
1700516046654550000,4.203550048828125,-0.036071717739105225,-0.04303162172436714,-0.03877083212137222
1700516046664559000,4.21355908203125,-0.012748552486300468,0.13143418729305267,-0.004815527703613043
1700516046674569200,4.2235693359375,-0.025471271947026253,-0.05176519230008125,0.05722254142165184
1700516046684579000,4.2335791015625,0.046656183898448944,-0.08678815513849258,0.10831715166568756
1700516046694588200,4.243588134765625,-0.0357486754655838,0.17706452310085297,0.09226574748754501
1700516046704598300,4.253598388671875,0.035167574882507324,-0.15842638909816742,-0.1131177693605423
1700516046714607400,4.263607421875,-0.03496251255273819,0.04538718983530998,-0.14278964698314667
1700516046724617200,4.2736171875,-0.012592224404215813,0.03453986719250679,-0.09760165959596634
1700516046734627300,4.28362744140625,0.08611704409122467,-0.07620688527822495,0.10495597869157791
1700516046744636200,4.29363623046875,-0.04487373307347298,-0.01938701421022415,-0.04783303663134575
1700516046754646000,4.30364599609375,-0.01589028351008892,0.13872087001800537,0.0006133259739726782
1700516046764655000,4.313655029296875,-0.01776035502552986,-0.06426314264535904,0.05658125504851341
1700516046774665500,4.32366552734375,0.04769907891750336,-0.06349748373031616,0.12717393040657043
1700516046784675300,4.33367529296875,-0.03486237674951553,0.17058852314949036,0.07642713189125061
1700516046794684400,4.343684326171875,0.03044445812702179,-0.15289634466171265,-0.12585033476352692
1700516046804694500,4.353694580078125,-0.03729730471968651,0.046239133924245834,-0.1530851572751999
1700516046814703400,4.363703369140625,-0.0038480013608932495,0.02803243324160576,-0.08778737485408783
1700516046824713500,4.37371337890625,0.0813467875123024,-0.07924981415271759,0.10821089148521423
1700516046834723600,4.3837236328125,-0.044922731816768646,-0.008372978307306767,-0.05628058314323425
1700516046844732400,4.393732421875,-0.015361113473773003,0.143960103392601,0.005910086911171675
1700516046854742500,4.403742431640625,-0.013131780549883842,-0.06723602861166,0.05402648448944092
1700516046864752600,4.413752685546875,0.038850460201501846,-0.037818484008312225,0.11591914296150208
1700516046874761200,4.42376123046875,-0.027849474921822548,0.13599751889705658,0.061533667147159576
1700516046884771300,4.433771240234375,0.02917972393333912,-0.13963405787944794,-0.1402878612279892
1700516046894780400,4.443780517578125,-0.05258624628186226,0.06318802386522293,-0.1603129804134369
1700516046904790500,4.45379052734375,0.01085584331303835,0.015935290604829788,-0.06925816833972931
1700516046914800400,4.46380029296875,0.08129538595676422,-0.11266157031059265,0.11155609041452408
1700516046924809500,4.4738095703125,-0.05241180956363678,0.05260142683982849,-0.07167498767375946
1700516046934819600,4.483819580078125,-0.010919492691755295,0.12855584919452667,0.010642523877322674
1700516046944828400,4.493828369140625,-0.005333246197551489,-0.06425035744905472,0.05384006351232529
1700516046954838500,4.503838623046875,0.04018976539373398,0.0015337144723162055,0.1521301418542862
1700516046964848600,4.5138486328125,-0.0296095572412014,0.10652591288089752,0.03412175178527832
1700516046974857200,4.523857177734375,0.02460814081132412,-0.10725508630275726,-0.1317412555217743
1700516046984867300,4.533867431640625,-0.047390151768922806,0.05541718751192093,-0.1364997923374176
1700516046994877400,4.54387744140625,0.030904652550816536,0.017973674461245537,-0.026132535189390182
1700516047004886300,4.55388623046875,0.06226656958460808,-0.11827950179576874,0.1110152006149292
1700516047014896400,4.563896484375,-0.04451713338494301,0.06892979890108109,-0.06692497432231903
1700516047024905500,4.573905517578125,-0.007526093162596226,0.11823183298110962,0.03568476065993309
1700516047034915300,4.583915283203125,0.0046424223110079765,-0.06912154704332352,0.06410921365022659
1700516047044925400,4.593925537109375,0.032214127480983734,0.02322809025645256,0.14982891082763672
1700516047054934500,4.6039345703125,-0.0216554943472147,0.06880143284797668,0.026451313868165016
1700516047064944400,4.6139443359375,0.021313278004527092,-0.07959948480129242,-0.10263130068778992
1700516047074954500,4.62395458984375,-0.054118361324071884,0.07239697128534317,-0.11934690177440643
1700516047084963300,4.63396337890625,0.046292129904031754,-0.008273109793663025,0.0013126720441505313
1700516047094973400,4.643973388671875,0.04899151250720024,-0.10041262209415436,0.09717075526714325
1700516047104982300,4.653982177734375,-0.046366967260837555,0.06868451833724976,-0.09167026728391647
1700516047114992400,4.663992431640625,-0.013104083947837353,0.09158371388912201,0.009220662526786327
1700516047125002500,4.67400244140625,0.008624114096164703,-0.08441022038459778,0.03744058310985565
1700516047135011300,4.68401123046875,0.019517242908477783,0.05934135243296623,0.1321396678686142
1700516047145021400,4.694021484375,-0.022670425474643707,0.00044022052315995097,0.002112685702741146
1700516047155031600,4.704031494140625,0.01974654011428356,-0.06089770421385765,-0.10615120083093643
1700516047165040400,4.714040283203125,-0.05348905920982361,0.08295347541570663,-0.14138375222682953
1700516047175050500,4.724050537109375,0.05199022963643074,-0.029397303238511086,0.0014511564513668418
1700516047185060600,4.734060546875,0.029924875125288963,-0.11797643452882767,0.07245849072933197
1700516047195069400,4.7440693359375,-0.038051243871450424,0.07476771622896194,-0.059601545333862305
1700516047205079300,4.754079345703125,-0.018610969185829163,0.07933929562568665,0.03529966622591019
1700516047215088400,4.76408837890625,0.011767176911234856,-0.1053762212395668,0.05824945867061615
1700516047225098500,4.774098388671875,0.011232946999371052,0.07113063335418701,0.14764244854450226
1700516047235108400,4.7841083984375,-0.015798937529325485,-0.03044951893389225,-0.01088780164718628
1700516047245117400,4.794117431640625,0.018863702192902565,-0.04665032774209976,-0.0950106680393219
1700516047255127600,4.80412744140625,-0.0571138858795166,0.07961573451757431,-0.13140489161014557
1700516047265137400,4.814137451171875,0.07148483395576477,-0.007222226355224848,0.0673028752207756
1700516047275146500,4.824146484375,0.00842917151749134,-0.15631264448165894,0.036071185022592545
1700516047285156600,4.834156494140625,-0.02869982086122036,0.11526454240083694,-0.11273613572120667
1700516047295166500,4.84416650390625,-0.01944134198129177,0.06367191672325134,-0.001781921018846333
1700516047305175300,4.85417529296875,0.016683371737599373,-0.11531354486942291,0.03837641701102257
1700516047315185400,4.864185302734375,0.008616657927632332,0.09816917777061462,0.12903255224227905
1700516047325195300,4.8741953125,-0.012222311459481716,-0.005112203769385815,-0.010125338099896908
1700516047335204400,4.884204345703125,0.016498548910021782,-0.04205690696835518,-0.08408451825380325
1700516047345214500,4.89421435546875,-0.05648777633905411,0.08433298766613007,-0.14553429186344147
1700516047355223300,4.904223388671875,0.06083272397518158,-0.005390770733356476,0.0019433086272329092
1700516047365233400,4.9142333984375,0.011003116145730019,-0.1302216500043869,0.0028128307312726974
1700516047375243500,4.924243408203125,-0.026974625885486603,0.11975782364606857,-0.10530725121498108
1700516047385252400,4.93425244140625,-0.028442027047276497,0.042507778853178024,0.018213624134659767
1700516047395262500,4.944262451171875,0.020682642236351967,-0.06615079194307327,0.06818411499261856
1700516047405272600,4.9542724609375,0.007227286696434021,0.09727462381124496,0.14965181052684784
1700516047415281400,4.964281494140625,-0.0099610211327672,-0.02828436903655529,-0.016574183478951454
1700516047425291500,4.97429150390625,0.016108129173517227,-0.03135392814874649,-0.09944616258144379
1700516047435301400,4.98430126953125,-0.05705609545111656,0.07990655303001404,-0.13914243876934052
1700516047445310500,4.994310546875,0.061589062213897705,-0.018790464848279953,0.021856563165783882
1700516047455320300,5.0043203125,0.01534833014011383,-0.10040196776390076,0.04609931632876396
1700516047465330400,5.014330322265625,-0.028866801410913467,0.11535748839378357,-0.038306377828121185
1700516047475339500,5.024339599609375,-0.022833144292235374,0.059791695326566696,0.06832419335842133
1700516047485349400,5.034349365234375,0.035960663110017776,-0.05897516757249832,0.08597083389759064
1700516047495359500,5.044359375,0.0014652712270617485,0.08811334520578384,0.1279052346944809
1700516047505368600,5.05436865234375,-0.006584932096302509,-0.01558455266058445,-0.04301431402564049
1700516047515378400,5.06437841796875,0.01950312778353691,-0.05338839069008827,-0.12409611791372299
1700516047525388500,5.074388427734375,-0.05967850983142853,0.08576124161481857,-0.14456117153167725
1700516047535397600,5.084397705078125,0.054550860077142715,0.053408361971378326,0.11732742190361023
1700516047545407500,5.094407470703125,0.0214789267629385,-0.1787409782409668,0.05699777230620384
1700516047555417600,5.10441748046875,-0.03244182839989662,0.30362460017204285,-0.04682343080639839
1700516047565426400,5.114426513671875,-0.03256087377667427,-0.14546851813793182,0.21460364758968353
1700516047575436300,5.124436279296875,0.061401307582855225,0.13237135112285614,0.16650189459323883
1700516047585446400,5.1344462890625,-0.022762570530176163,0.04727696627378464,0.01642078533768654
1700516047595455500,5.14445556640625,-0.020061058923602104,-0.1419329047203064,-0.22899456322193146
1700516047605465300,5.15446533203125,0.022119417786598206,-0.012373845092952251,-0.12282312661409378
1700516047615475500,5.164475341796875,-0.03213023766875267,0.14771941304206848,0.11089669167995453
1700516047625484500,5.174484619140625,-0.01107235811650753,-0.13214579224586487,0.1373426765203476
1700516047635494400,5.184494384765625,-0.00045673211570829153,-0.16424673795700073,-0.18289124965667725
1700516047645504500,5.19450439453125,0.000480434246128425,0.35599005222320557,-0.19118434190750122
1700516047655513600,5.204513671875,-0.016835704445838928,-0.37848979234695435,0.040280576795339584
1700516047665523500,5.2145234375,0.04418983310461044,0.2397710531949997,0.14250442385673523
1700516047675532300,5.2245322265625,-0.03922037407755852,-0.005369998048990965,0.10607770085334778
1700516047685542400,5.23454248046875,-0.008986837230622768,-0.17551642656326294,-0.09093976020812988
1700516047695552300,5.24455224609375,0.02991289086639881,-0.02382543869316578,-0.32587796449661255
1700516047705562400,5.254562255859375,-0.06627116352319717,0.007795604877173901,-0.34456297755241394
1700516047715571500,5.264571533203125,0.027299797162413597,0.04258101433515549,0.04358396306633949
1700516047725581300,5.274581298828125,0.03315315768122673,-0.2409159392118454,0.19764889776706696
1700516047735591400,5.28459130859375,-0.04861893504858017,0.1658824384212494,0.05323445796966553
1700516047745600500,5.2946005859375,-0.024706145748496056,0.037938326597213745,0.05474979802966118
1700516047755610400,5.3046103515625,0.00908324308693409,-0.10096629709005356,-0.00032437301706522703
1700516047765620500,5.314620361328125,-0.008598015643656254,0.0764782652258873,0.04248567670583725
1700516047775629600,5.324629638671875,-0.004719121381640434,-0.06124977394938469,-0.05163869261741638
1700516047785639400,5.334639404296875,0.013921407982707024,-0.10196604579687119,-0.19559159874916077
1700516047795649500,5.3446494140625,-0.06312090903520584,0.07271841168403625,-0.18499568104743958
1700516047805658600,5.35465869140625,0.011299526318907738,-0.027104321867227554,-0.005838980432599783
1700516047815668500,5.36466845703125,0.08196224272251129,-0.11749786883592606,0.12783145904541016
1700516047825678300,5.37467822265625,-0.06299760937690735,0.08066688477993011,-0.0471280962228775
1700516047835687400,5.3846875,-0.020785173401236534,0.04548412933945656,0.0013539510546252131
1700516047845697300,5.394697265625,0.027469707652926445,-0.0782466009259224,0.02491200715303421
1700516047855707400,5.404707275390625,0.010423080064356327,0.09093203395605087,0.13962873816490173
1700516047865716500,5.414716552734375,-0.0023390543647110462,-0.027219636365771294,0.012236958369612694
1700516047875726300,5.424726318359375,0.020492225885391235,-0.0718717947602272,-0.19181497395038605
1700516047885736400,5.434736328125,-0.04992974177002907,0.047392018139362335,-0.21617650985717773
1700516047895745500,5.44474560546875,0.029736855998635292,-0.0016325177857652307,-0.03440537676215172
1700516047905755400,5.45475537109375,0.08069298416376114,-0.1312512308359146,0.09012909233570099
1700516047915765500,5.464765625,-0.0593288354575634,0.08232630044221878,-0.03749624267220497
1700516047925774600,5.474774658203125,-0.020715931430459023,0.05155746638774872,0.03611459583044052
1700516047935784700,5.48478466796875,0.035294342786073685,-0.0638309121131897,0.07144968211650848
1700516047945794600,5.494794677734375,0.019400596618652344,0.08153799921274185,0.16396576166152954
1700516047955803400,5.504803466796875,-0.010841196402907372,-0.04778323322534561,-0.05269623547792435
1700516047965813500,5.5148134765625,0.01997903361916542,-0.09515874087810516,-0.271117240190506
1700516047975823400,5.5248232421875,-0.04375999793410301,-0.02990889735519886,-0.2034095823764801
1700516047985832400,5.53483251953125,0.006216616835445166,0.09431611746549606,0.07237033545970917
1700516047995842600,5.544842529296875,0.07058708369731903,-0.014730210416018963,0.03568822145462036
1700516048005852400,5.554852294921875,-0.06564266234636307,-0.18083423376083374,-0.0448758602142334
1700516048015862500,5.564862548828125,-0.005910885985940695,0.12276346981525421,0.19136063754558563
1700516048025871600,5.57487158203125,-0.012901151552796364,0.02093777246773243,0.1182137280702591
1700516048035881500,5.584881591796875,0.008549812249839306,0.07128456234931946,0.10862314701080322
1700516048045891600,5.5948916015625,0.01649481989443302,-0.04706950858235359,-0.17812685668468475
1700516048055900700,5.604900634765625,0.020077304914593697,-0.28005802631378174,-0.11722196638584137
1700516048065910500,5.61491064453125,-0.051656536757946014,0.15301671624183655,0.18541593849658966
1700516048075920600,5.624920654296875,-0.030401581898331642,0.30695220828056335,0.2282736450433731
1700516048085929500,5.634929443359375,0.09607060253620148,-0.25985288619995117,-0.17519019544124603
1700516048095939300,5.644939208984375,-0.014940067194402218,-0.16649870574474335,-0.04255571588873863
1700516048105949400,5.654949462890625,0.019899405539035797,0.2440270483493805,0.15604712069034576
1700516048115958500,5.66495849609375,-0.03640434518456459,-0.1268807202577591,0.19878606498241425
1700516048125968400,5.674968505859375,0.021436583250761032,0.3817684054374695,0.19773492217063904
1700516048135978500,5.684978515625,0.012594887986779213,-0.3511556386947632,-0.35250264406204224
1700516048145987600,5.694987548828125,0.02696397341787815,0.25544747710227966,0.027831630781292915
1700516048155997400,5.70499755859375,-0.07408168166875839,0.1902463734149933,0.21275034546852112
1700516048166007600,5.715007568359375,-0.002092179376631975,-0.01071256585419178,0.14548103511333466
1700516048176017400,5.725017333984375,-0.0003635214816313237,-0.04189418628811836,-0.1931004822254181
1700516048186026500,5.735026611328125,-0.032818667590618134,-0.01624022237956524,-0.11962493509054184
1700516048196036600,5.74503662109375,-0.025614550337195396,0.0835936963558197,0.05697886273264885
1700516048206046500,5.75504638671875,0.019407786428928375,0.11998260021209717,0.3971201777458191
1700516048216055300,5.76505517578125,0.020670657977461815,-0.01769164577126503,0.13226322829723358
1700516048226065400,5.7750654296875,0.009215336292982101,-0.03922969475388527,-0.2716403007507324
1700516048236075500,5.785075439453125,-0.020616328343749046,-0.0660429298877716,-0.19802333414554596
1700516048246084400,5.79508447265625,-0.005032042972743511,0.08953440934419632,0.059718724340200424
1700516048256094500,5.805094482421875,0.1019095852971077,-0.2319948822259903,-0.020066119730472565
1700516048266104600,5.8151044921875,-0.0076097166165709496,0.24859489500522614,-0.2716645300388336
1700516048276113400,5.825113525390625,0.000215716048842296,-0.1498507410287857,-0.0770079642534256
1700516048286123500,5.83512353515625,0.016937971115112305,0.14354199171066284,0.06383250653743744
1700516048296133600,5.845133544921875,-0.015445268712937832,0.06531615555286407,0.31146013736724854
1700516048306142500,5.855142578125,-0.0009478190331719816,-0.21469178795814514,-0.008588960394263268
1700516048316152600,5.865152587890625,0.008913333527743816,0.1995948702096939,-0.1936219334602356
1700516048326162700,5.87516259765625,-0.022171614691615105,0.07841704040765762,0.05991845950484276
1700516048336172500,5.885172607421875,0.017896708101034164,0.13179664313793182,0.351917564868927
1700516048346181400,5.895181396484375,0.023392407223582268,-0.10361747443675995,0.0777062475681305
1700516048356191500,5.90519140625,-0.026200711727142334,0.20176401734352112,-0.1016073152422905
1700516048366201300,5.915201416015625,0.005389705300331116,-0.049731869250535965,-0.024828650057315826
1700516048376210400,5.92521044921875,0.016457537189126015,0.19266106188297272,0.11518730968236923
1700516048386220500,5.935220458984375,-0.03924380987882614,0.10689182579517365,0.3116508424282074
1700516048396230400,5.94523046875,0.009107477962970734,-0.09013335406780243,-0.03199175372719765
1700516048406239500,5.955239501953125,0.00569996377453208,0.3089359998703003,-0.4227374196052551
1700516048416249600,5.96524951171875,-0.02431466057896614,0.03973143547773361,-0.06306711584329605
1700516048426259500,5.975259521484375,-0.09398987889289856,0.886141836643219,-0.2004191130399704
1700516048436269600,5.98526953125,0.0583202987909317,-0.6463912725448608,0.1480395346879959
1700516048446278700,5.995278564453125,0.2228652983903885,-0.8265671730041504,0.645333468914032
1700516048456288500,6.00528857421875,0.017830662429332733,0.3757365942001343,-0.2737412750720978
1700516048466298600,6.015298583984375,0.06909944117069244,0.7851888537406921,-1.1409038305282593
1700516048476307500,6.025307373046875,-0.4118639826774597,0.7312491536140442,0.8491230607032776
1700516048486317300,6.0353173828125,-0.028714202344417572,-1.4580178260803223,0.731033980846405
1700516048496327400,6.045327392578125,0.09752975404262543,1.2428631782531738,-0.29192373156547546
1700516048506336500,6.05533642578125,0.04885568842291832,-0.18353015184402466,-0.18524016439914703
1700516048516346400,6.065346435546875,0.11113264411687851,-0.9650912284851074,-0.29645615816116333
1700516048526356500,6.0753564453125,-0.08027513325214386,0.6360837817192078,-0.3548741936683655
1700516048536365600,6.085365478515625,-0.11616655439138412,-0.025319471955299377,0.21497754752635956
1700516048546375400,6.09537548828125,-0.03538329154253006,0.05408534035086632,0.44652289152145386
1700516048556385500,6.105385498046875,0.16914907097816467,-0.42852845788002014,0.02972966618835926
1700516048566395600,6.115395751953125,0.09171607345342636,0.125040203332901,-0.6515492796897888
1700516048576404500,6.125404541015625,-0.15110935270786285,0.14817482233047485,-0.038665901869535446
1700516048586414600,6.13541455078125,0.05128076300024986,-0.4883057475090027,0.21801994740962982
1700516048596424700,6.1454248046875,-0.03790716826915741,0.2765170931816101,-0.040769267827272415
1700516048606433300,6.155433349609375,-0.12378691881895065,0.16095027327537537,0.09626554697751999
1700516048616443400,6.165443359375,-0.05772215127944946,0.35498711466789246,0.40653979778289795
1700516048626453500,6.17545361328125,0.020833909511566162,-0.31281784176826477,0.1808675229549408
1700516048636462300,6.18546240234375,0.11213985085487366,0.2393726408481598,-0.3146572709083557
1700516048646472400,6.195472412109375,-0.1492597907781601,0.2917277216911316,0.2747167944908142
1700516048656482600,6.205482666015625,0.018731342628598213,-0.5049899220466614,0.15554244816303253
1700516048666491400,6.215491455078125,0.003667971817776561,0.2512490153312683,-0.12270115315914154
1700516048676501500,6.22550146484375,-0.03808347135782242,0.050761714577674866,-0.0011017497163265944
1700516048686511600,6.23551171875,-0.20163138210773468,0.03482695668935776,0.44046661257743835
1700516048696521500,6.245521484375,0.14329351484775543,-0.781309962272644,-0.30478066205978394
1700516048706530600,6.255530517578125,0.03315741941332817,0.9089283347129822,0.11422617733478546
1700516048716540700,6.265540771484375,-0.15988101065158844,-0.5404579043388367,0.26997554302215576
1700516048726550500,6.275550537109375,0.09151526540517807,-0.04050588235259056,-0.35567155480384827
1700516048736559400,6.285559326171875,0.05342567339539528,0.24605877697467804,-0.05156652256846428
1700516048746569500,6.295569580078125,-0.08665446937084198,-0.37691453099250793,0.47529327869415283
1700516048756579300,6.305579345703125,0.13363395631313324,-0.15284253656864166,-0.5322660207748413
1700516048766588400,6.31558837890625,0.06625412404537201,0.4592365622520447,0.00609411159530282
1700516048776594700,6.3255947265625,0.10457141697406769,-0.671567976474762,0.03748079761862755
1700516048786604500,6.3356044921875,0.01660427637398243,0.2467581182718277,-0.5742619633674622
1700516048796613600,6.345613525390625,0.029079055413603783,0.20037038624286652,0.07755577564239502
1700516048806623700,6.355623779296875,0.10767906159162521,-0.3089011311531067,0.41495829820632935
1700516048816633600,6.365633544921875,0.07081717997789383,0.08489251881837845,-0.512624979019165
1700516048826643700,6.375643798828125,0.16937224566936493,0.26722824573516846,-0.06269373744726181
1700516048836652800,6.38565283203125,0.4502260088920593,-0.25185033679008484,0.3331870138645172
1700516048846662700,6.39566259765625,-0.04508811607956886,0.18088749051094055,-0.1552087664604187
1700516048856672800,6.4056728515625,-0.04361485689878464,-0.10168801248073578,-0.14956311881542206
1700516048866681600,6.415681640625,0.37195679545402527,-0.18981653451919556,0.012792227789759636
1700516048876691500,6.42569140625,0.17526742815971375,0.220807746052742,-0.16468589007854462
1700516048886701600,6.43570166015625,0.555370569229126,-0.1381421536207199,0.17350414395332336
1700516048896710700,6.445710693359375,0.14255554974079132,0.13515836000442505,0.15578240156173706
1700516048906720500,6.455720458984375,-0.18558131158351898,0.528410017490387,0.08020642399787903
1700516048916730600,6.465730712890625,0.41504034399986267,-0.7722117900848389,0.3053082525730133
1700516048926739700,6.47573974609375,0.09107132256031036,0.342950701713562,-0.037399571388959885
1700516048936749800,6.485749755859375,0.15697737038135529,-0.004240551497787237,-0.13528378307819366
1700516048946759700,6.495759765625,0.1093030571937561,-0.1728532612323761,-0.20262794196605682
1700516048956768800,6.505768798828125,-0.15369315445423126,0.3209415376186371,-0.34873321652412415
1700516048966779000,6.51577880859375,0.17118266224861145,-0.2847563624382019,0.10786281526088715
1700516048976788700,6.525788818359375,0.06371133774518967,0.024835309013724327,0.16479641199111938
1700516048986797600,6.535797607421875,-0.013145096600055695,0.32419803738594055,0.32086217403411865
1700516048996807700,6.5458076171875,0.04006992280483246,-0.22276969254016876,0.38862231373786926
1700516049006817500,6.555817626953125,-0.11594657599925995,0.2848988473415375,0.008452340960502625
1700516049016827600,6.56582763671875,0.03621446341276169,-0.13949504494667053,0.02738342061638832
1700516049026836700,6.575836669921875,0.2572970390319824,-0.19204773008823395,0.05259742960333824
1700516049036846600,6.5858466796875,-0.10293649882078171,-0.007241667713969946,-0.30456629395484924
1700516049046856700,6.595856689453125,0.13659992814064026,-0.11441019922494888,-0.09065905958414078
1700516049056865800,6.60586572265625,0.03021356277167797,-0.060627128928899765,-0.018205901607871056
1700516049066875600,6.615875732421875,-0.09248092770576477,0.14841103553771973,-0.1429651379585266
1700516049076885800,6.6258857421875,0.13681083917617798,-0.1333005279302597,0.1683376133441925
1700516049086894800,6.635894775390625,0.12047315388917923,0.29445159435272217,0.09049127995967865
1700516049096904700,6.64590478515625,-0.05092363432049751,-0.034685809165239334,-0.1089019849896431
1700516049106914800,6.655914794921875,0.09979663789272308,-0.22752903401851654,-0.05405497923493385
1700516049116923600,6.665923583984375,-0.08286931365728378,0.2027355283498764,-0.35115963220596313
1700516049126933500,6.67593359375,-0.05742094665765762,0.1740969717502594,-0.09462424367666245
1700516049136943600,6.685943603515625,0.05249197036027908,-0.4841112792491913,0.29922106862068176
1700516049146952700,6.69595263671875,0.015090536326169968,0.4579734206199646,0.09800432622432709
1700516049156962600,6.705962646484375,-0.003619768423959613,-0.15349102020263672,0.19046448171138763
1700516049166972700,6.71597265625,-0.04639945551753044,0.059477176517248154,0.2228274792432785
1700516049176981800,6.725981689453125,-0.05669869855046272,0.689936101436615,0.3946370482444763
1700516049186991600,6.73599169921875,0.023614514619112015,-0.30361926555633545,0.5020615458488464
1700516049197001700,6.746001708984375,0.022310364991426468,0.045820750296115875,-0.05985134840011597
1700516049207010800,6.7560107421875,-0.08225146681070328,0.19310128688812256,0.023968448862433434
1700516049217020700,6.766020751953125,-0.009920008480548859,-0.6375477313995361,-0.0907038003206253
1700516049227030800,6.77603076171875,-0.018679145723581314,0.5749669075012207,-0.27256283164024353
1700516049237039600,6.78603955078125,-0.017836254090070724,-0.30561211705207825,-0.034576620906591415
1700516049247049500,6.796049560546875,0.1707989126443863,-0.4786693751811981,-0.19376814365386963
1700516049257059600,6.8060595703125,0.06943286955356598,0.7990037202835083,0.11369087547063828
1700516049267068700,6.816068603515625,-0.002225337317213416,-0.457684189081192,0.38386139273643494
1700516049277078500,6.82607861328125,0.03279736265540123,0.3800053894519806,0.13952326774597168
1700516049287088600,6.836088623046875,-0.1067807748913765,0.1251416653394699,0.2563614845275879
1700516049297098800,6.8460986328125,0.11803635954856873,-0.8614383339881897,0.004589425399899483
1700516049307107600,6.856107666015625,0.08206743746995926,1.2346614599227905,0.16933709383010864
1700516049317117700,6.86611767578125,-0.05214948579668999,-0.6773361563682556,0.1661173403263092
1700516049327127800,6.8761279296875,-0.014738998375833035,0.5762593150138855,-0.19507814943790436
1700516049337136600,6.88613671875,-0.073623888194561,-0.26010027527809143,0.21829691529273987
1700516049347146800,6.896146728515625,0.13651417195796967,-0.9079893231391907,-0.06423544138669968
1700516049357156900,6.906156982421875,0.025482723489403725,0.9443135261535645,0.1544383019208908
1700516049367165400,6.91616552734375,-0.1084820032119751,-0.5398434996604919,0.17967389523983002
1700516049377175600,6.926175537109375,0.062139272689819336,0.5362828969955444,-0.20594064891338348
1700516049387185700,6.936185546875,-0.05921032652258873,0.1659705936908722,0.07818934321403503
1700516049397194500,6.946194580078125,0.31499895453453064,-1.287070870399475,-0.2198237031698227
1700516049407204600,6.95620458984375,0.16744811832904816,0.7678902745246887,-0.07249310612678528
1700516049417214700,6.966214599609375,0.14093661308288574,-0.3618128001689911,0.18559809029102325
1700516049427223800,6.976223876953125,-0.06617528945207596,0.4972763657569885,0.5504549145698547
1700516049437233700,6.986233642578125,-0.09205908328294754,-0.2845885753631592,0.680010199546814
1700516049447243800,6.996243896484375,0.16207252442836761,-0.24707956612110138,0.04068431258201599
1700516049457252900,7.0062529296875,0.06794389337301254,0.3459872305393219,-0.007749532349407673
1700516049467262700,7.0162626953125,0.1625465750694275,-0.5641754865646362,-0.3079948425292969
1700516049477272800,7.02627294921875,0.12082761526107788,0.11250177770853043,-0.5761469602584839
1700516049487281700,7.03628173828125,0.29471632838249207,-0.3189316391944885,-0.3596827983856201
1700516049497291500,7.04629150390625,0.04363056644797325,-0.11393509060144424,0.1412535309791565
1700516049507301600,7.056301513671875,-0.2810167670249939,0.5223044753074646,0.6724430918693542
1700516049517310700,7.066310791015625,0.09621495008468628,0.15369901061058044,0.48059511184692383
1700516049527320600,7.076320556640625,0.031134484335780144,0.12401169538497925,0.341005802154541
1700516049537330700,7.08633056640625,-0.027884362265467644,0.1297990083694458,-0.19135424494743347
1700516049547339800,7.09633984375,-0.019042400643229485,0.06493159383535385,0.3184666633605957
1700516049557349600,7.106349609375,-0.12090431898832321,-0.05059473216533661,0.19487175345420837
1700516049567359700,7.11635986328125,-0.11817990243434906,0.1645045280456543,0.2751290500164032
1700516049577368800,7.126368896484375,-0.2733955979347229,-0.03535905480384827,-0.1940472424030304
1700516049587378700,7.136378662109375,-0.0394909493625164,-0.3205660283565521,-0.2133021503686905
1700516049597388800,7.146388916015625,-0.059786632657051086,-0.20715078711509705,-0.23364418745040894
1700516049607397600,7.156397705078125,-0.0787012055516243,0.3434377908706665,-0.04349740967154503
1700516049617407500,7.166407470703125,-0.17184978723526,-0.3394315838813782,0.10744336992502213
1700516049627417600,7.17641748046875,-0.04832305759191513,-0.14813567698001862,-0.4434751868247986
1700516049637426700,7.1864267578125,0.13560150563716888,-0.30679696798324585,-0.22087006270885468
1700516049647436500,7.1964365234375,-0.02652668207883835,-0.13663160800933838,-0.5192242860794067
1700516049657446700,7.20644677734375,0.03220773860812187,0.3213101029396057,-0.06360027939081192
1700516049667456500,7.21645654296875,0.03864619508385658,-0.41910725831985474,0.030941404402256012
1700516049677465600,7.226465576171875,0.07136659324169159,-0.21815310418605804,-0.1514102965593338
1700516049687475700,7.236475830078125,-0.04452832043170929,0.5198341012001038,0.1723046600818634
1700516049697485600,7.246485595703125,-0.06986217200756073,-0.3040642738342285,-0.012914466671645641
1700516049707494700,7.25649462890625,-0.040462736040353775,0.2928422689437866,0.2090671956539154
1700516049717504800,7.2665048828125,0.13658633828163147,-0.12418080121278763,-0.09404847025871277
1700516049727514600,7.2765146484375,-0.13230957090854645,0.32659462094306946,0.23414085805416107
1700516049737523500,7.2865234375,-0.00830613262951374,0.43936485052108765,0.3308333158493042
1700516049747533600,7.296533447265625,-0.03326527774333954,0.03957777097821236,0.21495598554611206
1700516049757543700,7.306543701171875,0.13258041441440582,0.3948333263397217,0.05474447086453438
1700516049767552500,7.316552490234375,-0.04899683594703674,0.4772246181964874,0.6519311666488647
1700516049777563100,7.326563232421875,0.10703057795763016,0.6580479145050049,0.43893900513648987
1700516049787573000,7.336572998046875,-0.03175952658057213,0.3441017270088196,0.3384435772895813
1700516049797582000,7.34658203125,0.08470822870731354,-0.09202979505062103,-0.09444154798984528
1700516049807592200,7.35659228515625,0.032408274710178375,0.12287238985300064,0.03895192593336105
1700516049817602000,7.36660205078125,0.009943710640072823,0.05648777633905411,-0.19937781989574432
1700516049827611100,7.376611083984375,0.09547405689954758,-0.1736612766981125,0.046666305512189865
1700516049837621000,7.38662109375,-0.06023324653506279,-0.2577332854270935,-0.3072124123573303
1700516049847630000,7.396630126953125,0.04710466042160988,-0.12817314267158508,-0.1279803365468979
1700516049857640000,7.406639892578125,-0.124639131128788,-0.3582388460636139,-0.5060972571372986
1700516049867650000,7.416650146484375,-0.1961577981710434,-0.2185959815979004,-0.17101356387138367
1700516049877659100,7.4266591796875,0.11042691022157669,-1.1517585515975952,-0.776160478591919
1700516049887669000,7.4366689453125,-0.03237125650048256,0.5429138541221619,-0.5305991768836975
1700516049897679000,7.44667919921875,-0.050575293600559235,-0.45618751645088196,-0.19575458765029907
1700516049907689200,7.456689208984375,-0.22668907046318054,-0.09726343303918839,0.19133694469928741
1700516049917698000,7.466697998046875,0.168169304728508,-0.36845552921295166,-0.12784318625926971
1700516049927708200,7.476708251953125,-0.012413259595632553,0.6543983221054077,0.004318581894040108
1700516049937717200,7.48671728515625,-0.09544582664966583,0.03701527416706085,0.27968543767929077
1700516049947727000,7.49672705078125,-0.10210985690355301,-0.0184615645557642,0.5229633450508118
1700516049957737200,7.5067373046875,0.14593909680843353,0.31448203325271606,0.22483977675437927
1700516049967746000,7.51674609375,-0.14859479665756226,0.35664066672325134,0.4480912387371063
1700516049977756000,7.526755859375,-0.11122985184192657,0.5268611311912537,0.6007153987884521
1700516049987766000,7.53676611328125,-0.16842949390411377,0.0555277056992054,-0.031263113021850586
1700516049997775000,7.546775146484375,0.054962851107120514,-0.032339829951524734,-0.03319710120558739
1700516050007785000,7.556784912109375,0.062016766518354416,0.004258926957845688,-0.2293194681406021
1700516050017795000,7.566795166015625,0.022282402962446213,0.20164789259433746,0.23061296343803406
1700516050027804200,7.57680419921875,0.0040948763489723206,-0.010982077568769455,-0.135967418551445
1700516050037814000,7.58681396484375,0.20039674639701843,-0.03355875983834267,0.0420108325779438
1700516050047824100,7.59682421875,-0.17030009627342224,0.16049620509147644,0.0730140209197998
1700516050057833200,7.606833251953125,0.06486768275499344,-0.12032268196344376,0.13923965394496918
1700516050067843000,7.616843017578125,-0.00016112125013023615,-0.2217518389225006,-0.11534550040960312
1700516050077853200,7.626853271484375,-0.09167958796024323,-0.05179129168391228,0.01543594803661108
1700516050087862000,7.636862060546875,-0.04737177491188049,-0.003894606838002801,0.09349612891674042
1700516050097872100,7.6468720703125,-0.0596952885389328,-0.2561787962913513,-0.15789802372455597
1700516050107882000,7.656882080078125,0.06323276460170746,-0.06968187540769577,0.08747898042201996
1700516050117891000,7.66689111328125,-0.0646306574344635,0.01871216855943203,-0.0600002184510231
1700516050127901200,7.676901123046875,-0.0622391402721405,0.10725481808185577,0.1098327562212944
1700516050137911000,7.6869111328125,-0.01738990843296051,-0.16707420349121094,-0.28835615515708923
1700516050147920100,7.696920166015625,0.07934196293354034,0.019335081800818443,-0.017166735604405403
1700516050157930200,7.70693017578125,-0.18515920639038086,0.3649366796016693,-0.08947209268808365
1700516050167940000,7.716940185546875,0.014079333283007145,-0.20745918154716492,-0.07822210341691971
1700516050177949200,7.72694921875,0.07004299759864807,-0.5279940366744995,-0.5223915576934814
1700516050187959300,7.736959228515625,-0.026313629001379013,-0.22578226029872894,-0.5497227907180786
1700516050197969200,7.74696923828125,-0.026443058624863625,0.26895955204963684,-0.40997421741485596
1700516050207978000,7.75697802734375,0.0840994343161583,-0.46200039982795715,-0.08101814985275269
1700516050217988000,7.766988037109375,0.2677781879901886,0.06956123560667038,0.27723824977874756
1700516050227998000,7.776998046875,-0.09713267534971237,0.5379241704940796,0.2662902772426605
1700516050238007000,7.787007080078125,0.08447626978158951,0.013572268187999725,0.5908880829811096
1700516050248017200,7.79701708984375,0.08977355808019638,0.1010696291923523,0.11747709661722183
1700516050258026200,7.807026123046875,-0.10434744507074356,0.3883320391178131,0.3876555860042572
1700516050268036000,7.8170361328125,-0.0929989144206047,0.394471138715744,0.36030277609825134
1700516050278046200,7.827046142578125,-0.09610495716333389,-0.04084037244319916,-0.15849456191062927
1700516050288055300,7.83705517578125,0.06763257086277008,-0.33974796533584595,-0.027589550241827965
1700516050298065200,7.847065185546875,-0.1250268965959549,0.024826785549521446,-0.29441219568252563
1700516050308075300,7.8570751953125,0.09173338115215302,-0.2915562093257904,0.02618473209440708
1700516050318084000,7.867083984375,0.006376673001796007,-0.01218715775758028,-0.17474837601184845
1700516050328094000,7.877093994140625,-0.004503937903791666,0.16980208456516266,0.26335814595222473
1700516050338104000,7.88710400390625,-0.0637560784816742,0.5768103003501892,0.5064237713813782
1700516050348113200,7.897113037109375,-0.009534116834402084,0.03849839046597481,0.15105237066745758
1700516050358123000,7.907123046875,0.1258402168750763,-0.04935237020254135,0.14697985351085663
1700516050368133000,7.917133056640625,-0.04454456642270088,0.06524531543254852,-0.09443408995866776
1700516050378142200,7.92714208984375,0.06383650004863739,0.05955840274691582,0.27685582637786865
1700516050388152000,7.937152099609375,0.061236459761857986,-0.053272541612386703,-0.02039528638124466
1700516050398161200,7.9471611328125,0.012968529015779495,0.19038273394107819,0.11133664101362228
1700516050408171300,7.957171142578125,-0.11861319839954376,0.33950668573379517,0.28904804587364197
1700516050418181000,7.96718115234375,-0.10745455324649811,0.1391477733850479,-0.06227775663137436
1700516050428190000,7.97718994140625,0.09689591825008392,-0.3414268493652344,-0.1761191040277481
1700516050438200000,7.987199951171875,-0.10824231803417206,-0.2768363952636719,-0.536841094493866
1700516050448210000,7.9972099609375,-0.09527405351400375,-0.3571016788482666,-0.14256221055984497
1700516050458219000,8.007218994140626,-0.056591372936964035,-0.5196618437767029,-0.49107199907302856
1700516050468229000,8.01722900390625,0.12952576577663422,-0.02496553771197796,-0.06729541718959808
1700516050478239000,8.027239013671876,-0.1009838730096817,0.057803377509117126,-0.04479090869426727
1700516050488248000,8.037248046875,-0.002320412313565612,-0.18825379014015198,-0.02412877231836319
1700516050498258200,8.047258056640626,0.1350603550672531,-0.489137202501297,-0.3133302330970764
1700516050508267300,8.057267333984376,0.0040794298984110355,0.2958553433418274,-0.3647630512714386
1700516050518277000,8.067277099609376,-0.1499178558588028,-0.03729623928666115,-0.22739000618457794
1700516050528287200,8.077287353515626,0.08443178981542587,-0.5151557326316833,-0.33049774169921875
1700516050538296000,8.087296142578126,0.07008001953363419,0.6164429783821106,0.24804575741291046
1700516050548306000,8.097305908203126,-0.10972277075052261,0.7954097986221313,0.9077099561691284
1700516050558316000,8.10731591796875,-0.14677852392196655,0.07020199298858643,0.7362852096557617
1700516050568325000,8.1173251953125,0.09968185424804688,0.27348053455352783,0.2803371250629425
1700516050578335000,8.1273349609375,-0.10536263883113861,0.10302864760160446,0.23808899521827698
1700516050588345000,8.137344970703126,-0.16131272912025452,0.23746103048324585,0.4106415808200836
1700516050598354200,8.147354248046875,-0.29711902141571045,0.11881693452596664,-0.07425478845834732
1700516050608364000,8.157364013671875,-0.005365204066038132,-0.047742489725351334,-0.09637926518917084
1700516050618373000,8.167373046875,-0.11146767437458038,0.08003145456314087,-0.3420220613479614
1700516050628383200,8.17738330078125,-0.08048232644796371,-0.3964330852031708,-0.5288848876953125
1700516050638393000,8.18739306640625,0.15778137743473053,-0.5936082005500793,-0.6425430178642273
1700516050648402000,8.19740185546875,0.12513181567192078,-0.3407256305217743,-0.8679987788200378
1700516050658412000,8.207412109375,0.045160818845033646,0.3824182152748108,-0.42215070128440857
1700516050668422000,8.217421875,0.05385710671544075,-0.5190037488937378,-0.3794887363910675
1700516050678431000,8.227430908203125,0.19197502732276917,0.3249828815460205,0.3476831316947937
1700516050688441000,8.237441162109375,-0.09070859849452972,0.6471478939056396,0.6278184056282043
1700516050698450200,8.2474501953125,-0.20823948085308075,0.1948712170124054,0.619629442691803
1700516050708460000,8.2574599609375,0.05257692560553551,0.3052286207675934,0.25853994488716125
1700516050718470100,8.26747021484375,-0.17442587018013,0.12261725962162018,0.23542903363704681
1700516050728479200,8.277479248046875,-0.11425946652889252,0.17322850227355957,0.1487569808959961
1700516050738489000,8.287489013671875,-0.1406966596841812,0.01756834052503109,-0.30488160252571106
1700516050748499200,8.297499267578125,0.008607069961726665,-0.06253714859485626,0.0474063977599144
1700516050758508300,8.30750830078125,-0.10584067553281784,0.03897589445114136,-0.11723607778549194
1700516050768518000,8.317517822265625,0.0016564861871302128,-0.3758716285228729,-0.22259046137332916
1700516050778526700,8.327526611328125,0.09144043177366257,-0.3121373951435089,-0.2622244358062744
1700516050788536800,8.337536865234375,-0.013918745331466198,-0.08921642601490021,-0.32811981439590454
1700516050798546700,8.347546630859375,0.018197646364569664,0.15093465149402618,-0.09379946440458298
1700516050808555500,8.357555419921875,0.11910215765237808,-0.5210086107254028,-0.2999507784843445
1700516050818565600,8.367565673828125,0.22729919850826263,0.19418784976005554,-0.10580339282751083
1700516050828575500,8.377575439453125,-0.0727812647819519,-0.03160133585333824,-0.5227811932563782
1700516050838584600,8.38758447265625,-0.1046193540096283,0.20478589832782745,-0.17904698848724365
1700516050848594700,8.3975947265625,0.33025646209716797,-0.8401833772659302,-0.3046525716781616
1700516050858603800,8.407603759765625,0.25061357021331787,0.13677169382572174,-0.6117762923240662
1700516050868613600,8.417613525390625,0.1010560467839241,0.21254634857177734,-0.744564950466156
1700516050878623700,8.427623779296875,0.37798193097114563,-0.8097476959228516,-0.4466933310031891
1700516050888632800,8.4376328125,0.10827826708555222,-0.22833997011184692,0.4590408205986023
1700516050898642700,8.447642578125,-0.13147413730621338,0.8609791994094849,0.6117225289344788
1700516050908651500,8.457651611328124,-0.13065308332443237,0.15187261998653412,0.9249294400215149
1700516050918661600,8.46766162109375,0.14457395672798157,0.394989937543869,0.6282002925872803
1700516050928671500,8.47767138671875,0.1522822082042694,0.5325837731361389,0.6869642734527588
1700516050938680600,8.4876806640625,0.08721719682216644,0.5611394643783569,0.9848894476890564
1700516050948690700,8.497690673828124,-0.11758255958557129,0.2213616818189621,0.5017305016517639
1700516050958700500,8.507700439453124,-0.010748784057796001,0.3836808204650879,0.23845064640045166
1700516050968709600,8.517709716796874,-0.10806494951248169,0.11026711761951447,0.1935873031616211
1700516050978719700,8.5277197265625,-0.2197510004043579,-0.0015188007382676005,-0.19327013194561005
1700516050988728800,8.537728759765624,-0.023424366489052773,-0.5793371200561523,-0.48479756712913513
1700516050998738700,8.54773876953125,-0.023752734065055847,-0.4989605247974396,-0.5511196255683899
1700516051008748800,8.557748779296874,0.05965267866849899,-0.5079612135887146,-0.36736175417900085
1700516051018757600,8.567757568359376,0.03875405341386795,-0.31796038150787354,-0.5381342768669128
1700516051028767500,8.577767578125,0.10374104231595993,0.10263530164957047,0.2257218062877655
1700516051038776600,8.587776611328126,-0.10421641916036606,0.2143051028251648,0.20820246636867523
1700516051048786700,8.59778662109375,0.08692611008882523,-0.014642326161265373,-0.013198093511164188
1700516051058796500,8.607796630859376,0.13855254650115967,-0.3234369158744812,-0.1992739588022232
1700516051068805600,8.6178056640625,0.01350755337625742,-0.26219671964645386,-0.46262916922569275
1700516051078815700,8.627815673828126,-0.17285965383052826,-0.054008107632398605,-0.329279363155365
1700516051088824800,8.637824951171876,-0.05100885406136513,-0.7767980098724365,-0.562537670135498
1700516051098834700,8.647834716796876,0.16820365190505981,-0.574570894241333,-0.7295029163360596
1700516051108844800,8.6578447265625,0.15006592869758606,0.49195536971092224,-0.6122341156005859
1700516051118853600,8.667853515625,0.16496631503105164,-0.17233023047447205,-0.33364295959472656
1700516051128863500,8.677863525390626,0.26279327273368835,-0.7524215579032898,0.19965824484825134
1700516051138873600,8.68787353515625,0.07829959690570831,0.6181372404098511,0.5941160917282104
1700516051148882700,8.697882568359375,-0.017430922016501427,0.1429760605096817,0.34982430934906006
1700516051158892500,8.707892578125,0.052263204008340836,0.04012718051671982,0.3997300863265991
1700516051168901600,8.717901611328125,0.27090179920196533,0.6848606467247009,1.2456187009811401
1700516051178911700,8.727911865234375,0.02719540148973465,1.1112500429153442,1.2868777513504028
1700516051188921600,8.737921630859375,-0.4054745137691498,0.3497127294540405,0.8402891159057617
1700516051198930700,8.7479306640625,0.02171142026782036,-0.01173495315015316,0.026329342275857925
1700516051208940800,8.75794091796875,-0.06752524524927139,0.28669488430023193,-0.1373370885848999
1700516051218949600,8.76794970703125,-0.05835678428411484,-0.13857519626617432,0.0044410875998437405
1700516051228959500,8.77795947265625,-0.029404759407043457,-0.1785508394241333,-0.31217440962791443
1700516051238969600,8.787969482421875,-0.06446661055088043,-0.014342187903821468,-0.062362976372241974
1700516051248978700,8.797978759765625,0.000035420041967881843,-0.17611829936504364,-0.1456213742494583
1700516051258988500,8.807988525390625,-0.007736483123153448,-0.6175441741943359,-0.5778087377548218
1700516051268997600,8.81799755859375,0.17712044715881348,-0.7649706602096558,-0.532804548740387
1700516051279007700,8.8280078125,-0.14533588290214539,-0.2563217878341675,-0.7037445902824402
1700516051289017600,8.838017578125,0.01443859376013279,-0.4248948395252228,-0.2609999179840088
1700516051299026700,8.848026611328125,0.25038453936576843,-0.08620652556419373,-0.4339818060398102
1700516051309036800,8.858036865234375,-0.05691175162792206,0.41873812675476074,0.6598120331764221
1700516051319046000,8.8680458984375,-0.10796215385198593,0.4099068343639374,0.8399586081504822
1700516051329055700,8.8780556640625,-0.14348791539669037,-0.09646794945001602,0.10716772824525833
1700516051339065900,8.88806591796875,-0.003343865042552352,0.12831643223762512,0.06054669991135597
1700516051349074700,8.89807470703125,-0.11765579134225845,0.07063209265470505,-0.01332539226859808
1700516051359084500,8.90808447265625,-0.1308799833059311,-0.02762044221162796,0.27864494919776917
1700516051369093600,8.91809375,-0.14843128621578217,-0.012975453399121761,0.027424167841672897
1700516051379103700,8.928103759765625,-0.1150301843881607,-0.10484492033720016,0.17528685927391052
1700516051389113600,8.938113525390625,-0.31447646021842957,0.11713594198226929,-0.03844619169831276
1700516051399122700,8.948122802734375,-0.12718085944652557,-0.5111042857170105,-0.5335770845413208
1700516051409132800,8.9581328125,0.23314590752124786,-0.029501166194677353,-0.31473398208618164
1700516051419142000,8.968141845703125,0.108340322971344,0.04885728657245636,-0.19419504702091217
1700516051429151700,8.97815185546875,0.0942002683877945,0.03406316041946411,0.24639007449150085
1700516051439161900,8.988161865234375,0.12064545601606369,-0.04289234057068825,-0.01955399475991726
1700516051449170700,8.998170654296874,0.22157473862171173,-0.1109374389052391,-0.3481638431549072
1700516051459180500,9.0081806640625,0.16475673019886017,0.10042833536863327,-0.017778996378183365
1700516051469189600,9.018189697265624,0.024167388677597046,-0.290913850069046,-0.26818937063217163
1700516051479199700,9.02819970703125,0.0968671590089798,-0.06473931670188904,0.028295820578932762
1700516051489209600,9.038209716796874,-0.045460160821676254,-0.018089255318045616,-0.026672091335058212
1700516051499218700,9.04821875,-0.028684642165899277,-0.12482475489377975,0.08837060630321503
1700516051509228800,9.058228759765624,0.19229647517204285,0.3329872786998749,0.16472797095775604
1700516051519237600,9.068237548828124,-0.014238324016332626,0.1538068801164627,0.5160194039344788
1700516051529247700,9.078247802734374,-0.11968911439180374,0.5859300494194031,0.7416695952415466
1700516051539256600,9.088256591796876,-0.041254762560129166,0.06052779033780098,0.04634113237261772
1700516051549266700,9.0982666015625,0.09310784190893173,0.0700904056429863,-0.07772382348775864
1700516051559276500,9.108276611328124,-0.005937517620623112,0.21157829463481903,0.03344610705971718
1700516051569285600,9.11828564453125,0.018687134608626366,-0.09177546203136444,-0.24752643704414368
1700516051579295700,9.128295654296876,0.13018649816513062,-0.12473180890083313,-0.27388107776641846
1700516051589304600,9.1383046875,-0.13544811308383942,-0.05814079940319061,-0.011593272909522057
1700516051599314700,9.148314697265626,-0.1715291440486908,0.03724350780248642,-0.06492546945810318
1700516051609324800,9.15832470703125,-0.08030149340629578,-0.6509210467338562,-0.8384315371513367
1700516051619333600,9.168333740234376,0.12902136147022247,0.004283960908651352,-0.3137776255607605
1700516051629343700,9.17834375,0.021710621193051338,0.10883966088294983,-0.09238186478614807
1700516051639352600,9.1883525390625,0.0839574858546257,-0.333088755607605,-0.2824018597602844
1700516051649362700,9.19836279296875,0.21089652180671692,0.1751640886068344,-0.09556460380554199
1700516051659372500,9.20837255859375,0.082759328186512,-0.07006963342428207,-0.2320723831653595
1700516051669381600,9.218381591796875,0.10260973125696182,0.09917452186346054,-0.18567664921283722
1700516051679391700,9.228391845703126,0.1628056913614273,-0.5708941221237183,-0.6508632302284241
1700516051689400600,9.238400634765625,0.1415422111749649,0.568975567817688,0.3569945991039276
1700516051699410700,9.24841064453125,-0.007633684668689966,-0.46695253252983093,-0.08730960637331009
1700516051709419800,9.258419677734375,-0.013428723439574242,0.3191361725330353,0.12923814356327057
1700516051719429600,9.2684296875,0.2649187445640564,0.11389727145433426,0.16259877383708954
1700516051729439700,9.278439697265625,-0.01176318246871233,0.2965501844882965,0.47872957587242126
1700516051739448800,9.28844873046875,-0.12874360382556915,0.5416898727416992,0.7287266254425049
1700516051749458700,9.298458740234375,-0.006660033017396927,0.046907853335142136,0.038481611758470535
1700516051759467500,9.308467529296875,0.0265399981290102,0.2721066176891327,0.2591972053050995
1700516051769477600,9.3184775390625,-0.011115235276520252,0.37742823362350464,0.5918225646018982
1700516051779488300,9.32848828125,-0.0912468209862709,-0.006119944155216217,-0.012760802172124386
1700516051789497000,9.3384970703125,0.0780165046453476,0.03187031298875809,-0.018566759303212166
1700516051799507200,9.348507080078125,-0.1072673350572586,-0.09757023304700851,-0.13672322034835815
1700516051809516300,9.358516357421875,-0.09454035013914108,-0.40195009112358093,-0.4171445071697235
1700516051819526100,9.368526123046875,-0.01998009905219078,-0.4430117905139923,-0.6619071364402771
1700516051829535200,9.37853515625,0.11109855771064758,-0.41305363178253174,-0.31967493891716003
1700516051839545300,9.38854541015625,-0.09969836473464966,0.13176469504833221,-0.24693948030471802
1700516051849555200,9.39855517578125,0.11706643551588058,-0.44359394907951355,-0.40036073327064514
1700516051859564300,9.408564208984375,0.2512894868850708,0.6647415161132812,0.20999158918857574
1700516051869574400,9.418574462890625,0.01811428926885128,0.06550949811935425,0.383073627948761
1700516051879583200,9.428583251953125,-0.043956540524959564,0.6019521951675415,0.8635672330856323
1700516051889593000,9.438593017578125,-0.011785286478698254,-0.08504458516836166,0.1742658019065857
1700516051899603200,9.448603271484375,-0.05506857857108116,0.1925787627696991,0.508070707321167
1700516051909612300,9.4586123046875,-0.11811012774705887,0.5242725610733032,0.8137727975845337
1700516051919622100,9.4686220703125,-0.14490258693695068,-0.09277094900608063,0.14044472575187683
1700516051929631200,9.47863134765625,0.0018349179299548268,-0.1820203959941864,-0.027148529887199402
1700516051939641300,9.488641357421875,-0.061587464064359665,0.0030511836521327496,-0.013979198411107063
1700516051949650200,9.498650146484374,-0.09960595518350601,-0.44754448533058167,-0.26246678829193115
1700516051959660300,9.508660400390625,0.10895737260580063,-0.09211181849241257,-0.3343265950679779
1700516051969670400,9.51867041015625,-0.06433158367872238,-0.19208954274654388,-0.046307045966386795
1700516051979679200,9.52867919921875,0.15597335994243622,-0.019337745383381844,0.12748631834983826
1700516051989689000,9.538689208984374,0.14176060259342194,0.21441535651683807,-0.043599940836429596
1700516051999698200,9.5486982421875,-0.06450442224740982,0.14780889451503754,0.44863373041152954
1700516052009708300,9.558708251953124,-0.016587499529123306,0.27092763781547546,0.17202715575695038
1700516052019717000,9.568717041015624,-0.06659527122974396,-0.1168653666973114,-0.17842087149620056
1700516052029727200,9.578727294921874,0.08960152417421341,-0.05726595222949982,-0.2767961919307709
1700516052039737300,9.5887373046875,-0.06726478785276413,-0.28903794288635254,-0.30837541818618774
1700516052049746200,9.59874609375,-0.09414806962013245,-0.1148299127817154,0.1732117235660553
1700516052059756300,9.60875634765625,-0.054601460695266724,-0.0029851372819393873,0.0027212179265916348
1700516052069765400,9.618765380859376,-0.09547992050647736,-0.047030624002218246,0.24166908860206604
1700516052079775200,9.628775146484376,-0.07979150116443634,0.26521408557891846,0.2942172586917877
1700516052089784000,9.6387841796875,-0.0885426476597786,-0.21318498253822327,-0.1913507878780365
1700516052099794200,9.648794189453126,0.054780956357717514,-0.13575837016105652,-0.3112010359764099
1700516052109804000,9.658803955078126,0.044371724128723145,-0.23509320616722107,-0.6178427338600159
1700516052119813000,9.668813232421876,0.06648688018321991,-0.3196304738521576,-0.7951136231422424
1700516052129823200,9.6788232421875,0.24854563176631927,-0.6578884124755859,-0.8195558786392212
1700516052139832300,9.688832275390626,0.03038693405687809,0.42449668049812317,0.1774432212114334
1700516052149842200,9.69884228515625,0.1191764548420906,0.21892276406288147,0.5143315196037292
1700516052159851300,9.708851318359375,0.04057885333895683,0.1433989703655243,0.4023232161998749
1700516052169861400,9.718861328125,0.0627342239022255,-0.8370946645736694,-0.3053508698940277
1700516052179871200,9.728871337890626,-0.07903063297271729,0.45723679661750793,-0.035843219608068466
1700516052189880000,9.738880126953125,-0.17615585029125214,0.32210028171539307,0.5248799920082092
1700516052199890200,9.74889013671875,0.008504272438585758,-0.06815481930971146,0.14842543005943298
1700516052209899300,9.758899169921875,-0.011756258085370064,-0.05192098766565323,0.10252850502729416
1700516052219909000,9.7689091796875,-0.04742797091603279,0.30923402309417725,0.393578439950943
1700516052229918200,9.778918212890625,-0.055037420243024826,-0.06641151756048203,-0.14533588290214539
1700516052239928300,9.78892822265625,0.0697239562869072,0.1895132064819336,0.1496044099330902
1700516052249938200,9.798938232421875,-0.0695982500910759,-0.24366459250450134,-0.16478629410266876
1700516052259947300,9.808947265625,-0.13842658698558807,0.3398960530757904,0.32836323976516724
1700516052269957400,9.818957275390625,0.08811227977275848,0.3201223611831665,0.3782002925872803
1700516052279966200,9.82896630859375,-0.10535358637571335,0.007766842842102051,0.3109419047832489
1700516052289976000,9.83897607421875,-0.03554680943489075,0.35045015811920166,0.32663723826408386
1700516052299985200,9.848985107421875,-0.1871962547302246,-0.6537967324256897,-0.4801650047302246
1700516052309995300,9.858995361328125,-0.026022545993328094,0.09656302630901337,-0.5356506109237671
1700516052320005000,9.869005126953125,0.1444392055273056,-0.5418158769607544,-0.8186423778533936
1700516052330014200,9.87901416015625,-0.017307084053754807,0.5245276689529419,-0.41234469413757324
1700516052340024300,9.8890244140625,0.15850815176963806,-0.7440190315246582,-0.7190811634063721
1700516052350033400,9.899033447265625,0.09622586518526077,0.18915314972400665,0.03734284266829491
1700516052360043300,9.909043212890625,0.2465599775314331,1.0312119722366333,0.37379223108291626
1700516052370052000,9.919052001953125,0.2061033695936203,-0.39273104071617126,-0.06881049275398254
1700516052380062200,9.929062255859375,0.01775635965168476,-0.5676831603050232,-0.5231095552444458
1700516052390071000,9.939071044921874,0.15849217772483826,0.5558475255966187,-0.5051369667053223
1700516052400081200,9.9490810546875,0.3468642234802246,0.24389974772930145,-0.18366596102714539
1700516052410091300,9.95909130859375,0.3420766592025757,-0.2896595001220703,-0.09912098944187164
1700516052420100000,9.96910009765625,0.14371216297149658,0.2553587853908539,-0.15885701775550842
1700516052430110200,9.979110107421874,-0.045167479664087296,0.14617638289928436,-0.40140947699546814
1700516052440119300,9.989119384765624,0.05392368510365486,-0.2969941198825836,-0.3735695779323578
1700516052450129200,9.999129150390624,-0.030980287119746208,-0.5457759499549866,-0.11284452676773071
1700516052460138200,10.00913818359375,-0.0717194601893425,0.3931664526462555,0.2749444842338562
1700516052470148400,10.0191484375,-0.3252324163913727,-0.05272925645112991,0.6321209669113159
1700516052480158200,10.029158203125,0.02045121230185032,-0.2968902587890625,0.2341317981481552
1700516052490167000,10.0391669921875,-0.13407577574253082,0.24952754378318787,0.5612595677375793
1700516052500177200,10.04917724609375,-0.15430675446987152,0.9029176235198975,1.0825473070144653
1700516052510186200,10.059186279296876,-0.0007656587986275554,0.28689247369766235,0.2229449301958084
1700516052520196000,10.069196044921876,0.0696571096777916,0.3636208176612854,0.2493605613708496
1700516052530205200,10.079205078125,0.15851587057113647,0.3531005382537842,0.1561528444290161
1700516052540215300,10.08921533203125,-0.196133553981781,-0.41777461767196655,-0.5474250316619873
1700516052550224400,10.099224365234376,0.0408765934407711,-0.16268078982830048,-0.7749108672142029
1700516052560234200,10.109234130859376,0.13856880366802216,-0.33152228593826294,-0.713557779788971
1700516052570244400,10.119244384765626,0.19225147366523743,-0.06844723224639893,-0.4988816976547241
1700516052580253200,10.129253173828126,0.13833177089691162,-0.07804739475250244,-0.026044650003314018
1700516052590263000,10.139262939453126,-0.04087499529123306,0.10492108762264252,0.6376909613609314
1700516052600272100,10.149272216796875,0.04613473638892174,0.3792453110218048,0.689417839050293
1700516052610282200,10.1592822265625,-0.07425425946712494,0.25975674390792847,0.40478503704071045
1700516052620291300,10.169291259765625,0.14313797652721405,-1.3043841123580933,-0.5128244161605835
1700516052630301200,10.17930126953125,-0.04644366353750229,0.4116213619709015,-0.1529112458229065
1700516052640310300,10.189310302734375,-0.043474506586790085,0.380497545003891,0.3703239858150482
1700516052650320400,10.1993203125,0.012504872865974903,-0.7142536640167236,-0.14494600892066956
1700516052660329200,10.2093291015625,-0.18909615278244019,0.09336909651756287,0.47803473472595215
1700516052670339000,10.219339111328125,-0.04080575332045555,0.48694515228271484,0.5685697197914124
1700516052680349200,10.22934912109375,-0.15644872188568115,-0.10253995656967163,-0.21475625038146973
1700516052690358300,10.239358154296875,-0.041973549872636795,-0.8521620035171509,-0.5903807282447815
1700516052700368100,10.2493681640625,0.13203899562358856,0.5644721984863281,0.11828829348087311
1700516052710377200,10.259377197265625,-0.2615088224411011,0.31918543577194214,0.29788947105407715
1700516052720387300,10.26938720703125,0.0778423324227333,0.4350665211677551,0.5409034490585327
1700516052730396200,10.279396240234375,-0.22663980722427368,0.2517099976539612,0.58644700050354
1700516052740406300,10.28940625,-0.13224858045578003,0.2657589614391327,0.42535316944122314
1700516052750416400,10.29941650390625,-0.05934188514947891,0.0462346076965332,-0.07406677305698395
1700516052760425200,10.30942529296875,-0.04014209285378456,-0.09281516075134277,-0.16634902358055115
1700516052770435300,10.319435302734375,0.09301809221506119,-0.03214195743203163,-0.04423590376973152
1700516052780447200,10.329447265625,-0.1322576403617859,-0.1965058594942093,-0.19397293031215668
1700516052790457300,10.339457275390625,0.16430798172950745,-0.2936238944530487,-0.6266455054283142
1700516052800466200,10.349466064453125,0.1443593055009842,0.29175782203674316,-0.21489445865154266
1700516052810476300,10.359476318359375,0.22568371891975403,0.38265976309776306,-0.29000651836395264
1700516052820485400,10.3694853515625,0.17724774777889252,-0.23494087159633636,-0.5882912278175354
1700516052830495200,10.3794951171875,0.08727684617042542,-0.3608790934085846,-0.5422075986862183
1700516052840504300,10.38950439453125,0.14597398042678833,0.35035720467567444,-0.15108779072761536
1700516052850514400,10.399514404296875,0.03347540274262428,0.272497296333313,0.10103952884674072
1700516052860524300,10.409524169921875,0.11375319957733154,-0.6999083161354065,-0.11945369094610214
1700516052870533000,10.419533203125,-0.07736722379922867,0.38135960698127747,-0.17999958992004395
1700516052880543200,10.429543212890625,-0.23193895816802979,0.18131279945373535,0.1941116899251938
1700516052890552300,10.43955224609375,0.016751550137996674,-0.09786903858184814,-0.06689487397670746
1700516052900562200,10.449562255859375,-0.008449144661426544,-0.3891104757785797,-0.06427086144685745
1700516052910571300,10.4595712890625,0.013249225914478302,0.5380064845085144,0.5217720866203308
1700516052920581400,10.469581298828125,-0.3842555284500122,0.5005038380622864,0.6118617653846741
1700516052930590500,10.479590576171875,-0.028542162850499153,-0.39378592371940613,-0.32144302129745483
1700516052940600300,10.489600341796875,0.005648564547300339,0.41564807295799255,0.27012017369270325
1700516052950609200,10.499609130859374,-0.14567731320858002,0.23994095623493195,0.48195597529411316
1700516052960619300,10.509619384765625,0.01913587749004364,0.08702464401721954,0.030961111187934875
1700516052970629000,10.519629150390625,-0.02455461211502552,0.009490973316133022,0.21889665722846985
1700516052980638200,10.52963818359375,0.016583770513534546,0.09754572808742523,-0.0051835766062140465
1700516052990648300,10.5396484375,-0.08309861272573471,-0.3647462725639343,-0.4559486210346222
1700516053000657400,10.549657470703124,0.1400630921125412,0.015867646783590317,-0.15232695639133453
1700516053010667300,10.559667236328124,0.09640270471572876,-0.19535617530345917,-0.07937711477279663
1700516053020676400,10.56967626953125,-0.021753765642642975,0.4711475372314453,0.2541734278202057
1700516053030686500,10.5796865234375,0.11789201200008392,-0.28106069564819336,-0.3544880449771881
1700516053040695300,10.5896953125,-0.009630789048969746,0.0031380027066916227,0.13142913579940796
1700516053050705200,10.599705078125,0.05956319347023964,0.6569080948829651,0.36176592111587524
1700516053060714200,10.60971435546875,0.043052393943071365,0.036679450422525406,-0.16765664517879486
1700516053070724400,10.619724365234376,-0.01895052194595337,-0.44793835282325745,-0.3822871744632721
1700516053080734200,10.629734130859376,0.0379449836909771,0.2737303376197815,-0.010755175724625587
1700516053090743300,10.639743408203126,-0.18725670874118805,0.22764460742473602,0.20545728504657745
1700516053100753400,10.64975341796875,0.05570134520530701,-0.4058114290237427,-0.25821104645729065
1700516053110762200,10.65976220703125,-0.094815194606781,0.14808639883995056,0.359054833650589
1700516053120772400,10.6697724609375,-0.02203099988400936,0.26183000206947327,0.3482660949230194
1700516053130781400,10.679781494140625,0.008314388804137707,-0.29702529311180115,-0.1608930081129074
1700516053140791300,10.689791259765625,0.017596304416656494,0.4488965570926666,0.6569229960441589
1700516053150800100,10.699800048828125,0.1317359209060669,0.48994147777557373,0.7981640100479126
1700516053160810200,10.709810302734375,-0.3729245662689209,0.10803725570440292,0.19295108318328857
1700516053170819300,10.7198193359375,0.06474597007036209,0.10917815566062927,-0.2819576561450958
1700516053180829200,10.7298291015625,-0.027632426470518112,-0.004869590047746897,-0.19137448072433472
1700516053190838300,10.73983837890625,0.10670433938503265,-0.21302439272403717,-0.188943549990654
1700516053200848400,10.749848388671875,0.10318044573068619,-0.06925497204065323,-0.5033840537071228
1700516053210858200,10.759858154296875,-0.04777950793504715,-0.16975921392440796,-0.15047739446163177
1700516053220867300,10.769867431640625,0.015241803601384163,-0.07537038624286652,-0.23523035645484924
1700516053230877400,10.77987744140625,-0.028984513133764267,0.16978690028190613,-0.2883684039115906
1700516053240886300,10.78988623046875,0.17383889853954315,-0.7563619613647461,-0.6716412305831909
1700516053250896100,10.799896240234375,-0.04285425692796707,0.38158145546913147,-0.03033233992755413
1700516053260905200,10.8099052734375,-0.04881307855248451,0.27013614773750305,0.366860568523407
1700516053270915300,10.819915283203125,0.09010698646306992,-0.24575303494930267,-0.06641817092895508
1700516053280924400,10.82992431640625,-0.07770944386720657,-0.16450852155685425,0.1981024295091629
1700516053290934300,10.839934326171875,0.01702691987156868,0.19679269194602966,0.3357175588607788
1700516053300943400,10.849943359375,-0.12275974452495575,0.1236143484711647,0.15851160883903503
1700516053310953500,10.859953369140625,0.055335160344839096,-0.4659897983074188,-0.0863436758518219
1700516053320962300,10.86996240234375,-0.10272318124771118,0.0796532854437828,0.3680882751941681
1700516053330972200,10.87997216796875,-0.17371240258216858,0.20591694116592407,0.39139118790626526
1700516053340981200,10.889981201171874,0.042746931314468384,-0.39407458901405334,-0.5200173258781433
1700516053350991400,10.899991455078125,-0.00938977301120758,0.21131783723831177,-0.09384100884199142
1700516053361001200,10.910001220703125,0.07399992644786835,0.03416915610432625,-0.04236769676208496
1700516053371010300,10.92001025390625,-0.11731677502393723,0.1321130245923996,-0.21378925442695618
1700516053381020400,10.9300205078125,0.049247175455093384,-0.5867167711257935,-0.3760753571987152
1700516053391029200,10.940029296875,-0.041436124593019485,0.5107905864715576,0.3775520920753479
1700516053401039400,10.950039306640624,-0.025622539222240448,0.17438697814941406,0.11650025099515915
1700516053411048400,10.96004833984375,0.10320361703634262,-0.45916199684143066,-0.5589266419410706
1700516053421058300,10.970058349609374,-0.002335326047614217,0.07909534871578217,-0.23527510464191437
1700516053431067100,10.980067138671876,0.08825422823429108,-0.16493701934814453,-0.1913558393716812
1700516053441077200,10.9900771484375,-0.007981227710843086,-0.1230178028345108,-0.13237668573856354
1700516053451086300,11.00008642578125,-0.06922833621501923,-0.29584869742393494,0.19500704109668732
1700516053461096200,11.01009619140625,0.026218287646770477,0.2441633939743042,0.34961873292922974
1700516053471105300,11.020105224609376,-0.10837281495332718,-0.010429471731185913,0.05216706544160843
1700516053481115400,11.030115478515626,0.16608218848705292,0.07755551487207413,0.14012248814105988
1700516053491124500,11.04012451171875,-0.07446784526109695,0.21410296857357025,0.5533292293548584
1700516053501134300,11.05013427734375,-0.047982703894376755,0.5372541546821594,0.9101555347442627
1700516053511144400,11.06014453125,-0.07841970771551132,0.07781996577978134,0.06632070243358612
1700516053521153300,11.0701533203125,-0.054253652691841125,0.13169518113136292,-0.1191927045583725
1700516053531163100,11.0801630859375,0.031263645738363266,-0.055745821446180344,-0.31309694051742554
1700516053541172200,11.090172119140625,-0.08993042260408401,-0.4534252882003784,-0.5819275975227356
1700516053551182300,11.100182373046875,0.028313662856817245,-0.18900267779827118,-0.38053056597709656
1700516053561191400,11.11019140625,0.01877475343644619,-0.0016948357224464417,-0.09716649353504181
1700516053571201300,11.120201171875,0.01582343690097332,0.13583186268806458,-0.21168935298919678
1700516053581210400,11.13021044921875,0.14986112713813782,-0.4201967418193817,-0.5018705725669861
1700516053591220500,11.140220458984375,0.0783853530883789,-0.35921889543533325,-0.34363406896591187
1700516053601229300,11.150229248046875,0.016980314627289772,0.28008943796157837,0.08071162551641464
1700516053611239200,11.1602392578125,-0.017619473859667778,0.1618669331073761,0.36108601093292236
1700516053621248300,11.170248291015625,0.10523027926683426,-0.48280900716781616,0.005306082312017679
1700516053631258400,11.18025830078125,-0.043472643941640854,0.2897636294364929,0.2397015392780304
1700516053641267200,11.19026708984375,-0.15794461965560913,0.3217431604862213,0.5022652745246887
1700516053651277300,11.20027734375,-0.009130647405982018,-0.4254399836063385,-0.1722995936870575
1700516053661286400,11.210286376953125,-0.14379605650901794,0.6826217174530029,0.7878804802894592
1700516053671296300,11.220296142578125,-0.09555181860923767,0.48646098375320435,0.8117781281471252
1700516053681305300,11.230305419921875,-0.26082172989845276,-0.09487032145261765,-0.1900264024734497
1700516053691315500,11.2403154296875,0.05019872263073921,-0.2412717342376709,-0.2840612828731537
1700516053701325300,11.2503251953125,-0.03862356022000313,-0.10381747782230377,-0.08104398846626282
1700516053711334100,11.260334228515624,-0.04063104838132858,-0.30568933486938477,-0.12237518280744553
1700516053721344300,11.27034423828125,0.07901332527399063,-0.3049340844154358,-0.5981188416481018
1700516053731353300,11.280353271484374,0.08833412081003189,-0.12426256388425827,-0.3870960474014282
1700516053741363200,11.29036328125,0.1422029435634613,0.03651007264852524,-0.16169382631778717
1700516053751372300,11.300372314453124,0.08157075941562653,0.2841923236846924,-0.11557373404502869
1700516053761382400,11.31038232421875,0.14051316678524017,-0.6601638197898865,-0.3949800729751587
1700516053771391500,11.3203916015625,-0.0452396497130394,0.4335940480232239,-0.11146767437458038
1700516053781397800,11.330397705078125,0.02166854403913021,0.1510923057794571,0.19720600545406342
1700516053791406800,11.34040673828125,0.10613922029733658,-0.5116877555847168,-0.23102575540542603
1700516053801417000,11.3504169921875,-0.1115582212805748,0.11664645373821259,0.07007362693548203
1700516053811425800,11.36042578125,-0.10407686978578568,0.3122636377811432,0.26843705773353577
1700516053821435600,11.370435546875,-0.01642397977411747,-0.13119477033615112,-0.009530920535326004
1700516053831444700,11.38044482421875,-0.011771172285079956,-0.5832690000534058,-0.25465065240859985
1700516053841454800,11.390454833984375,-0.09229610860347748,0.49467310309410095,0.27742788195610046
1700516053851463700,11.400463623046875,-0.056899234652519226,0.21619755029678345,0.19443686306476593
1700516053861473800,11.410473876953125,0.06291558593511581,-0.7942308187484741,-0.6772714257240295
1700516053871483000,11.42048291015625,-0.04501461237668991,0.125992551445961,-0.2281024158000946
1700516053881492700,11.43049267578125,-0.008249940350651741,0.34031522274017334,0.07081638276576996
1700516053891501800,11.440501708984375,0.05855651944875717,-0.2597399652004242,-0.3031931519508362
1700516053901512000,11.450511962890625,-0.07484148442745209,-0.32595333456993103,-0.013097692281007767
1700516053911521800,11.460521728515625,0.06738889217376709,0.5708624124526978,0.44459185004234314
1700516053921530600,11.470530517578124,-0.0785699114203453,0.33954718708992004,0.2184082418680191
1700516053931540700,11.480540771484375,0.04796912521123886,-0.9185341000556946,-0.6545096635818481
1700516053941549800,11.4905498046875,-0.06419230252504349,0.5558118224143982,0.28790155053138733
1700516053951559700,11.5005595703125,-0.05368000641465187,0.22615084052085876,0.48644953966140747
1700516053961568800,11.51056884765625,0.0002812298189383,-0.11197846382856369,-0.07630542665719986
1700516053971579000,11.520578857421874,-0.09712149202823639,0.25294119119644165,0.5249327421188354
1700516053981588000,11.530587890625,-0.05481211468577385,0.06578727066516876,0.4236530065536499
1700516053991597800,11.540597900390624,-0.16601693630218506,-0.022367622703313828,-0.07651741057634354
1700516054001606700,11.550606689453126,0.12188436090946198,-0.059238556772470474,-0.01575872302055359
1700516054011616800,11.56061669921875,-0.048830922693014145,-0.12394031882286072,-0.026698188856244087
1700516054021625900,11.5706259765625,0.010641992092132568,0.26121747493743896,0.1130615770816803
1700516054031635700,11.5806357421875,0.11367649585008621,-0.48486602306365967,-0.6048936247825623
1700516054041644800,11.590644775390626,-0.02081659808754921,0.3993111848831177,0.2646838426589966
1700516054051655000,11.600655029296876,-0.017771540209650993,-0.17254140973091125,-0.05824732780456543
1700516054061663700,11.610663818359376,-0.03790370747447014,0.20851166546344757,-0.20878969132900238
1700516054071673900,11.620673828125,0.05230554938316345,-0.321698397397995,-0.38524675369262695
1700516054081682700,11.6306826171875,0.0945158526301384,0.16903722286224365,-0.048466067761182785
1700516054091692800,11.64069287109375,-0.04951721802353859,0.4151197075843811,0.14087243378162384
1700516054101701600,11.65070166015625,0.11525974422693253,-0.5773834586143494,-0.47198110818862915
1700516054111711700,11.660711669921875,-0.0965566337108612,-0.09203431755304337,-0.04616722837090492
1700516054121720800,11.670720947265625,-0.033903371542692184,0.4801138639450073,0.3718281388282776
1700516054131730700,11.680730712890625,0.03241759538650513,-0.18023981153964996,0.006602775305509567
1700516054141739800,11.69073974609375,-0.049431197345256805,-0.6809042096138,-0.2881436347961426
1700516054151750000,11.70075,0.012054798193275928,0.5313501954078674,0.5433644652366638
1700516054161759000,11.710759033203125,-0.16274018585681915,0.2956311106681824,0.5889932513237
1700516054171768800,11.720768798828125,0.07200468331575394,-0.6148714423179626,-0.3456716537475586
1700516054181777700,11.730777587890625,-0.13646863400936127,0.23840804398059845,0.3440162241458893
1700516054191787800,11.740787841796875,-0.07419966161251068,0.29333361983299255,0.4225320816040039
1700516054201796900,11.750796875,0.0070821442641317844,-0.3183646500110626,-0.499708890914917
1700516054211806700,11.760806640625,-0.07481591403484344,0.22423230111598969,0.09713613986968994
1700516054221815800,11.77081591796875,0.09497658163309097,0.13358043134212494,0.1428184062242508
1700516054231826000,11.780825927734375,-0.08570584654808044,-0.07851211726665497,-0.29063528776168823
1700516054241835800,11.790835693359375,0.0608348548412323,-0.41563475131988525,-0.6972139477729797
1700516054251844900,11.800844970703125,0.03687918931245804,0.17295287549495697,-0.1873461902141571
1700516054261855000,11.81085498046875,0.016744624823331833,0.0013070794520899653,0.03530659154057503
1700516054271863800,11.82086376953125,0.13101793825626373,-0.10384038090705872,-0.06198267638683319
1700516054281873700,11.830873779296875,0.08408291637897491,-0.1258322298526764,0.07490779459476471
1700516054291882800,11.8408828125,0.04897872731089592,0.21894779801368713,-0.025551166385412216
1700516054301892900,11.850892822265624,0.08437266945838928,0.05744438245892525,-0.1566290259361267
1700516054311901700,11.860901611328124,0.09154296666383743,-0.8374571204185486,-0.5195704698562622
1700516054321911800,11.870911865234374,-0.13992807269096375,0.6475303173065186,0.08601690828800201
1700516054331921000,11.8809208984375,-0.173661008477211,0.1754911243915558,0.6961827874183655
1700516054341930800,11.8909306640625,0.014270815066993237,-0.2548075318336487,0.15363003313541412
1700516054351939800,11.90093994140625,-0.12087422609329224,0.8146042227745056,1.0162841081619263
1700516054361949700,11.91094970703125,-0.09530787914991379,0.513299286365509,0.9905933737754822
1700516054371958800,11.920958740234376,-0.19638442993164062,0.016533169895410538,0.06938599795103073
1700516054381968600,11.93096875,-0.006426740437746048,-0.09530974179506302,-0.22306691110134125
1700516054391977700,11.940977783203126,0.09878463298082352,-0.4681309759616852,-0.7402128577232361
1700516054401987800,11.95098779296875,0.10694615542888641,-0.09828502684831619,-0.6437283754348755
1700516054411997000,11.960996826171876,0.24384967982769012,-0.42305830121040344,-0.6560260653495789
1700516054422006800,11.9710068359375,0.19563500583171844,0.5239521861076355,-0.10302305221557617
1700516054432016000,11.981015869140625,0.11888830363750458,0.5309485793113708,0.2289476990699768
1700516054442026000,11.99102587890625,0.1917784959077835,-0.16042722761631012,0.19420143961906433
1700516054452034800,12.001034912109375,0.04129284620285034,-0.03526797518134117,0.013559484854340553
1700516054462044700,12.011044677734375,-0.18058708310127258,0.32997018098831177,-0.12088540941476822
1700516054472053800,12.0210537109375,-0.24173672497272491,0.12076183408498764,0.26182201504707336
1700516054482064000,12.03106396484375,0.05874720215797424,-0.9913086891174316,-0.15648335218429565
1700516054492072700,12.04107275390625,-0.10937522351741791,0.26951828598976135,0.28474757075309753
1700516054502082800,12.051082763671875,-0.27238360047340393,0.30403685569763184,0.704292356967926
1700516054512092000,12.061091796875,0.009271262213587761,-0.5403255820274353,-0.47641927003860474
1700516054522101800,12.071101806640625,0.026218021288514137,-0.15809935331344604,-0.09239064902067184
1700516054532110600,12.081110595703125,0.2008500099182129,0.29635417461395264,0.11807843297719955
1700516054542120700,12.09112060546875,0.026558905839920044,0.15068937838077545,-0.2691206932067871
1700516054552129800,12.1011298828125,0.09652920067310333,-0.2672804296016693,-0.24933792650699615
1700516054562139600,12.1111396484375,0.2591173052787781,0.5800625681877136,0.2742568552494049
1700516054572148700,12.121148681640625,0.05209409445524216,0.667077898979187,0.16564781963825226
1700516054582158800,12.131158935546875,0.11959031224250793,-0.6998872756958008,-0.5922443866729736
1700516054592168000,12.14116796875,0.008199873380362988,0.4954015016555786,0.018700717017054558
1700516054602177800,12.151177734375,0.050520699471235275,0.6232656836509705,0.3689122498035431
1700516054612187000,12.161186767578124,0.05108475685119629,-0.4589681029319763,-0.3399945795536041
1700516054622197000,12.171197021484375,0.0663318857550621,-0.5178343653678894,-0.23501917719841003
1700516054632205800,12.181205810546874,-0.013337376527488232,0.5918651819229126,0.5354610085487366
